timestamp,ax,ay,az
1631019124414,-0.490318,0.485377,-0.710345
1631019124424,-0.48806099999999997,0.48745099999999997,-0.7123579999999999
1631019124433,-0.48501099999999997,0.48745099999999997,-0.714127
1631019124443,-0.482449,0.48556,-0.7144929999999999
1631019124452,-0.481717,0.488732,-0.716384
1631019124462,-0.479338,0.489769,-0.719678
1631019124472,-0.47787399999999997,0.48861,-0.720593
1631019124481,-0.476776,0.488,-0.721813
1631019124491,-0.475678,0.48562099999999997,-0.723399
1631019124500,-0.47482399999999997,0.48470599999999997,-0.723399
1631019124510,-0.473543,0.485499,-0.723216
1631019124520,-0.47214,0.48562099999999997,-0.722423
1631019124529,-0.469273,0.485438,-0.723338
1631019124539,-0.46738199999999996,0.48775599999999997,-0.721813
1631019124548,-0.46494199999999997,0.489037,-0.721264
1631019124558,-0.464515,0.487024,-0.720227
1631019124568,-0.465979,0.481534,-0.717604
1631019124577,-0.46646699999999996,0.478118,-0.71919
1631019124587,-0.468663,0.477508,-0.722606
1631019124596,-0.4697,0.47885,-0.7278519999999999
1631019124606,-0.470737,0.480436,-0.7296819999999999
1631019124616,-0.472018,0.484157,-0.7330369999999999
1631019124625,-0.473726,0.487939,-0.7354769999999999
1631019124635,-0.474031,0.489708,-0.7360869999999999
1631019124644,-0.47336,0.485987,-0.73688
1631019124654,-0.472628,0.481351,-0.7351719999999999
1631019124664,-0.47543399999999997,0.48379099999999997,-0.734379
1631019124673,-0.474275,0.487573,-0.7360869999999999
1631019124683,-0.47275,0.49111099999999996,-0.7366969999999999
1631019124692,-0.471652,0.490867,-0.73566
1631019124702,-0.467626,0.48836599999999997,-0.7333419999999999
1631019124712,-0.466833,0.485865,-0.7302919999999999
1631019124721,-0.466406,0.48678,-0.72834
1631018753887,-0.47665399999999997,0.607194,-0.63135
1631018753896,-0.47817899999999997,0.608414,-0.629642
1631018753906,-0.47946,0.609085,-0.627385
1631018753916,-0.479033,0.609329,-0.623481
1631018753925,-0.47970399999999996,0.610366,-0.619638
1631018753935,-0.479338,0.613721,-0.6195769999999999
1631018753944,-0.479216,0.6143919999999999,-0.61915
1631018753954,-0.47787399999999997,0.613721,-0.622078
1631018753964,-0.475495,0.6113419999999999,-0.622566
1631018753973,-0.47360399999999997,0.6089019999999999,-0.622688
1631018753983,-0.47116399999999997,0.604632,-0.62403
1631018753992,-0.470249,0.601704,-0.625921
1631018754002,-0.46726,0.599996,-0.624884
1631018754012,-0.46604,0.596824,-0.625921
1631018754021,-0.46524699999999997,0.595055,-0.625494
1631018754031,-0.464393,0.5934079999999999,-0.626653
1631018754040,-0.463173,0.59292,-0.626897
1631018754050,-0.46238,0.59231,-0.627019
1631018754060,-0.464088,0.59048,-0.628117
1631018754069,-0.46494199999999997,0.588772,-0.629642
1631018754079,-0.46555199999999997,0.589199,-0.630618
1631018754088,-0.468358,0.58926,-0.630191
1631018754098,-0.470798,0.588101,-0.630252
1631018754108,-0.473177,0.588345,-0.630679
1631018754117,-0.475861,0.589321,-0.629886
1631018754127,-0.477752,0.591944,-0.631777
1631018754136,-0.48061899999999996,0.59353,-0.631106
1631018754146,-0.48257099999999997,0.594994,-0.630618
1631018754156,-0.48287599999999997,0.594689,-0.628056
1631018754165,-0.484035,0.594384,-0.624884
1631018754175,-0.485072,0.59597,-0.624945
1631018754184,-0.486719,0.597434,-0.625494
1631018754194,-0.48775599999999997,0.596214,-0.625555
1631018754204,-0.488122,0.59597,-0.626287
1631018754213,-0.488122,0.594811,-0.626775
1631018754223,-0.488854,0.595116,-0.627751
1631018754232,-0.48806099999999997,0.596641,-0.625311
1631018754242,-0.487817,0.597617,-0.626104
1631018754252,-0.48739,0.597373,-0.62525
1631018754261,-0.487939,0.597007,-0.624701
1631018754271,-0.48617,0.596946,-0.625372
1631018754280,-0.48653599999999997,0.596946,-0.626714
1631018754290,-0.485865,0.594811,-0.627019
1631018754300,-0.484645,0.596092,-0.62647
1631018754309,-0.483852,0.595726,-0.627751
1631018754319,-0.482754,0.594201,-0.627202
1631018754328,-0.48122899999999996,0.593896,-0.623969
1631018754338,-0.48129,0.594201,-0.62281
1631018754348,-0.480863,0.59475,-0.622444
1631018754357,-0.48068,0.596519,-0.62098
1631018754367,-0.481046,0.597129,-0.619821
1631018754376,-0.481473,0.598593,-0.620736
1631018754386,-0.480192,0.597434,-0.619333
1631018754396,-0.481412,0.598349,-0.617198
1631018754405,-0.481778,0.600484,-0.61549
1631018754415,-0.48129,0.602558,-0.61366
1631018754424,-0.481412,0.603229,-0.6119519999999999
1631018754434,-0.481351,0.604449,-0.608536
1631018754444,-0.4819,0.608414,-0.606706
1631018754453,-0.48129,0.60878,-0.604754
1631018754463,-0.4819,0.608963,-0.604571
1631018754472,-0.481168,0.609451,-0.602741
1631018754482,-0.479887,0.6125619999999999,-0.59841
1631018754492,-0.481046,0.61488,-0.593652
1631018754501,-0.480253,0.617076,-0.590541
1631018754511,-0.479582,0.617686,-0.588955
1631018754520,-0.480253,0.61976,-0.5876129999999999
1631018754530,-0.480192,0.621529,-0.58865
1631018754540,-0.479033,0.621895,-0.587979
1631018754549,-0.477142,0.623176,-0.584807
1631018754559,-0.47512899999999997,0.624152,-0.578463
1631018754568,-0.475007,0.627934,-0.574986
1631018754578,-0.474031,0.632448,-0.571265
1631018754588,-0.472628,0.637023,-0.569008
1631018754597,-0.471896,0.637938,-0.568032
1631018754607,-0.471652,0.639829,-0.566507
1631018754616,-0.471042,0.638548,-0.560712
1631018754626,-0.472018,0.640805,-0.553941
1631018754636,-0.471652,0.646966,-0.549732
1631018754645,-0.47268899999999997,0.650077,-0.546011
1631018754655,-0.471286,0.653371,-0.5401549999999999
1631018754664,-0.468968,0.658739,-0.534726
1631018754674,-0.468846,0.664656,-0.532774
1631018754684,-0.471347,0.667218,-0.535946
1631018754693,-0.476105,0.669048,-0.5413749999999999
1631018754703,-0.477142,0.67344,-0.5447299999999999
1631018754712,-0.478972,0.676063,-0.55022
1631018754722,-0.480497,0.674294,-0.551135
1631018754732,-0.48129,0.676124,-0.551318
1631018754741,-0.48092399999999996,0.676734,-0.551318
1631018754751,-0.479582,0.676185,-0.550098
1631018754760,-0.476532,0.676185,-0.546926
1631018754770,-0.474153,0.673257,-0.543754
1631018754780,-0.478057,0.681187,-0.547658
1631018754789,-0.48312,0.685762,-0.558699
1631018754799,-0.485743,0.688751,-0.575108
1631018754808,-0.484767,0.6886289999999999,-0.587552
1631018754818,-0.48562099999999997,0.6886289999999999,-0.599325
1631018754828,-0.484035,0.6919839999999999,-0.611525
1631018754837,-0.486475,0.696193,-0.624213
1631018754847,-0.491355,0.69662,-0.6390359999999999
1631018754856,-0.49776,0.700585,-0.652517
1631018754866,-0.503738,0.693143,-0.662704
1631018754876,-0.508374,0.683078,-0.671549
1631018754885,-0.510204,0.675026,-0.673562
1631018754895,-0.504714,0.665876,-0.664778
1631018754904,-0.497272,0.655689,-0.652395
1631018754914,-0.490379,0.646356,-0.637023
1631018754924,-0.483364,0.638304,-0.625189
1631018754933,-0.476288,0.633729,-0.616954
1631018754943,-0.469639,0.633973,-0.613538
1631018754952,-0.462319,0.633729,-0.609878
1631018754962,-0.456524,0.630008,-0.606035
1631018754972,-0.450546,0.623786,-0.604327
1631018754981,-0.446764,0.617015,-0.604144
1631018754991,-0.447191,0.612318,-0.605486
1631018755000,-0.447923,0.608109,-0.607499
1631018755010,-0.444385,0.604266,-0.606096
1631018755020,-0.442921,0.605059,-0.602802
1631018755029,-0.440176,0.609695,-0.5978
1631018755039,-0.437919,0.615124,-0.5876129999999999
1631018755048,-0.435174,0.617991,-0.575718
1631018755058,-0.431697,0.615551,-0.563701
1631018755068,-0.430599,0.611586,-0.554734
1631018755077,-0.428952,0.599447,-0.546743
1631018755087,-0.429928,0.583709,-0.543632
1631018755096,-0.432002,0.579683,-0.546011
1631018755106,-0.439444,0.580415,-0.553392
1631018755116,-0.44273799999999996,0.579439,-0.560773
1631018755125,-0.445361,0.579195,-0.563457
1631018755135,-0.444812,0.578036,-0.563518
1631018755144,-0.443714,0.575596,-0.563335
1631018755154,-0.44408,0.573827,-0.5602239999999999
1631018755164,-0.447679,0.570716,-0.558638
1631018755173,-0.452498,0.566446,-0.559614
1631018755183,-0.463173,0.569496,-0.569252
1631018755192,-0.47214,0.5705939999999999,-0.588589
1631018755202,-0.485255,0.5715089999999999,-0.603107
1631018755212,-0.49837,0.569801,-0.616344
1631018755221,-0.5063,0.561505,-0.629825
1631018755231,-0.522038,0.5474749999999999,-0.645319
1631018755240,-0.532408,0.537227,-0.660081
1631018755250,-0.538874,0.527223,-0.665144
1631018755260,-0.547902,0.525027,-0.671061
1631018755269,-0.554124,0.523624,-0.675209
1631018755279,-0.551684,0.525454,-0.687897
1631018755288,-0.556442,0.531798,-0.692472
1631018755298,-0.55815,0.534848,-0.693326
1631018755308,-0.559858,0.537288,-0.696193
1631018755317,-0.559797,0.537227,-0.696254
1631018755327,-0.56059,0.537532,-0.693875
1631018755336,-0.559492,0.533689,-0.6919839999999999
1631018755346,-0.561017,0.529297,-0.685823
1631018755356,-0.562847,0.528565,-0.679052
1631018755365,-0.558943,0.529358,-0.6803939999999999
1631018755375,-0.553392,0.529236,-0.679418
1631018755384,-0.5477799999999999,0.525637,-0.675453
1631018755394,-0.547048,0.522038,-0.666608
1631018755404,-0.5450349999999999,0.518622,-0.662643
1631018755413,-0.542656,0.516304,-0.660447
1631018755423,-0.545401,0.516853,-0.654347
1631018755432,-0.5474749999999999,0.518317,-0.649833
1631018755442,-0.547902,0.52094,-0.648125
1631018755452,-0.546804,0.5246,-0.645685
1631018755461,-0.546926,0.527589,-0.641232
1631018755471,-0.546987,0.528931,-0.636108
1631018755480,-0.550281,0.532896,-0.630313
1631018755490,-0.54961,0.534177,-0.626348
1631018755500,-0.5480849999999999,0.534848,-0.622871
1631018755509,-0.546987,0.535519,-0.6195769999999999
1631018755519,-0.548024,0.5374099999999999,-0.617259
1631018755528,-0.549671,0.539972,-0.613599
1631018755538,-0.551013,0.543388,-0.614575
1631018755548,-0.551867,0.547658,-0.61488
1631018755557,-0.550769,0.549976,-0.61671
1631018755567,-0.549732,0.551135,-0.617076
1631018755576,-0.547231,0.550525,-0.617991
1631018755586,-0.545584,0.550525,-0.619394
1631018755596,-0.544974,0.548878,-0.6204919999999999
1631018755605,-0.543876,0.548634,-0.622322
1631018755615,-0.543022,0.547292,-0.621468
1631018755624,-0.540216,0.546682,-0.622078
1631018755634,-0.537593,0.544974,-0.621773
1631018755644,-0.537227,0.545096,-0.619821
1631018755653,-0.5377149999999999,0.546377,-0.618601
1631018755663,-0.540216,0.548512,-0.618174
1631018755672,-0.542229,0.554978,-0.625189
1631018755682,-0.5444249999999999,0.55937,-0.633058
1631018755692,-0.5438149999999999,0.563335,-0.639402
1631018755701,-0.543449,0.5673,-0.646356
1631018755711,-0.5407649999999999,0.571143,-0.649223
1631018755720,-0.537227,0.573766,-0.651175
1631018755730,-0.534848,0.573278,-0.64782
1631018755740,-0.532347,0.573034,-0.6405609999999999
1631018755749,-0.530273,0.572546,-0.634949
1631018755759,-0.52887,0.570533,-0.629825
1631018755768,-0.527162,0.571448,-0.620553
1631018755778,-0.527772,0.572668,-0.6134769999999999
1631018755788,-0.527345,0.57584,-0.609329
1631018755797,-0.526369,0.579073,-0.607377
1631018755807,-0.522404,0.584014,-0.6098169999999999
1631018755816,-0.520269,0.5885279999999999,-0.610244
1631018755826,-0.518134,0.590175,-0.6107319999999999
1631018755836,-0.5142909999999999,0.5894429999999999,-0.605669
1631018755845,-0.511485,0.586759,-0.601399
1631018755855,-0.513864,0.585966,-0.596214
1631018755864,-0.517158,0.587857,-0.592127
1631018755874,-0.516487,0.588467,-0.587735
1631018755884,-0.51606,0.5903579999999999,-0.5839529999999999
1631018755893,-0.515633,0.590785,-0.578524
1631018755903,-0.516975,0.590419,-0.57767
1631018755912,-0.516548,0.593042,-0.575474
1631018755922,-0.518927,0.595055,-0.570167
1631018755932,-0.5222209999999999,0.597495,-0.566873
1631018755941,-0.525332,0.601399,-0.5632739999999999
1631018755951,-0.527467,0.604388,-0.561688
1631018755960,-0.53009,0.608536,-0.557174
1631018755970,-0.531798,0.611708,-0.554185
1631018755980,-0.532469,0.612379,-0.550464
1631018755989,-0.535641,0.6128669999999999,-0.5483899999999999
1631018755999,-0.538874,0.6165269999999999,-0.547353
1631018756008,-0.539911,0.61915,-0.546011
1631018756018,-0.540582,0.619943,-0.543571
1631018756028,-0.541497,0.62342,-0.540277
1631018756037,-0.542778,0.63013,-0.539423
1631018756047,-0.543144,0.6359859999999999,-0.537227
1631018756056,-0.543327,0.638243,-0.532225
1631018756066,-0.543083,0.642269,-0.52704
1631018756076,-0.541924,0.645685,-0.526186
1631018756085,-0.539301,0.649955,-0.526796
1631018756095,-0.535702,0.653981,-0.526674
1631018756104,-0.530456,0.653676,-0.525698
1631018756114,-0.528931,0.65209,-0.524112
1631018756124,-0.527284,0.648125,-0.527101
1631018756133,-0.526186,0.646478,-0.529419
1631018756143,-0.524722,0.643184,-0.528321
1631018756152,-0.524112,0.637389,-0.526979
1631018756162,-0.525698,0.630618,-0.524295
1631018756172,-0.527467,0.621834,-0.52399
1631018756181,-0.532652,0.615551,-0.527406
1631018756191,-0.535702,0.613538,-0.532164
1631018756200,-0.537166,0.6125619999999999,-0.535885
1631018756210,-0.5364949999999999,0.613843,-0.542351
1631018756220,-0.5407649999999999,0.616344,-0.5398499999999999
1631018756229,-0.546682,0.616466,-0.536739
1631018756239,-0.550769,0.6168319999999999,-0.535824
1631018756248,-0.551745,0.618418,-0.5374099999999999
1631018756258,-0.553514,0.61793,-0.537288
1631018756268,-0.559065,0.619821,-0.534116
1631018756277,-0.560956,0.621346,-0.534238
1631018756287,-0.561566,0.6192719999999999,-0.534665
1631018756296,-0.562786,0.620065,-0.533994
1631018756306,-0.5660189999999999,0.622932,-0.535214
1631018756316,-0.565836,0.627324,-0.535397
1631018756325,-0.565653,0.630984,-0.533933
1631018756335,-0.562542,0.636413,-0.530212
1631018756344,-0.5614439999999999,0.63867,-0.526674
1631018756354,-0.560712,0.640134,-0.522709
1631018756364,-0.560102,0.6411709999999999,-0.519293
1631018756373,-0.557845,0.639158,-0.5182559999999999
1631018756383,-0.554368,0.6381209999999999,-0.518439
1631018756392,-0.551928,0.636718,-0.5173409999999999
1631018756402,-0.55022,0.634888,-0.518012
1631018756412,-0.546499,0.632265,-0.518134
1631018756421,-0.542839,0.630069,-0.518683
1631018756431,-0.541863,0.63013,-0.518927
1631018756440,-0.539423,0.628666,-0.519232
1631018756450,-0.5383249999999999,0.626165,-0.520208
1631018756460,-0.537288,0.624152,-0.521123
1631018756469,-0.537654,0.622078,-0.523258
1631018756479,-0.538264,0.619394,-0.527345
1631018756488,-0.5395449999999999,0.617564,-0.533323
1631018756498,-0.539423,0.6177469999999999,-0.5371049999999999
1631018756508,-0.540887,0.616039,-0.541619
1631018756517,-0.541497,0.616161,-0.546133
1631018756527,-0.5432049999999999,0.6156119999999999,-0.548878
1631018756536,-0.542717,0.615429,-0.552904
1631018756546,-0.543998,0.6156119999999999,-0.555344
1631018756556,-0.544791,0.614331,-0.558089
1631018756565,-0.545218,0.611525,-0.558943
1631018756575,-0.545706,0.609878,-0.559309
1631018756584,-0.545401,0.609024,-0.561322
1631018756594,-0.543876,0.607499,-0.5635789999999999
1631018756604,-0.545279,0.607438,-0.5657139999999999
1631018756613,-0.545706,0.606767,-0.566385
1631018756623,-0.545828,0.605913,-0.567727
1631018756632,-0.544974,0.603656,-0.568642
1631018756642,-0.5441199999999999,0.604205,-0.567971
1631018756652,-0.544059,0.603534,-0.568276
1631018756661,-0.544242,0.601155,-0.568093
1631018756671,-0.543632,0.599569,-0.5657139999999999
1631018756680,-0.543388,0.598227,-0.566751
1631018756690,-0.544486,0.597251,-0.5666289999999999
1631018756700,-0.545096,0.596702,-0.567605
1631018756709,-0.546316,0.596214,-0.568947
1631018756719,-0.545828,0.59597,-0.569923
1631018756728,-0.547109,0.596092,-0.5708989999999999
1631018756738,-0.5462549999999999,0.595604,-0.570106
1631018756748,-0.547414,0.595177,-0.567971
1631018756757,-0.547048,0.593164,-0.565836
1631018756767,-0.546987,0.5921879999999999,-0.562115
1631018756776,-0.546804,0.5927979999999999,-0.5602239999999999
1631018756786,-0.545218,0.593591,-0.5612
1631018756796,-0.5447299999999999,0.595604,-0.564311
1631018756805,-0.543876,0.597251,-0.5666289999999999
1631018756815,-0.544059,0.596641,-0.568398
1631018756824,-0.544059,0.593774,-0.56974
1631018756834,-0.545401,0.5921879999999999,-0.568947
1631018756844,-0.5453399999999999,0.592066,-0.569008
1631018756853,-0.5462549999999999,0.591517,-0.5693739999999999
1631018756863,-0.546804,0.591212,-0.568886
1631018756872,-0.546377,0.591639,-0.56791
1631018756882,-0.546438,0.5917,-0.569252
1631018756892,-0.545401,0.5931029999999999,-0.56974
1631018756901,-0.5453399999999999,0.593835,-0.5705939999999999
1631018756911,-0.5456449999999999,0.593164,-0.569801
1631018756920,-0.545767,0.59292,-0.5702889999999999
1631018756930,-0.544913,0.594872,-0.571265
1631018756940,-0.546987,0.5955429999999999,-0.573827
1631018756949,-0.547963,0.596885,-0.574315
1631018756959,-0.548268,0.596702,-0.575047
1631018756968,-0.547109,0.597495,-0.574986
1631018756978,-0.547048,0.598471,-0.574071
1631018756988,-0.5477799999999999,0.599996,-0.5718139999999999
1631018756997,-0.547048,0.599264,-0.571265
1631018757007,-0.546926,0.598959,-0.571997
1631018757016,-0.546682,0.598654,-0.5712039999999999
1631018757026,-0.546194,0.598776,-0.5721189999999999
1631018757036,-0.5459499999999999,0.599081,-0.572607
1631018757045,-0.545279,0.600911,-0.572363
1631018757055,-0.544181,0.601582,-0.572363
1631018757064,-0.542107,0.600789,-0.572058
1631018757074,-0.5413749999999999,0.600972,-0.5705939999999999
1631018757084,-0.540704,0.60207,-0.5693739999999999
1631018757093,-0.540582,0.603229,-0.569252
1631018757103,-0.540826,0.60451,-0.56974
1631018757112,-0.539972,0.603839,-0.56913
1631018757122,-0.539057,0.603046,-0.5693739999999999
1631018757132,-0.538386,0.601643,-0.5672389999999999
1631018757141,-0.537837,0.601826,-0.5666289999999999
1631018757151,-0.538691,0.601643,-0.565836
1631018757160,-0.539606,0.601948,-0.566385
1631018757170,-0.539118,0.602558,-0.566202
1631018757180,-0.537593,0.603839,-0.566873
1631018757189,-0.5383249999999999,0.604693,-0.566507
1631018757199,-0.537654,0.605608,-0.5654089999999999
1631018757208,-0.537654,0.604693,-0.5641889999999999
1631018757218,-0.538691,0.60512,-0.5626639999999999
1631018757228,-0.538386,0.606767,-0.560895
1631018757237,-0.5383249999999999,0.6076819999999999,-0.560712
1631018757247,-0.539606,0.6082919999999999,-0.559065
1631018757256,-0.5410699999999999,0.60817,-0.560102
1631018757266,-0.541131,0.608475,-0.559736
1631018757276,-0.540826,0.609146,-0.559187
1631018757285,-0.541253,0.606645,-0.55998
1631018757295,-0.5413749999999999,0.606279,-0.559431
1631018757304,-0.541924,0.606157,-0.558943
1631018757314,-0.541741,0.606218,-0.558516
1631018757324,-0.5422899999999999,0.607194,-0.558272
1631018757333,-0.541924,0.60695,-0.558516
1631018757343,-0.5416799999999999,0.606706,-0.557784
1631018757352,-0.541802,0.606767,-0.557052
1631018757362,-0.542412,0.605181,-0.556259
1631018757372,-0.543144,0.604693,-0.55754
1631018757381,-0.544547,0.604876,-0.559065
1631018757391,-0.545584,0.606157,-0.5611389999999999
1631018757400,-0.545828,0.605608,-0.561932
1631018757410,-0.546682,0.604876,-0.561322
1631018757420,-0.547963,0.603229,-0.561688
1631018757429,-0.5477799999999999,0.602131,-0.561627
1631018757439,-0.5477799999999999,0.602131,-0.561688
1631018757448,-0.547292,0.60146,-0.56303
1631018757458,-0.547963,0.60085,-0.563701
1631018757468,-0.546804,0.600179,-0.564311
1631018757477,-0.547902,0.599447,-0.562786
1631018757487,-0.547536,0.596946,-0.560346
1631018757496,-0.548817,0.597129,-0.560346
1631018757506,-0.548024,0.600057,-0.560468
1631018757516,-0.548878,0.601338,-0.560468
1631018757525,-0.548756,0.602192,-0.561566
1631018757535,-0.546926,0.602985,-0.563762
1631018757544,-0.547048,0.601216,-0.566568
1631018757554,-0.548207,0.598898,-0.567422
1631018757564,-0.548573,0.5964579999999999,-0.567422
1631018757573,-0.549,0.5952379999999999,-0.568032
1631018757583,-0.548634,0.595482,-0.566812
1631018757592,-0.548207,0.596092,-0.5673
1631018757602,-0.548634,0.597373,-0.566141
1631018757612,-0.548512,0.596946,-0.566385
1631018757621,-0.548024,0.596946,-0.567971
1631018757631,-0.548024,0.5964579999999999,-0.568642
1631018757640,-0.5468649999999999,0.594506,-0.570716
1631018757650,-0.5471699999999999,0.594445,-0.571631
1631018757660,-0.547231,0.5934079999999999,-0.571631
1631018757669,-0.547292,0.593164,-0.571692
1631018757679,-0.547902,0.593652,-0.5715089999999999
1631018757688,-0.5477799999999999,0.593957,-0.57157
1631018757698,-0.547231,0.5934079999999999,-0.569923
1631018757708,-0.547597,0.593347,-0.5675439999999999
1631018757717,-0.5465599999999999,0.593896,-0.568398
1631018757727,-0.547292,0.5940179999999999,-0.5687639999999999
1631018757736,-0.546743,0.593347,-0.568642
1631018757746,-0.5468649999999999,0.594262,-0.567788
1631018757756,-0.547536,0.596824,-0.569008
1631018757765,-0.547841,0.5978,-0.569618
1631018757775,-0.548634,0.596092,-0.568642
1631018757784,-0.548756,0.597251,-0.566446
1631018757794,-0.547414,0.597129,-0.566873
1631018757804,-0.547109,0.596885,-0.56791
1631018757813,-0.547048,0.596275,-0.568886
1631018757823,-0.5459499999999999,0.597007,-0.5693739999999999
1631018757832,-0.545767,0.597617,-0.569618
1631018757842,-0.546194,0.5978,-0.569496
1631018757852,-0.545096,0.596641,-0.571082
1631018757861,-0.544547,0.596275,-0.5708989999999999
1631018757871,-0.5435099999999999,0.5946279999999999,-0.571753
1631018757880,-0.543449,0.595665,-0.5721189999999999
1631018757890,-0.543876,0.5961529999999999,-0.570838
1631018757900,-0.543754,0.5961529999999999,-0.571326
1631018757909,-0.543266,0.596092,-0.5712039999999999
1631018757919,-0.544364,0.596641,-0.5712039999999999
1631018757928,-0.5450349999999999,0.59719,-0.571936
1631018757938,-0.545218,0.5964579999999999,-0.572851
1631018757948,-0.544364,0.5964579999999999,-0.5727289999999999
1631018757957,-0.543937,0.596702,-0.571448
1631018757967,-0.544242,0.597373,-0.570533
1631018757976,-0.543144,0.59719,-0.570716
1631018757986,-0.5444249999999999,0.597678,-0.570106
1631018757996,-0.543998,0.597495,-0.5696789999999999
1631018758005,-0.543449,0.597312,-0.570106
1631018758015,-0.542229,0.595665,-0.568703
1631018758024,-0.542473,0.595055,-0.568947
1631018758034,-0.543449,0.595604,-0.567727
1631018758044,-0.543388,0.595726,-0.567056
1631018758053,-0.543449,0.595482,-0.56852
1631018758063,-0.542534,0.5955429999999999,-0.567727
1631018758072,-0.542778,0.596946,-0.5660189999999999
1631018758082,-0.542412,0.598166,-0.567361
1631018758092,-0.543876,0.59963,-0.5672389999999999
1631018758101,-0.544181,0.599996,-0.568032
1631018758111,-0.543266,0.598776,-0.569618
1631018758120,-0.5425949999999999,0.599691,-0.569008
1631018758130,-0.544242,0.599508,-0.56852
1631018758140,-0.542412,0.598898,-0.568093
1631018758149,-0.5422899999999999,0.597434,-0.56913
1631018758159,-0.542412,0.5978,-0.567422
1631018758168,-0.541436,0.59841,-0.567666
1631018758178,-0.542656,0.600118,-0.569862
1631018758188,-0.541558,0.59841,-0.5699839999999999
1631018758197,-0.542961,0.599752,-0.570838
1631018758207,-0.540704,0.598898,-0.571021
1631018758216,-0.540826,0.59963,-0.5693739999999999
1631018758226,-0.541924,0.59963,-0.571143
1631018758236,-0.541436,0.598654,-0.571082
1631018758245,-0.540338,0.596946,-0.5712039999999999
1631018758255,-0.542046,0.599325,-0.56913
1631018758264,-0.541741,0.599752,-0.570838
1631018758274,-0.540582,0.599081,-0.571082
1631018758284,-0.540277,0.598227,-0.570777
1631018758293,-0.540338,0.597861,-0.571448
1631018758303,-0.540948,0.596092,-0.570533
1631018758312,-0.541131,0.595787,-0.568886
1631018758322,-0.542046,0.599142,-0.568886
1631018758332,-0.542107,0.599081,-0.5684589999999999
1631018758341,-0.540887,0.599691,-0.567727
1631018758351,-0.541009,0.600057,-0.568398
1631018758360,-0.540582,0.599508,-0.566995
1631018758370,-0.540216,0.597312,-0.56913
1631018758380,-0.540643,0.586881,-0.569923
1631018758389,-0.540643,0.581208,-0.567788
1631018758399,-0.540704,0.579256,-0.564616
1631018758408,-0.541192,0.58194,-0.566202
1631018758418,-0.536617,0.5879179999999999,-0.572363
1631018758428,-0.533994,0.595116,-0.576084
1631018758437,-0.533994,0.600057,-0.577121
1631018758447,-0.533933,0.60268,-0.576633
1631018758456,-0.536129,0.604083,-0.580232
1631018758466,-0.536922,0.603412,-0.58194
1631018758476,-0.538569,0.599813,-0.582001
1631018758485,-0.5389349999999999,0.59475,-0.583892
1631018758495,-0.540338,0.589504,-0.5857829999999999
1631018758504,-0.541802,0.585295,-0.588284
1631018758514,-0.542961,0.582367,-0.593042
1631018758524,-0.541863,0.579012,-0.597251
1631018758533,-0.5438149999999999,0.575474,-0.602192
1631018758543,-0.5432049999999999,0.576328,-0.606035
1631018758552,-0.541924,0.57401,-0.611464
1631018758562,-0.540887,0.5724239999999999,-0.614819
1631018758572,-0.541741,0.571143,-0.612196
1631018758581,-0.542534,0.572912,-0.6113419999999999
1631018758591,-0.541009,0.568581,-0.60939
1631018758600,-0.540704,0.566812,-0.606767
1631018758610,-0.539057,0.564067,-0.61061
1631018758620,-0.536678,0.561322,-0.610854
1631018758629,-0.53375,0.558882,-0.613904
1631018758639,-0.532835,0.561017,-0.6156119999999999
1631018758648,-0.530883,0.55937,-0.613721
1631018758658,-0.526674,0.557662,-0.614636
1631018758668,-0.523563,0.555954,-0.615124
1631018758677,-0.521062,0.553575,-0.615795
1631018758687,-0.519049,0.551562,-0.6162219999999999
1631018758696,-0.515633,0.548878,-0.622566
1631018758706,-0.5130709999999999,0.5425949999999999,-0.627629
1631018758716,-0.508923,0.539057,-0.63196
1631018758725,-0.500749,0.538203,-0.626653
1631018758735,-0.499102,0.536678,-0.610793
1631018758744,-0.500261,0.5380199999999999,-0.6095119999999999
1631018758754,-0.49885799999999997,0.5447299999999999,-0.61671
1631018758764,-0.500993,0.5456449999999999,-0.624396
1631018758773,-0.503555,0.541863,-0.639463
1631018758783,-0.504714,0.535214,-0.653005
1631018758792,-0.503006,0.528443,-0.665388
1631018758802,-0.500444,0.52338,-0.667218
1631018758812,-0.500505,0.526064,-0.659349
1631018758821,-0.506117,0.540338,-0.645258
1631018758831,-0.52155,0.5483899999999999,-0.65392
1631018758840,-0.531066,0.5471699999999999,-0.6858839999999999
1631018758850,-0.538874,0.539728,-0.715591
1631018758860,-0.540033,0.527101,-0.73444
1631018758869,-0.525027,0.515755,-0.729011
1631018758879,-0.526918,0.515633,-0.7050379999999999
1631018758888,-0.535214,0.521062,-0.720532
1631018758898,-0.540033,0.527101,-0.727791
1631018758908,-0.539484,0.527467,-0.7259
1631018758917,-0.534299,0.525149,-0.72102
1631018758927,-0.529846,0.526369,-0.709491
1631018758936,-0.529175,0.537227,-0.6867989999999999
1631018758946,-0.53009,0.550281,-0.659227
1631018758956,-0.530212,0.563457,-0.633485
1631018758965,-0.528382,0.566202,-0.613233
1631018758975,-0.528016,0.569008,-0.5934079999999999
1631018758984,-0.529724,0.5795,-0.573766
1631018758994,-0.526735,0.590236,-0.560163
1631018759004,-0.5231359999999999,0.600057,-0.547048
1631018759013,-0.5237459999999999,0.607316,-0.533933
1631018759023,-0.524112,0.613111,-0.522282
1631018759032,-0.521367,0.613965,-0.511912
1631018759042,-0.517219,0.612684,-0.502579
1631018759052,-0.515389,0.6098169999999999,-0.495442
1631018759061,-0.51423,0.606645,-0.49019599999999997
1631018759071,-0.514962,0.604632,-0.493612
1631018759080,-0.515389,0.603168,-0.49824799999999997
1631018759090,-0.515938,0.601338,-0.502213
1631018759100,-0.513742,0.596702,-0.503189
1631018759109,-0.515084,0.593347,-0.502701
1631018759119,-0.518988,0.5943229999999999,-0.510936
1631018759128,-0.523624,0.593225,-0.525271
1631018759138,-0.526125,0.589077,-0.539667
1631018759148,-0.527528,0.581208,-0.55693
1631018759157,-0.533933,0.575291,-0.577548
1631018759167,-0.538508,0.573034,-0.597678
1631018759176,-0.539606,0.573339,-0.605913
1631018759186,-0.5453399999999999,0.575047,-0.605242
1631018759196,-0.556808,0.576816,-0.619394
1631018759205,-0.5617489999999999,0.576816,-0.639219
1631018759215,-0.563762,0.576328,-0.65392
1631018759224,-0.5660189999999999,0.572546,-0.6636799999999999
1631018759234,-0.568642,0.5673,-0.670024
1631018759244,-0.572607,0.565043,-0.679357
1631018759253,-0.571692,0.561932,-0.6874089999999999
1631018759263,-0.5705939999999999,0.560346,-0.689056
1631018759272,-0.568642,0.560773,-0.687775
1631018759282,-0.564921,0.5612,-0.68381
1631018759292,-0.562481,0.562786,-0.677039
1631018759301,-0.558089,0.5623589999999999,-0.668438
1631018759311,-0.555161,0.5623589999999999,-0.654652
1631018759320,-0.553453,0.563335,-0.6417809999999999
1631018759330,-0.549549,0.564677,-0.630069
1631018759340,-0.544791,0.5632739999999999,-0.619821
1631018759349,-0.540826,0.5644939999999999,-0.610244
1631018759359,-0.536983,0.565226,-0.600911
1631018759368,-0.532957,0.565836,-0.592676
1631018759378,-0.529114,0.56791,-0.586454
1631018759388,-0.527101,0.568642,-0.577426
1631018759397,-0.52338,0.5690689999999999,-0.568642
1631018759407,-0.521794,0.569435,-0.562725
1631018759416,-0.5197809999999999,0.57096,-0.557113
1631018759426,-0.5194759999999999,0.571936,-0.553758
1631018759436,-0.518744,0.571692,-0.548756
1631018759445,-0.52033,0.573583,-0.545706
1631018759455,-0.5210009999999999,0.575718,-0.546926
1631018759464,-0.522282,0.576999,-0.548512
1631018759474,-0.5210009999999999,0.574498,-0.548451
1631018759484,-0.521794,0.573705,-0.550464
1631018759493,-0.52155,0.5712039999999999,-0.552477
1631018759503,-0.5234409999999999,0.571021,-0.559492
1631018759512,-0.524905,0.570716,-0.569191
1631018759522,-0.528016,0.570045,-0.578402
1631018759532,-0.529785,0.5681539999999999,-0.586515
1631018759541,-0.530883,0.565836,-0.5937129999999999
1631018759551,-0.532896,0.563762,-0.601155
1631018759560,-0.535397,0.563518,-0.606828
1631018759570,-0.538996,0.56425,-0.616649
1631018759580,-0.542107,0.565226,-0.627019
1631018759589,-0.545401,0.5669339999999999,-0.636657
1631018759599,-0.547353,0.569435,-0.6451359999999999
1631018759608,-0.549732,0.5684589999999999,-0.653371
1631018759618,-0.55083,0.565836,-0.6600199999999999
1631018759628,-0.549732,0.5632739999999999,-0.6648999999999999
1631018759637,-0.548695,0.561932,-0.6664249999999999
1631018759647,-0.547963,0.561505,-0.665388
1631018759656,-0.548512,0.5602239999999999,-0.662643
1631018759666,-0.5465599999999999,0.561017,-0.659166
1631018759676,-0.542656,0.561505,-0.652761
1631018759685,-0.539667,0.561993,-0.645014
1631018759695,-0.5398499999999999,0.563091,-0.639585
1631018759704,-0.537837,0.564372,-0.636718
1631018759714,-0.536373,0.5638839999999999,-0.632265
1631018759724,-0.534299,0.564738,-0.626409
1631018759733,-0.533079,0.5651039999999999,-0.619455
1631018759743,-0.530456,0.5654089999999999,-0.613843
1631018759752,-0.529419,0.565897,-0.607255
1631018759762,-0.528565,0.566263,-0.599447
1631018759772,-0.527772,0.565653,-0.593835
1631018759781,-0.526003,0.567788,-0.5885279999999999
1631018759791,-0.524966,0.568032,-0.583038
1631018759800,-0.524478,0.568093,-0.579988
1631018759810,-0.524173,0.570106,-0.576633
1631018759820,-0.525515,0.571631,-0.574315
1631018759829,-0.5246,0.57096,-0.571875
1631018759839,-0.524356,0.57218,-0.569557
1631018759848,-0.525027,0.571265,-0.566507
1631018759858,-0.524661,0.5708989999999999,-0.566385
1631018759868,-0.526125,0.572912,-0.57035
1631018759877,-0.526003,0.572546,-0.572241
1631018759887,-0.528992,0.5721189999999999,-0.574132
1631018759896,-0.531615,0.57279,-0.580354
1631018759906,-0.534299,0.573339,-0.588162
1631018759916,-0.534848,0.572973,-0.594445
1631018759925,-0.537532,0.571021,-0.597556
1631018759935,-0.538142,0.5699839999999999,-0.601277
1631018759944,-0.540033,0.570045,-0.605425
1631018759954,-0.541924,0.570838,-0.610549
1631018759964,-0.543876,0.572607,-0.615368
1631018759973,-0.544669,0.573156,-0.618418
1631018759983,-0.546499,0.571997,-0.619516
1631018759992,-0.5471699999999999,0.571448,-0.62281
1631018760002,-0.548207,0.5721189999999999,-0.624152
1631018760012,-0.5480849999999999,0.573644,-0.624823
1631018760021,-0.549366,0.575535,-0.623786
1631018760031,-0.548939,0.575352,-0.622078
1631018760040,-0.547536,0.574376,-0.619394
1631018760050,-0.545889,0.573949,-0.61488
1631018760060,-0.545279,0.574559,-0.610976
1631018760069,-0.5444249999999999,0.574986,-0.607743
1631018760079,-0.542778,0.575596,-0.6039
1631018760088,-0.540094,0.57645,-0.599935
1631018760098,-0.538264,0.578402,-0.5970679999999999
1631018760108,-0.536678,0.578402,-0.593286
1631018760117,-0.534726,0.577548,-0.588467
1631018760127,-0.535702,0.576206,-0.58316
1631018760136,-0.535214,0.5795,-0.579439
1631018760146,-0.535397,0.581757,-0.579805
1631018760156,-0.534665,0.582977,-0.582184
1631018760165,-0.533262,0.582977,-0.584197
1631018760175,-0.534116,0.582428,-0.585722
1631018760184,-0.532957,0.580293,-0.5876129999999999
1631018760194,-0.532286,0.577914,-0.586271
1631018760204,-0.532164,0.57584,-0.585112
1631018760213,-0.532896,0.576206,-0.584502
1631018760223,-0.533689,0.576816,-0.58682
1631018760232,-0.533872,0.576633,-0.587857
1631018760242,-0.534482,0.576328,-0.5897479999999999
1631018760252,-0.53436,0.576572,-0.5943229999999999
1631018760261,-0.534299,0.576572,-0.598471
1631018760271,-0.532774,0.574925,-0.60207
1631018760280,-0.53253,0.571448,-0.604632
1631018760290,-0.532408,0.5699839999999999,-0.60512
1631018760300,-0.533628,0.56913,-0.607499
1631018760309,-0.534116,0.570777,-0.6098169999999999
1631018760319,-0.534238,0.572363,-0.61061
1631018760328,-0.535153,0.572973,-0.611098
1631018760338,-0.535275,0.574742,-0.610366
1631018760348,-0.53497,0.576389,-0.610671
1631018760357,-0.53375,0.575718,-0.6092069999999999
1631018760367,-0.532652,0.574742,-0.608353
1631018760376,-0.533079,0.576206,-0.608048
1631018760386,-0.533933,0.577914,-0.609024
1631018760396,-0.533872,0.57645,-0.60878
1631018760405,-0.530944,0.576267,-0.608658
1631018760415,-0.530273,0.57584,-0.607438
1631018760424,-0.528748,0.57523,-0.604815
1631018760434,-0.528077,0.574986,-0.603351
1631018760444,-0.528687,0.575474,-0.603473
1631018760453,-0.528931,0.575962,-0.602924
1631018760463,-0.529236,0.575535,-0.602497
1631018760472,-0.528382,0.57523,-0.601399
1631018760482,-0.528626,0.57584,-0.601704
1631018760492,-0.528443,0.574559,-0.60146
1631018760501,-0.529175,0.574559,-0.601277
1631018760511,-0.530212,0.57584,-0.601948
1631018760520,-0.530639,0.57401,-0.602863
1631018760530,-0.530395,0.574071,-0.60207
1631018760540,-0.531493,0.574193,-0.60146
1631018760549,-0.532286,0.574132,-0.601277
1631018760559,-0.533567,0.573766,-0.600911
1631018760568,-0.532591,0.573766,-0.599691
1631018760578,-0.533872,0.574559,-0.5978
1631018760588,-0.535946,0.576999,-0.597434
1631018760597,-0.535031,0.577182,-0.598532
1631018760607,-0.534726,0.576267,-0.598959
1631018760616,-0.534909,0.575962,-0.598532
1631018760626,-0.535519,0.575779,-0.598776
1631018760636,-0.535641,0.575169,-0.598776
1631018760645,-0.53497,0.574986,-0.598898
1631018760655,-0.534848,0.574254,-0.599691
1631018760664,-0.53436,0.573034,-0.600118
1631018760674,-0.532347,0.574193,-0.599203
1631018760684,-0.532835,0.574986,-0.597251
1631018760693,-0.534604,0.575108,-0.598105
1631018760703,-0.534543,0.575657,-0.599996
1631018760712,-0.533994,0.575474,-0.601948
1631018760722,-0.534482,0.574315,-0.602924
1631018760732,-0.534421,0.572668,-0.60451
1631018760741,-0.534177,0.572546,-0.605059
1631018760751,-0.535458,0.572851,-0.606035
1631018760760,-0.535397,0.5724239999999999,-0.605669
1631018760770,-0.534177,0.573461,-0.605242
1631018760780,-0.533628,0.573217,-0.602497
1631018760789,-0.533994,0.574864,-0.602314
1631018760799,-0.533445,0.574193,-0.599691
1631018760808,-0.534604,0.57523,-0.59841
1631018760818,-0.535092,0.576389,-0.599569
1631018760828,-0.535275,0.576755,-0.600972
1631018760837,-0.535397,0.575291,-0.599752
1631018760847,-0.535946,0.57523,-0.598593
1631018760856,-0.5371049999999999,0.575291,-0.597617
1631018760866,-0.537044,0.575291,-0.597922
1631018760876,-0.537227,0.575901,-0.597983
1631018760885,-0.537288,0.575901,-0.596031
1631018760895,-0.536983,0.575779,-0.59414
1631018760904,-0.537532,0.576694,-0.592066
1631018760914,-0.537837,0.577121,-0.590785
1631018760924,-0.539484,0.579073,-0.5903579999999999
1631018760933,-0.539728,0.576572,-0.588101
1631018760943,-0.540277,0.578646,-0.587369
1631018760952,-0.541314,0.580354,-0.5876129999999999
1631018760962,-0.541863,0.580781,-0.589382
1631018760972,-0.542351,0.58194,-0.591212
1631018760981,-0.5410699999999999,0.580537,-0.592005
1631018760991,-0.541009,0.577914,-0.593652
1631018761000,-0.542412,0.578585,-0.593469
1631018761010,-0.542046,0.577609,-0.592737
1631018761020,-0.543449,0.576755,-0.592737
1631018761029,-0.5428999999999999,0.576328,-0.5934079999999999
1631018761039,-0.5419849999999999,0.575657,-0.5934079999999999
1631018761048,-0.5428999999999999,0.575718,-0.593286
1631018761058,-0.541741,0.57706,-0.5937129999999999
1631018761068,-0.541924,0.577792,-0.594567
1631018761077,-0.541192,0.577426,-0.594567
1631018761087,-0.540643,0.576328,-0.595055
1631018761096,-0.541253,0.575169,-0.594445
1631018761106,-0.541253,0.573827,-0.593774
1631018761116,-0.540887,0.573827,-0.592676
1631018761125,-0.539911,0.573705,-0.591944
1631018761135,-0.540948,0.574254,-0.591456
1631018761144,-0.542107,0.575962,-0.59109
1631018761154,-0.542168,0.576999,-0.59231
1631018761164,-0.5425949999999999,0.575718,-0.593164
1631018761173,-0.541558,0.575596,-0.5921879999999999
1631018761183,-0.542839,0.575352,-0.591456
1631018761192,-0.542046,0.575962,-0.591151
1631018761202,-0.5422899999999999,0.576816,-0.5906629999999999
1631018761212,-0.542046,0.57706,-0.5891379999999999
1631018761221,-0.542412,0.576267,-0.5879179999999999
1631018761231,-0.542351,0.577426,-0.588955
1631018761240,-0.5419849999999999,0.576511,-0.58987
1631018761250,-0.5425949999999999,0.577182,-0.590175
1631018761260,-0.543327,0.578524,-0.5906629999999999
1631018761269,-0.543754,0.577243,-0.590541
1631018761279,-0.543449,0.576389,-0.592249
1631018761288,-0.544608,0.575291,-0.5934079999999999
1631018761298,-0.544486,0.575596,-0.592066
1631018761308,-0.544974,0.575474,-0.5946279999999999
1631018761317,-0.544791,0.574864,-0.595665
1631018761327,-0.545523,0.575474,-0.595482
1631018761336,-0.5447299999999999,0.573888,-0.595116
1631018761346,-0.544242,0.574071,-0.595177
1631018761356,-0.544974,0.575169,-0.59536
1631018761365,-0.546194,0.575718,-0.596214
1631018761375,-0.546316,0.574803,-0.597922
1631018761384,-0.545767,0.575108,-0.598166
1631018761394,-0.544974,0.574193,-0.596824
1631018761404,-0.545462,0.573644,-0.595909
1631018761413,-0.544608,0.572973,-0.59475
1631018761423,-0.5450349999999999,0.572607,-0.59292
1631018761432,-0.5447299999999999,0.573095,-0.592249
1631018761442,-0.544486,0.573766,-0.5931029999999999
1631018761452,-0.5444249999999999,0.573278,-0.593835
1631018761461,-0.544547,0.573034,-0.593347
1631018761471,-0.544974,0.573095,-0.5934079999999999
1631018761480,-0.543876,0.5727289999999999,-0.594445
1631018761490,-0.544364,0.573339,-0.5934079999999999
1631018761500,-0.543022,0.57279,-0.5937129999999999
1631018761509,-0.543571,0.5724239999999999,-0.5934079999999999
1631018761519,-0.543693,0.572302,-0.5931029999999999
1631018761528,-0.5441199999999999,0.570533,-0.5921879999999999
1631018761538,-0.544852,0.570716,-0.592676
1631018761548,-0.544364,0.5715089999999999,-0.593164
1631018761557,-0.542961,0.571387,-0.593652
1631018761567,-0.543083,0.571875,-0.5937129999999999
1631018761576,-0.544303,0.571997,-0.593896
1631018761586,-0.544669,0.572058,-0.5958479999999999
1631018761596,-0.544303,0.571387,-0.596519
1631018761605,-0.544181,0.5718139999999999,-0.5961529999999999
1631018761615,-0.545218,0.5718139999999999,-0.5964579999999999
1631018761624,-0.5450349999999999,0.571631,-0.596397
1631018761634,-0.545584,0.571021,-0.596092
1631018761644,-0.545401,0.570411,-0.597495
1631018761653,-0.5447299999999999,0.5702889999999999,-0.598471
1631018761663,-0.5456449999999999,0.568947,-0.598288
1631018761672,-0.545523,0.570716,-0.597251
1631018761682,-0.544547,0.56852,-0.598349
1631018761692,-0.5450349999999999,0.567483,-0.5955429999999999
1631018761701,-0.546987,0.569557,-0.594506
1631018761711,-0.547414,0.572058,-0.59536
1631018761720,-0.5477799999999999,0.573644,-0.594872
1631018761730,-0.5477799999999999,0.574559,-0.594506
1631018761740,-0.547841,0.577243,-0.594079
1631018761749,-0.546926,0.577914,-0.5955429999999999
1631018761759,-0.5465599999999999,0.578097,-0.595909
1631018761768,-0.546743,0.576877,-0.5943229999999999
1631018761778,-0.547048,0.576145,-0.592554
1631018761788,-0.547841,0.574315,-0.592249
1631018761797,-0.546072,0.572668,-0.591456
1631018761807,-0.546011,0.571448,-0.590541
1631018761816,-0.545706,0.571448,-0.58987
1631018761826,-0.544364,0.572668,-0.592005
1631018761836,-0.543693,0.573583,-0.594079
1631018761845,-0.543571,0.57279,-0.593286
1631018761855,-0.543632,0.571692,-0.593591
1631018761864,-0.543571,0.570228,-0.591334
1631018761874,-0.544059,0.56913,-0.591456
1631018761884,-0.544486,0.5693739999999999,-0.591944
1631018761893,-0.546621,0.569618,-0.592554
1631018761903,-0.546499,0.5687639999999999,-0.593164
1631018761912,-0.5483899999999999,0.5687639999999999,-0.5952379999999999
1631018761922,-0.55022,0.569801,-0.595604
1631018761932,-0.550281,0.571265,-0.596336
1631018761941,-0.550647,0.570411,-0.595665
1631018761951,-0.550464,0.569862,-0.594201
1631018761960,-0.550342,0.57157,-0.593042
1631018761970,-0.551928,0.572668,-0.5934079999999999
1631018761980,-0.552416,0.571936,-0.592615
1631018761989,-0.552416,0.571082,-0.594079
1631018761999,-0.553636,0.570411,-0.596702
1631018762008,-0.553636,0.569557,-0.60024
1631018762018,-0.553392,0.569618,-0.603534
1631018762028,-0.552721,0.570777,-0.605303
1631018762037,-0.552599,0.569801,-0.607255
1631018762047,-0.551928,0.5690689999999999,-0.606584
1631018762056,-0.550342,0.566568,-0.605608
1631018762066,-0.549122,0.5641889999999999,-0.6039
1631018762076,-0.548451,0.56364,-0.604937
1631018762085,-0.548146,0.5617489999999999,-0.606828
1631018762095,-0.547414,0.561017,-0.604815
1631018762104,-0.548451,0.560773,-0.603595
1631018762114,-0.547597,0.559675,-0.601277
1631018762124,-0.5465599999999999,0.559126,-0.5967629999999999
1631018762133,-0.544303,0.5620539999999999,-0.593896
1631018762143,-0.544852,0.5638839999999999,-0.591456
1631018762152,-0.546682,0.567178,-0.589199
1631018762162,-0.548146,0.567361,-0.5866979999999999
1631018762172,-0.551501,0.566385,-0.584075
1631018762181,-0.553087,0.566263,-0.58377
1631018762191,-0.553758,0.5666289999999999,-0.581818
1631018762200,-0.553453,0.564982,-0.5795
1631018762210,-0.553697,0.568276,-0.576389
1631018762220,-0.556503,0.565348,-0.5699839999999999
1631018762229,-0.556381,0.57035,-0.570655
1631018762239,-0.556686,0.574132,-0.569801
1631018762248,-0.559614,0.578219,-0.569252
1631018762258,-0.562603,0.580415,-0.568276
1631018762268,-0.56669,0.582428,-0.569862
1631018762277,-0.568581,0.5851729999999999,-0.567178
1631018762287,-0.56791,0.587857,-0.5669339999999999
1631018762296,-0.566873,0.590541,-0.566995
1631018762306,-0.5663239999999999,0.59597,-0.5638839999999999
1631018762316,-0.5687639999999999,0.597739,-0.5605289999999999
1631018762325,-0.57096,0.595726,-0.55876
1631018762335,-0.573278,0.592371,-0.560773
1631018762344,-0.572851,0.5915779999999999,-0.5644939999999999
1631018762354,-0.570472,0.591029,-0.5684589999999999
1631018762364,-0.5675439999999999,0.590541,-0.570716
1631018762373,-0.564921,0.591395,-0.5699839999999999
1631018762383,-0.562725,0.591456,-0.56974
1631018762392,-0.560712,0.592676,-0.566812
1631018762402,-0.5614439999999999,0.595482,-0.5626639999999999
1631018762412,-0.562115,0.596336,-0.558516
1631018762421,-0.559675,0.594201,-0.552904
1631018762431,-0.556747,0.593347,-0.547353
1631018762440,-0.555161,0.594811,-0.540704
1631018762450,-0.554368,0.595299,-0.529907
1631018762460,-0.556442,0.59353,-0.5222209999999999
1631018762469,-0.558699,0.597129,-0.521062
1631018762479,-0.559675,0.600728,-0.519415
1631018762488,-0.5608339999999999,0.606828,-0.5182559999999999
1631018762498,-0.563213,0.611525,-0.515084
1631018762508,-0.5647989999999999,0.61488,-0.512949
1631018762517,-0.5660189999999999,0.618174,-0.513193
1631018762527,-0.565592,0.625189,-0.509289
1631018762536,-0.562237,0.630191,-0.503067
1631018762546,-0.559736,0.635254,-0.498309
1631018762556,-0.560285,0.6433059999999999,-0.500932
1631018762565,-0.562481,0.647759,-0.49977299999999997
1631018762575,-0.5687639999999999,0.645807,-0.489952
1631018762584,-0.575108,0.643794,-0.481839
1631018762594,-0.578219,0.638792,-0.48318099999999997
1631018762604,-0.578341,0.6362909999999999,-0.486902
1631018762613,-0.580964,0.634278,-0.491965
1631018762623,-0.582367,0.633668,-0.495137
1631018762632,-0.583892,0.63623,-0.499285
1631018762642,-0.584075,0.637328,-0.5063
1631018762652,-0.584136,0.637267,-0.510204
1631018762661,-0.58499,0.638243,-0.510997
1631018762671,-0.582062,0.635925,-0.508008
1631018762680,-0.580049,0.635925,-0.505324
1631018762690,-0.579988,0.635193,-0.503616
1631018762700,-0.578158,0.634034,-0.502213
1631018762709,-0.577914,0.630313,-0.501237
1631018762719,-0.577304,0.625738,-0.498065
1631018762728,-0.57584,0.622322,-0.496906
1631018762738,-0.572241,0.61915,-0.497516
1631018762748,-0.5708989999999999,0.6162219999999999,-0.496174
1631018762757,-0.5705939999999999,0.615063,-0.495686
1631018762767,-0.570655,0.613843,-0.494649
1631018762776,-0.571265,0.61061,-0.491843
1631018762786,-0.57462,0.607377,-0.488854
1631018762796,-0.578402,0.601826,-0.484462
1631018762805,-0.582123,0.599142,-0.478118
1631018762815,-0.5863929999999999,0.60024,-0.478911
1631018762824,-0.587552,0.600911,-0.48318099999999997
1631018762834,-0.59292,0.600545,-0.484157
1631018762844,-0.598288,0.603046,-0.48312
1631018762853,-0.604022,0.608719,-0.480131
1631018762863,-0.610915,0.6183569999999999,-0.479765
1631018762872,-0.616893,0.625921,-0.482693
1631018762882,-0.618479,0.631899,-0.486414
1631018762892,-0.620065,0.631411,-0.48617
1631018762901,-0.620614,0.624762,-0.482083
1631018762911,-0.620675,0.61793,-0.474702
1631018762920,-0.625311,0.621773,-0.46787
1631018762930,-0.630557,0.630862,-0.469029
1631018762940,-0.632082,0.640134,-0.473116
1631018762949,-0.6341559999999999,0.644404,-0.473177
1631018762959,-0.631289,0.64294,-0.47092
1631018762968,-0.627873,0.639402,-0.466406
1631018762978,-0.628666,0.644648,-0.465796
1631018762988,-0.627141,0.649162,-0.469151
1631018762997,-0.623176,0.650931,-0.47031
1631018763007,-0.621346,0.655323,-0.47207899999999997
1631018763016,-0.616466,0.657641,-0.47763
1631018763026,-0.6082919999999999,0.656726,-0.481595
1631018763036,-0.598044,0.651968,-0.482998
1631018763045,-0.588162,0.6439159999999999,-0.479521
1631018763055,-0.581696,0.63806,-0.476105
1631018763064,-0.579744,0.63562,-0.47702
1631018763074,-0.578097,0.631594,-0.475983
1631018763084,-0.577792,0.627446,-0.47573899999999997
1631018763093,-0.575352,0.621224,-0.47573899999999997
1631018763103,-0.573095,0.610305,-0.475556
1631018763112,-0.57157,0.604083,-0.47177399999999997
1631018763122,-0.571448,0.599935,-0.466284
1631018763132,-0.571631,0.5955429999999999,-0.461648
1631018763141,-0.57523,0.59353,-0.459269
1631018763151,-0.578524,0.595604,-0.46177
1631018763160,-0.58133,0.601277,-0.467138
1631018763170,-0.58499,0.605242,-0.470615
1631018763180,-0.586576,0.611769,-0.476166
1631018763189,-0.5863929999999999,0.617625,-0.483425
1631018763199,-0.589016,0.620248,-0.48983
1631018763208,-0.590907,0.62342,-0.495259
1631018763218,-0.593042,0.62464,-0.498614
1631018763228,-0.593164,0.620248,-0.498431
1631018763237,-0.59292,0.612684,-0.49702799999999997
1631018763247,-0.5940179999999999,0.607926,-0.493856
1631018763256,-0.59658,0.607255,-0.489159
1631018763266,-0.600179,0.608048,-0.48623099999999997
1631018763276,-0.60451,0.611708,-0.482998
1631018763285,-0.608353,0.615673,-0.481961
1631018763295,-0.6107319999999999,0.618845,-0.484462
1631018763304,-0.6134769999999999,0.623603,-0.485987
1631018763314,-0.613965,0.630801,-0.48958599999999997
1631018763324,-0.61244,0.638548,-0.49233099999999996
1631018763333,-0.608841,0.645502,-0.49532
1631018763343,-0.608475,0.651846,-0.493917
1631018763352,-0.6079869999999999,0.656116,-0.490562
1631018763362,-0.605913,0.6560549999999999,-0.483608
1631018763372,-0.601887,0.655506,-0.477325
1631018763381,-0.598227,0.657824,-0.470066
1631018763391,-0.596824,0.6627649999999999,-0.46219699999999997
1631018763400,-0.593469,0.666974,-0.456463
1631018763410,-0.589016,0.675148,-0.454999
1631018763420,-0.582672,0.68991,-0.460306
1631018763429,-0.573583,0.71553,-0.471408
1631018763439,-0.563762,0.7400519999999999,-0.485438
1631018763448,-0.560041,0.745847,-0.499956
1631018763458,-0.559675,0.730719,-0.503921
1631018763468,-0.560468,0.700768,-0.498736
1631018763477,-0.5602239999999999,0.664046,-0.488854
1631018763487,-0.560163,0.634583,-0.474641
1631018763496,-0.561566,0.615124,-0.456951
1631018763506,-0.5611389999999999,0.605486,-0.442494
1631018763516,-0.559065,0.60634,-0.428647
1631018763525,-0.556137,0.6150019999999999,-0.420534
1631018763535,-0.554978,0.630679,-0.417057
1631018763544,-0.55388,0.646478,-0.415593
1631018763554,-0.552172,0.661362,-0.416935
1631018763564,-0.551196,0.67222,-0.417118
1631018763573,-0.554246,0.681248,-0.4148
1631018763583,-0.550647,0.682956,-0.415166
1631018763592,-0.549,0.681492,-0.416081
1631018763602,-0.549732,0.67588,-0.413397
1631018763612,-0.553148,0.672708,-0.414312
1631018763621,-0.557662,0.673135,-0.418521
1631018763631,-0.560773,0.67222,-0.42523099999999997
1631018763640,-0.561932,0.666669,-0.431575
1631018763650,-0.564616,0.662277,-0.435479
1631018763660,-0.567117,0.659837,-0.4392
1631018763669,-0.5690689999999999,0.659044,-0.44395799999999996
1631018763679,-0.570716,0.659044,-0.447679
1631018763688,-0.5715089999999999,0.656848,-0.45200999999999997
1631018763698,-0.571631,0.653554,-0.452498
1631018763708,-0.573034,0.653554,-0.452986
1631018763717,-0.576023,0.652944,-0.45536499999999996
1631018763727,-0.577853,0.651602,-0.457622
1631018763736,-0.579622,0.647698,-0.458903
1631018763746,-0.58072,0.6430009999999999,-0.461709
1631018763756,-0.580598,0.639402,-0.465125
1631018763765,-0.582916,0.6372059999999999,-0.470676
1631018763775,-0.582672,0.634034,-0.47573899999999997
1631018763784,-0.582672,0.631777,-0.479338
1631018763794,-0.5839529999999999,0.629581,-0.479155
1631018763804,-0.585844,0.629093,-0.47763
1631018763813,-0.5856,0.630496,-0.47329899999999997
1631018763823,-0.584929,0.633729,-0.468785
1631018763832,-0.586271,0.637999,-0.466528
1631018763842,-0.587796,0.642818,-0.46677199999999996
1631018763852,-0.589077,0.648674,-0.465979
1631018763861,-0.59231,0.64904,-0.465186
1631018763871,-0.595299,0.647881,-0.469029
1631018763880,-0.595421,0.6466,-0.473482
1631018763890,-0.595604,0.645685,-0.47787399999999997
1631018763900,-0.595177,0.646783,-0.481656
1631018763909,-0.5952379999999999,0.649162,-0.484218
1631018763919,-0.594689,0.648186,-0.485255
1631018763928,-0.595787,0.648979,-0.484828
1631018763938,-0.5946279999999999,0.648369,-0.484584
1631018763948,-0.595177,0.646539,-0.484584
1631018763957,-0.591212,0.645868,-0.485987
1631018763967,-0.590419,0.645563,-0.486414
1631018763976,-0.59109,0.647332,-0.490379
1631018763986,-0.590236,0.648064,-0.49349
1631018763996,-0.587186,0.648003,-0.495686
1631018764005,-0.5845629999999999,0.645502,-0.497455
1631018764015,-0.583038,0.644343,-0.500749
1631018764024,-0.581452,0.643184,-0.503311
1631018764034,-0.581574,0.641537,-0.506666
1631018764044,-0.58011,0.640195,-0.509106
1631018764053,-0.578951,0.639402,-0.510448
1631018764063,-0.575169,0.638182,-0.509838
1631018764072,-0.571936,0.6344609999999999,-0.505629
1631018764082,-0.569618,0.633485,-0.503433
1631018764092,-0.5672389999999999,0.633729,-0.502152
1631018764101,-0.566263,0.63623,-0.500932
1631018764111,-0.5654089999999999,0.638304,-0.49837
1631018764120,-0.564006,0.639829,-0.496235
1631018764130,-0.562603,0.6436109999999999,-0.496601
1631018764140,-0.561627,0.645319,-0.49611299999999997
1631018764149,-0.56242,0.646844,-0.494283
1631018764159,-0.562725,0.646295,-0.492087
1631018764168,-0.56486,0.64355,-0.488732
1631018764178,-0.56669,0.6408659999999999,-0.487878
1631018764188,-0.5666289999999999,0.635742,-0.487512
1631018764197,-0.567788,0.630862,-0.485987
1631018764207,-0.569496,0.62769,-0.483364
1631018764216,-0.5712039999999999,0.62647,-0.483852
1631018764226,-0.573522,0.626104,-0.483913
1631018764236,-0.576633,0.627873,-0.48501099999999997
1631018764245,-0.578707,0.628544,-0.487512
1631018764255,-0.578646,0.627629,-0.487207
1631018764264,-0.581086,0.627995,-0.48714599999999997
1631018764274,-0.580842,0.626714,-0.486353
1631018764284,-0.581879,0.625067,-0.48678
1631018764293,-0.582794,0.622688,-0.487329
1631018764303,-0.585051,0.621651,-0.489464
1631018764312,-0.585722,0.621834,-0.48897599999999997
1631018764322,-0.586271,0.621651,-0.488915
1631018764332,-0.587369,0.620675,-0.488244
1631018764341,-0.588894,0.6201869999999999,-0.488
1631018764351,-0.592432,0.621224,-0.486719
1631018764360,-0.594384,0.624152,-0.486963
1631018764370,-0.594811,0.625006,-0.487268
1631018764380,-0.596214,0.624091,-0.487512
1631018764389,-0.596702,0.622383,-0.486109
1631018764399,-0.5978,0.6214069999999999,-0.484767
1631018764408,-0.599447,0.62159,-0.483303
1631018764418,-0.599569,0.6211019999999999,-0.482632
1631018764428,-0.600911,0.62098,-0.483303
1631018764437,-0.603046,0.623054,-0.483913
1631018764447,-0.604022,0.622078,-0.484035
1631018764456,-0.603778,0.620126,-0.483425
1631018764466,-0.6039,0.618235,-0.482754
1631018764476,-0.604632,0.617625,-0.48379099999999997
1631018764485,-0.605486,0.617076,-0.48531599999999997
1631018764495,-0.605608,0.615185,-0.48434
1631018764504,-0.607194,0.616344,-0.485255
1631018764514,-0.606157,0.616893,-0.485072
1631018764524,-0.605913,0.617503,-0.484462
1631018764533,-0.605608,0.6189669999999999,-0.48373
1631018764543,-0.604876,0.6214069999999999,-0.485194
1631018764552,-0.604998,0.623054,-0.485438
1631018764562,-0.603107,0.624152,-0.48806099999999997
1631018764572,-0.601582,0.625921,-0.48897599999999997
1631018764581,-0.599813,0.627934,-0.490379
1631018764591,-0.5978,0.628788,-0.491904
1631018764600,-0.598166,0.628849,-0.491599
1631018764610,-0.59414,0.628849,-0.492514
1631018764620,-0.592676,0.626592,-0.493002
1631018764629,-0.5888329999999999,0.625921,-0.492209
1631018764639,-0.5857829999999999,0.62525,-0.49519799999999997
1631018764648,-0.583343,0.622688,-0.497089
1631018764658,-0.581208,0.620919,-0.49763799999999997
1631018764668,-0.579317,0.6222,-0.499712
1631018764677,-0.577914,0.622383,-0.501908
1631018764687,-0.575901,0.624457,-0.504043
1631018764696,-0.576023,0.625982,-0.50508
1631018764706,-0.574803,0.626531,-0.507459
1631018764716,-0.573827,0.624274,-0.506056
1631018764725,-0.573766,0.622078,-0.504531
1631018764735,-0.573278,0.619516,-0.504226
1631018764744,-0.571936,0.620248,-0.50447
1631018764754,-0.572241,0.621468,-0.504409
1631018764764,-0.572546,0.620614,-0.505324
1631018764773,-0.573095,0.6204919999999999,-0.506666
1631018764783,-0.573644,0.621346,-0.507276
1631018764792,-0.575108,0.6211019999999999,-0.505446
1631018764802,-0.577426,0.620309,-0.501359
1631018764812,-0.578646,0.620126,-0.499834
1631018764821,-0.578646,0.6198819999999999,-0.500078
1631018764831,-0.579866,0.62098,-0.499102
1631018764840,-0.580598,0.623115,-0.5002
1631018764850,-0.581208,0.625006,-0.501176
1631018764860,-0.581757,0.62464,-0.500627
1631018764869,-0.581818,0.624274,-0.501115
1631018764879,-0.583465,0.624823,-0.500322
1631018764888,-0.5842579999999999,0.62525,-0.49977299999999997
1631018764898,-0.584014,0.623908,-0.498126
1631018764908,-0.5839529999999999,0.622932,-0.497272
1631018764917,-0.585112,0.623664,-0.495686
1631018764927,-0.5866979999999999,0.624274,-0.494222
1631018764936,-0.58682,0.624396,-0.49355099999999996
1631018764946,-0.587979,0.624457,-0.49324599999999996
1631018764956,-0.5873079999999999,0.623603,-0.493429
1631018764965,-0.5866979999999999,0.623847,-0.49202599999999996
1631018764975,-0.586942,0.624091,-0.492575
1631018764984,-0.586576,0.623908,-0.491843
1631018764994,-0.587369,0.623908,-0.492819
1631018765004,-0.587247,0.623298,-0.493307
1631018765013,-0.587735,0.623786,-0.493734
1631018765023,-0.58682,0.623237,-0.495564
1631018765032,-0.586942,0.622139,-0.496784
1631018765042,-0.587491,0.621956,-0.49654
1631018765052,-0.58743,0.620919,-0.49702799999999997
1631018765061,-0.587247,0.619638,-0.497272
1631018765071,-0.586515,0.619211,-0.498065
1631018765080,-0.585112,0.618845,-0.498004
1631018765090,-0.5860879999999999,0.618723,-0.499102
1631018765100,-0.585661,0.6183569999999999,-0.500505
1631018765109,-0.585966,0.6183569999999999,-0.502396
1631018765119,-0.585844,0.61732,-0.502762
1631018765128,-0.5856,0.616405,-0.503921
1631018765138,-0.586515,0.615063,-0.505446
1631018765148,-0.585661,0.613904,-0.506422
1631018765157,-0.585844,0.6137819999999999,-0.507215
1631018765167,-0.5856,0.613904,-0.50813
1631018765176,-0.585234,0.613294,-0.50874
1631018765186,-0.587064,0.6150019999999999,-0.509289
1631018765196,-0.584746,0.617503,-0.510326
1631018765205,-0.584807,0.619699,-0.509655
1631018765215,-0.584746,0.618601,-0.507459
1631018765224,-0.585356,0.618113,-0.503921
1631018765234,-0.585722,0.618601,-0.502518
1631018765244,-0.5854779999999999,0.622322,-0.503128
1631018765253,-0.584197,0.623237,-0.504714
1631018765263,-0.582794,0.62464,-0.507032
1631018765272,-0.58316,0.624335,-0.509289
1631018765282,-0.582611,0.623054,-0.508923
1631018765292,-0.582428,0.61976,-0.510265
1631018765301,-0.581818,0.617808,-0.510387
1631018765311,-0.581269,0.616466,-0.510326
1631018765320,-0.579988,0.616893,-0.510204
1631018765330,-0.578951,0.615795,-0.510448
1631018765340,-0.576877,0.61488,-0.508435
1631018765349,-0.576267,0.61488,-0.507154
1631018765359,-0.57584,0.612928,-0.507276
1631018765368,-0.57645,0.613294,-0.507093
1631018765378,-0.576511,0.6140869999999999,-0.507947
1631018765388,-0.57645,0.615063,-0.510936
1631018765397,-0.577426,0.615368,-0.511912
1631018765407,-0.578402,0.615795,-0.512339
1631018765416,-0.57889,0.615368,-0.5133759999999999
1631018765426,-0.578524,0.616405,-0.51423
1631018765436,-0.579195,0.6183569999999999,-0.515999
1631018765445,-0.577426,0.618784,-0.515328
1631018765455,-0.576816,0.617625,-0.512705
1631018765464,-0.577304,0.6183569999999999,-0.509533
1631018765474,-0.57706,0.619516,-0.509045
1631018765484,-0.578097,0.619455,-0.50752
1631018765493,-0.578402,0.618723,-0.504226
1631018765503,-0.578402,0.619394,-0.503067
1631018765512,-0.579805,0.619516,-0.502579
1631018765522,-0.579866,0.620431,-0.504226
1631018765532,-0.580415,0.620553,-0.504287
1631018765541,-0.581696,0.61915,-0.506666
1631018765551,-0.582062,0.61732,-0.507825
1631018765560,-0.582184,0.615795,-0.508984
1631018765570,-0.583465,0.616039,-0.507764
1631018765580,-0.583465,0.6168319999999999,-0.506178
1631018765589,-0.583709,0.6174419999999999,-0.50569
1631018765599,-0.584197,0.618479,-0.503677
1631018765608,-0.584014,0.619394,-0.50264
1631018765618,-0.5856,0.618296,-0.501725
1631018765628,-0.5863929999999999,0.617808,-0.502579
1631018765637,-0.587247,0.61671,-0.50325
1631018765647,-0.587369,0.6171369999999999,-0.503067
1631018765656,-0.5876129999999999,0.6159169999999999,-0.50386
1631018765666,-0.588589,0.6156119999999999,-0.505385
1631018765676,-0.588589,0.6143919999999999,-0.505507
1631018765685,-0.58804,0.614575,-0.505385
1631018765695,-0.589016,0.6150019999999999,-0.504775
1631018765704,-0.588467,0.6153069999999999,-0.506239
1631018765714,-0.587735,0.615734,-0.506117
1631018765724,-0.588284,0.614758,-0.506056
1631018765733,-0.5885279999999999,0.613843,-0.505873
1631018765743,-0.5873079999999999,0.612318,-0.506544
1631018765752,-0.585844,0.612379,-0.507459
1631018765762,-0.585051,0.613965,-0.506971
1631018765772,-0.5856,0.614148,-0.506788
1631018765781,-0.585112,0.61366,-0.506422
1631018765791,-0.583282,0.6131719999999999,-0.507154
1631018765800,-0.5839529999999999,0.614148,-0.506788
1631018765810,-0.582855,0.61488,-0.507886
1631018765820,-0.58255,0.614758,-0.509289
1631018765829,-0.581757,0.614941,-0.50996
1631018765839,-0.58194,0.6134769999999999,-0.51118
1631018765848,-0.580171,0.61366,-0.510082
1631018765858,-0.579805,0.613294,-0.50996
1631018765868,-0.579744,0.613843,-0.510265
1631018765877,-0.58194,0.617198,-0.511485
1631018765887,-0.583038,0.619516,-0.513132
1631018765896,-0.58438,0.621529,-0.51423
1631018765906,-0.584685,0.619333,-0.5167309999999999
1631018765916,-0.5842579999999999,0.620309,-0.51728
1631018765925,-0.583282,0.6192719999999999,-0.518134
1631018765935,-0.583831,0.620614,-0.517524
1631018765944,-0.584136,0.619638,-0.5164259999999999
1631018765954,-0.584075,0.618784,-0.511546
1631018765964,-0.58377,0.619699,-0.508191
1631018765973,-0.58194,0.6211019999999999,-0.506605
1631018765983,-0.58194,0.6211019999999999,-0.505873
1631018765992,-0.582245,0.621773,-0.507581
1631018766002,-0.581269,0.620614,-0.50935
1631018766012,-0.580842,0.61915,-0.510021
1631018766021,-0.580171,0.616893,-0.509106
1631018766031,-0.579622,0.611891,-0.507459
1631018766040,-0.578402,0.608048,-0.504409
1631018766050,-0.576633,0.605303,-0.502701
1631018766060,-0.575718,0.603656,-0.50142
1631018766069,-0.576328,0.603656,-0.502884
1631018766079,-0.57645,0.601338,-0.506361
1631018766088,-0.576938,0.601704,-0.508313
1631018766098,-0.579561,0.601765,-0.510082
1631018766108,-0.582306,0.601338,-0.513742
1631018766117,-0.584624,0.60085,-0.516792
1631018766127,-0.5876129999999999,0.601338,-0.518317
1631018766136,-0.589626,0.60268,-0.5197809999999999
1631018766146,-0.591395,0.605181,-0.518622
1631018766156,-0.592005,0.6079869999999999,-0.517585
1631018766165,-0.5927979999999999,0.6104269999999999,-0.515755
1631018766175,-0.5915779999999999,0.6101219999999999,-0.5152059999999999
1631018766184,-0.589016,0.608963,-0.509777
1631018766194,-0.587674,0.6104269999999999,-0.506544
1631018766204,-0.5854779999999999,0.610366,-0.503982
1631018766213,-0.582916,0.606523,-0.500505
1631018766223,-0.582245,0.604754,-0.49824799999999997
1631018766232,-0.581879,0.604449,-0.497089
1631018766242,-0.582794,0.604022,-0.497089
1631018766252,-0.582306,0.604083,-0.499529
1631018766261,-0.58255,0.600911,-0.503677
1631018766271,-0.584319,0.59963,-0.508618
1631018766280,-0.585905,0.600362,-0.511119
1631018766290,-0.587552,0.601155,-0.513742
1631018766300,-0.587552,0.601765,-0.514352
1631018766309,-0.58682,0.599081,-0.515633
1631018766319,-0.5879179999999999,0.598715,-0.516975
1631018766328,-0.592249,0.601094,-0.520757
1631018766338,-0.59597,0.604998,-0.523624
1631018766348,-0.598532,0.606401,-0.524844
1631018766357,-0.601826,0.607072,-0.527406
1631018766367,-0.604327,0.610549,-0.530883
1631018766376,-0.605486,0.611464,-0.53009
1631018766386,-0.605364,0.61122,-0.526552
1631018766396,-0.604083,0.612074,-0.52216
1631018766405,-0.60329,0.614575,-0.518134
1631018766415,-0.59963,0.613233,-0.514413
1631018766424,-0.595299,0.610854,-0.509289
1631018766434,-0.59536,0.616405,-0.506422
1631018766444,-0.597983,0.622322,-0.505324
1631018766453,-0.599264,0.623542,-0.502518
1631018766463,-0.597373,0.6214069999999999,-0.502579
1631018766472,-0.593042,0.620431,-0.504348
1631018766482,-0.587796,0.619699,-0.503982
1631018766492,-0.582794,0.62098,-0.501298
1631018766501,-0.578158,0.620065,-0.497882
1631018766511,-0.573339,0.618784,-0.492758
1631018766520,-0.569496,0.61915,-0.490318
1631018766530,-0.567788,0.621285,-0.491599
1631018766540,-0.565836,0.622627,-0.491904
1631018766549,-0.565592,0.624274,-0.492148
1631018766559,-0.566873,0.62708,-0.494039
1631018766568,-0.566995,0.629825,-0.496174
1631018766578,-0.568947,0.632692,-0.500261
1631018766588,-0.570777,0.634278,-0.503677
1631018766597,-0.570838,0.635925,-0.508374
1631018766607,-0.569618,0.638792,-0.513132
1631018766616,-0.571875,0.641232,-0.515633
1631018766626,-0.572851,0.640683,-0.51667
1631018766636,-0.572973,0.637084,-0.513925
1631018766645,-0.571936,0.632143,-0.510082
1631018766655,-0.57035,0.626775,-0.50691
1631018766664,-0.568703,0.622688,-0.504226
1631018766674,-0.567971,0.621468,-0.502152
1631018766684,-0.56791,0.621224,-0.500871
1631018766693,-0.566812,0.62098,-0.501542
1631018766703,-0.565958,0.622566,-0.502274
1631018766712,-0.56486,0.621529,-0.500871
1631018766722,-0.565531,0.620919,-0.498797
1631018766732,-0.566385,0.623359,-0.497577
1631018766741,-0.567483,0.625982,-0.495869
1631018766751,-0.568886,0.628178,-0.493856
1631018766760,-0.569313,0.628056,-0.495747
1631018766770,-0.5699839999999999,0.629642,-0.496174
1631018766780,-0.571387,0.629825,-0.496967
1631018766789,-0.573217,0.627873,-0.499102
1631018766799,-0.57645,0.626531,-0.500017
1631018766808,-0.577487,0.624579,-0.503921
1631018766818,-0.579622,0.621895,-0.507215
1631018766828,-0.58072,0.62037,-0.509228
1631018766837,-0.583343,0.6198819999999999,-0.509594
1631018766847,-0.583587,0.619089,-0.510204
1631018766856,-0.5842579999999999,0.61976,-0.510509
1631018766866,-0.586881,0.618174,-0.511363
1631018766876,-0.588467,0.616405,-0.511485
1631018766885,-0.588772,0.612379,-0.511607
1631018766895,-0.58987,0.60878,-0.510387
1631018766904,-0.590602,0.606157,-0.509472
1631018766914,-0.591639,0.605913,-0.510082
1631018766924,-0.593286,0.605303,-0.512156
1631018766933,-0.594201,0.606523,-0.512705
1631018766943,-0.595299,0.607804,-0.514474
1631018766952,-0.5955429999999999,0.608353,-0.513315
1631018766962,-0.59475,0.608414,-0.511302
1631018766972,-0.59475,0.610793,-0.507215
1631018766981,-0.594445,0.614453,-0.506727
1631018766991,-0.59353,0.615124,-0.504531
1631018767000,-0.594506,0.614941,-0.502152
1631018767010,-0.593652,0.614636,-0.501969
1631018767020,-0.591822,0.614941,-0.502823
1631018767029,-0.592249,0.617076,-0.50325
1631018767039,-0.589992,0.61793,-0.503555
1631018767048,-0.588101,0.619211,-0.503494
1631018767058,-0.58682,0.6201869999999999,-0.503433
1631018767068,-0.5848679999999999,0.6214069999999999,-0.502213
1631018767077,-0.583709,0.6214069999999999,-0.502396
1631018767087,-0.583587,0.621895,-0.502457
1631018767096,-0.582001,0.622017,-0.504714
1631018767106,-0.580842,0.622505,-0.506788
1631018767116,-0.579561,0.62098,-0.507825
1631018767125,-0.577731,0.620431,-0.509472
1631018767135,-0.576084,0.619089,-0.509716
1631018767144,-0.57523,0.619821,-0.510143
1631018767154,-0.57279,0.6195769999999999,-0.510143
1631018767164,-0.574559,0.621285,-0.510204
1631018767173,-0.5734,0.6214069999999999,-0.509228
1631018767183,-0.573522,0.6211019999999999,-0.509167
1631018767192,-0.573827,0.622139,-0.507886
1631018767202,-0.573522,0.623603,-0.506788
1631018767212,-0.574559,0.623603,-0.5063
1631018767221,-0.574132,0.623298,-0.504531
1631018767231,-0.575291,0.624274,-0.504653
1631018767240,-0.576938,0.625372,-0.505507
1631018767250,-0.577426,0.627751,-0.505019
1631018767260,-0.577914,0.627568,-0.503982
1631018767269,-0.578951,0.627324,-0.501847
1631018767279,-0.578768,0.626958,-0.501603
1631018767288,-0.580415,0.626592,-0.50142
1631018767298,-0.581208,0.628056,-0.501908
1631018767308,-0.583526,0.629276,-0.50325
1631018767317,-0.585295,0.628361,-0.504653
1631018767327,-0.584929,0.626714,-0.505263
1631018767336,-0.584807,0.626104,-0.505324
1631018767346,-0.583221,0.622627,-0.504043
1631018767356,-0.581452,0.620858,-0.503189
1631018767365,-0.579378,0.619516,-0.501786
1631018767375,-0.578341,0.618906,-0.499529
1631018767384,-0.578463,0.619821,-0.49885799999999997
1631018767394,-0.577792,0.620919,-0.49837
1631018767404,-0.578036,0.6214069999999999,-0.497394
1631018767413,-0.579439,0.622139,-0.49593
1631018767423,-0.57889,0.622993,-0.49611299999999997
1631018767432,-0.579744,0.623359,-0.495686
1631018767442,-0.578585,0.622566,-0.49672299999999997
1631018767452,-0.578036,0.623115,-0.49776
1631018767461,-0.579683,0.622993,-0.499895
1631018767471,-0.578768,0.622261,-0.503067
1631018767480,-0.57767,0.619455,-0.504897
1631018767490,-0.577548,0.616466,-0.50386
1631018767500,-0.578524,0.616039,-0.503372
1631018767509,-0.579805,0.6183569999999999,-0.505995
1631018767519,-0.582245,0.6201869999999999,-0.509899
1631018767528,-0.583526,0.621224,-0.512278
1631018767538,-0.583221,0.621529,-0.516914
1631018767548,-0.581269,0.6204919999999999,-0.5203909999999999
1631018767557,-0.58011,0.61732,-0.519659
1631018767567,-0.579012,0.61549,-0.517768
1631018767576,-0.57767,0.613538,-0.515084
1631018767586,-0.577304,0.6131719999999999,-0.5133759999999999
1631018767596,-0.576938,0.613538,-0.511607
1631018767605,-0.576938,0.615124,-0.511119
1631018767615,-0.577243,0.615246,-0.509777
1631018767624,-0.577304,0.616771,-0.509594
1631018767634,-0.576389,0.617564,-0.510021
1631018767644,-0.576572,0.6171369999999999,-0.509228
1631018767653,-0.576328,0.615978,-0.509411
1631018767663,-0.576572,0.615429,-0.510387
1631018767672,-0.578524,0.615429,-0.51057
1631018767682,-0.578707,0.61488,-0.510631
1631018767692,-0.579195,0.617381,-0.510204
1631018767701,-0.58011,0.616893,-0.509228
1631018767711,-0.579866,0.617503,-0.507337
1631018767720,-0.58133,0.620126,-0.506483
1631018767730,-0.58133,0.619821,-0.505141
1631018767740,-0.580293,0.618845,-0.503616
1631018767749,-0.579927,0.620248,-0.504165
1631018767759,-0.581879,0.622505,-0.50508
1631018767768,-0.583282,0.621895,-0.504592
1631018767778,-0.583404,0.620736,-0.502335
1631018767788,-0.582489,0.620309,-0.505568
1631018767797,-0.581818,0.620553,-0.505568
1631018767807,-0.581452,0.620919,-0.504958
1631018767816,-0.581513,0.6211019999999999,-0.504531
1631018767826,-0.581208,0.621468,-0.503128
1631018767836,-0.58133,0.62159,-0.503067
1631018767845,-0.58255,0.622322,-0.503555
1631018767855,-0.582489,0.622505,-0.503799
1631018767864,-0.582184,0.621285,-0.505873
1631018767874,-0.581879,0.62159,-0.507032
1631018767884,-0.58133,0.61976,-0.50813
1631018767893,-0.581391,0.6189669999999999,-0.508618
1631018767903,-0.581208,0.6183569999999999,-0.508069
1631018767912,-0.581635,0.61854,-0.507337
1631018767922,-0.582001,0.61854,-0.507093
1631018767932,-0.580537,0.619638,-0.50691
1631018767941,-0.581208,0.619211,-0.506239
1631018767951,-0.581757,0.620309,-0.505751
1631018767960,-0.581513,0.622017,-0.505629
1631018767970,-0.581208,0.622078,-0.50386
1631018767980,-0.582001,0.623054,-0.503189
1631018767989,-0.582184,0.624518,-0.503372
1631018767999,-0.582062,0.625555,-0.50325
1631018768008,-0.581879,0.625311,-0.502335
1631018768018,-0.581452,0.624152,-0.501603
1631018768028,-0.58072,0.623725,-0.500993
1631018768037,-0.580293,0.623725,-0.49959
1631018768047,-0.580354,0.623603,-0.501054
1631018768056,-0.580476,0.623786,-0.501603
1631018768066,-0.580354,0.624091,-0.502396
1631018768076,-0.58072,0.623542,-0.501725
1631018768085,-0.581086,0.624884,-0.501298
1631018768095,-0.581025,0.624945,-0.501115
1631018768104,-0.580476,0.625433,-0.500322
1631018768114,-0.58133,0.623786,-0.500322
1631018768124,-0.580232,0.621956,-0.501481
1631018768133,-0.583892,0.621773,-0.501359
1631018768143,-0.585844,0.622322,-0.504226
1631018768152,-0.5873079999999999,0.621651,-0.507459
1631018768162,-0.589321,0.617869,-0.512644
1631018768172,-0.5851729999999999,0.61915,-0.512827
1631018768181,-0.583892,0.618418,-0.507825
1631018768191,-0.582306,0.620126,-0.506544
1631018768200,-0.582794,0.620126,-0.504958
1631018768210,-0.58072,0.617869,-0.503982
1631018768220,-0.582001,0.617991,-0.503006
1631018768229,-0.581574,0.617198,-0.503921
1631018768239,-0.581208,0.617503,-0.504226
1631018768248,-0.580476,0.619333,-0.504043
1631018768258,-0.581147,0.620614,-0.504531
1631018768268,-0.580781,0.622566,-0.504836
1631018768277,-0.580232,0.622566,-0.503189
1631018768287,-0.579744,0.624152,-0.5002
1631018768296,-0.578768,0.627263,-0.498614
1631018768306,-0.58011,0.628544,-0.498004
1631018768316,-0.579195,0.629154,-0.49763799999999997
1631018768325,-0.577182,0.629215,-0.5002
1631018768335,-0.575352,0.628727,-0.502823
1631018768344,-0.575169,0.62708,-0.503982
1631018768354,-0.574803,0.624396,-0.503555
1631018768364,-0.573461,0.623786,-0.504348
1631018768373,-0.5727289999999999,0.620858,-0.504531
1631018768383,-0.57218,0.621773,-0.503494
1631018768392,-0.571997,0.6214069999999999,-0.502457
1631018768402,-0.57157,0.62159,-0.502701
1631018768412,-0.5721189999999999,0.623481,-0.502579
1631018768421,-0.571753,0.623847,-0.50081
1631018768431,-0.572363,0.625006,-0.498797
1631018768440,-0.572607,0.62342,-0.49855299999999997
1631018768450,-0.574254,0.623908,-0.499102
1631018768460,-0.574132,0.62403,-0.499956
1631018768469,-0.575779,0.626287,-0.500078
1631018768479,-0.57706,0.627934,-0.501176
1631018768488,-0.577365,0.628849,-0.501481
1631018768498,-0.578219,0.629093,-0.501115
1631018768508,-0.579134,0.629764,-0.502396
1631018768517,-0.578219,0.627568,-0.501725
1631018768527,-0.5795,0.626043,-0.500444
1631018768536,-0.579744,0.628361,-0.49977299999999997
1631018768546,-0.580354,0.62952,-0.49885799999999997
1631018768556,-0.581025,0.62952,-0.498065
1631018768565,-0.580171,0.630008,-0.497882
1631018768575,-0.579561,0.630984,-0.49959
1631018768584,-0.578707,0.630801,-0.499651
1631018768594,-0.579378,0.630923,-0.498492
1631018768604,-0.579012,0.630374,-0.49837
1631018768613,-0.578463,0.628849,-0.49776
1631018768623,-0.578585,0.627934,-0.49946799999999997
1631018768632,-0.579561,0.629032,-0.500627
1631018768642,-0.579134,0.6283,-0.500139
1631018768652,-0.579378,0.629032,-0.49977299999999997
1631018768661,-0.578768,0.627629,-0.49946799999999997
1631018768671,-0.578402,0.62769,-0.497394
1631018768680,-0.577365,0.626958,-0.497455
1631018768690,-0.577975,0.626958,-0.496967
1631018768700,-0.578036,0.62647,-0.496601
1631018768709,-0.579378,0.626775,-0.496662
1631018768719,-0.578402,0.625799,-0.496174
1631018768728,-0.578219,0.624762,-0.497455
1631018768738,-0.578402,0.624213,-0.497455
1631018768748,-0.578219,0.626287,-0.49641799999999997
1631018768757,-0.579683,0.626897,-0.496357
1631018768767,-0.58072,0.62769,-0.497211
1631018768776,-0.581269,0.627141,-0.49855299999999997
1631018768786,-0.580842,0.625982,-0.498614
1631018768796,-0.581818,0.625982,-0.497455
1631018768805,-0.582062,0.626958,-0.496296
1631018768815,-0.58194,0.626226,-0.49580799999999997
1631018768824,-0.581696,0.625433,-0.496906
1631018768834,-0.581635,0.626226,-0.496601
1631018768844,-0.581452,0.625677,-0.49654
1631018768853,-0.580781,0.625494,-0.496052
1631018768863,-0.581574,0.62464,-0.497394
1631018768872,-0.582062,0.624884,-0.49715
1631018768882,-0.581574,0.62525,-0.498126
1631018768892,-0.58255,0.626043,-0.49977299999999997
1631018768901,-0.583038,0.624701,-0.49959
1631018768911,-0.582001,0.62403,-0.49885799999999997
1631018768920,-0.581818,0.623359,-0.49898
1631018768930,-0.58194,0.62281,-0.49885799999999997
1631018768940,-0.582184,0.623176,-0.49855299999999997
1631018768949,-0.582916,0.623542,-0.499712
1631018768959,-0.582916,0.62342,-0.50081
1631018768968,-0.582001,0.622688,-0.500688
1631018768978,-0.582123,0.622932,-0.502335
1631018768988,-0.581452,0.622749,-0.502762
1631018768997,-0.580659,0.622383,-0.503616
1631018769007,-0.580903,0.624152,-0.501908
1631018769016,-0.581513,0.624884,-0.500749
1631018769026,-0.580842,0.625433,-0.498126
1631018769036,-0.580232,0.62281,-0.49593
1631018769045,-0.580659,0.625555,-0.496357
1631018769055,-0.581269,0.627141,-0.498004
1631018769064,-0.580964,0.62891,-0.49916299999999997
1631018769074,-0.580903,0.628544,-0.500627
1631018769084,-0.578951,0.62769,-0.502823
1631018769093,-0.578585,0.627507,-0.50325
1631018769103,-0.577792,0.625372,-0.503067
1631018769112,-0.578097,0.623908,-0.503616
1631018769122,-0.576938,0.622993,-0.50386
1631018769132,-0.575352,0.62281,-0.502579
1631018769141,-0.575535,0.621529,-0.502945
1631018769151,-0.574681,0.622627,-0.503006
1631018769160,-0.576328,0.623664,-0.503921
1631018769170,-0.575108,0.624457,-0.505446
1631018769180,-0.574254,0.624152,-0.505446
1631018769189,-0.574437,0.623237,-0.50569
1631018769199,-0.575108,0.621956,-0.50447
1631018769208,-0.575535,0.620736,-0.504531
1631018769218,-0.575962,0.62098,-0.505568
1631018769228,-0.578036,0.621651,-0.50569
1631018769237,-0.578707,0.623847,-0.506178
1631018769247,-0.579317,0.625311,-0.507459
1631018769256,-0.580293,0.62586,-0.50752
1631018769266,-0.579622,0.624152,-0.50508
1631018769276,-0.579195,0.624701,-0.502762
1631018769285,-0.577792,0.626531,-0.501359
1631018769295,-0.579378,0.628361,-0.501298
1631018769304,-0.579256,0.62586,-0.499285
1631018769314,-0.579927,0.626165,-0.49855299999999997
1631018769324,-0.578646,0.625311,-0.499529
1631018769333,-0.57828,0.62586,-0.502152
1631018769343,-0.579073,0.626104,-0.502762
1631018769352,-0.579378,0.626043,-0.502213
1631018769362,-0.577853,0.62525,-0.502518
1631018769372,-0.578768,0.624396,-0.502213
1631018769381,-0.579012,0.624762,-0.501298
1631018769391,-0.579439,0.623908,-0.501176
1631018769400,-0.57889,0.624518,-0.500627
1631018769410,-0.580049,0.624335,-0.500566
1631018769420,-0.578829,0.624396,-0.501054
1631018769429,-0.579073,0.624945,-0.500322
1631018769439,-0.580293,0.62525,-0.500322
1631018769448,-0.580476,0.625189,-0.500505
1631018769458,-0.580842,0.623603,-0.501481
1631018769468,-0.580354,0.622688,-0.500078
1631018769477,-0.580354,0.624274,-0.49946799999999997
1631018769487,-0.582001,0.625128,-0.500017
1631018769496,-0.581147,0.62586,-0.500078
1631018769506,-0.582062,0.625616,-0.49916299999999997
1631018769516,-0.580171,0.625921,-0.497516
1631018769525,-0.58072,0.625067,-0.496967
1631018769535,-0.579866,0.625189,-0.49654
1631018769544,-0.579744,0.624518,-0.496479
1631018769554,-0.581574,0.625311,-0.495442
1631018769564,-0.581452,0.625189,-0.49672299999999997
1631018769573,-0.581025,0.62525,-0.498492
1631018769583,-0.582367,0.62525,-0.498736
1631018769592,-0.582001,0.625311,-0.498187
1631018769602,-0.582001,0.624762,-0.499712
1631018769612,-0.582123,0.625128,-0.499712
1631018769621,-0.581269,0.625372,-0.499102
1631018769631,-0.581513,0.626958,-0.498675
1631018769640,-0.580781,0.627324,-0.499102
1631018769650,-0.580537,0.627263,-0.498431
1631018769660,-0.580476,0.625921,-0.49885799999999997
1631018769669,-0.580598,0.626043,-0.49946799999999997
1631018769679,-0.580049,0.625555,-0.499346
1631018769688,-0.581086,0.627629,-0.500078
1631018769698,-0.580415,0.625921,-0.499529
1631018769708,-0.579866,0.624274,-0.49885799999999997
1631018769717,-0.580659,0.623786,-0.49885799999999997
1631018769727,-0.580049,0.622871,-0.498431
1631018769736,-0.579317,0.62098,-0.49946799999999997
1631018769746,-0.579683,0.62159,-0.501359
1631018769756,-0.580537,0.621163,-0.502884
1631018769765,-0.579317,0.621773,-0.503616
1631018769775,-0.579317,0.62159,-0.503128
1631018769784,-0.581208,0.621956,-0.500688
1631018769794,-0.581574,0.623908,-0.499102
1631018769804,-0.583038,0.627019,-0.497699
1631018769813,-0.58316,0.627934,-0.49715
1631018769823,-0.58194,0.627751,-0.499041
1631018769832,-0.58194,0.628605,-0.500566
1631018769842,-0.581635,0.629032,-0.501969
1631018769852,-0.581696,0.627995,-0.501054
1631018769861,-0.583099,0.626592,-0.49898
1631018769871,-0.581818,0.62525,-0.499834
1631018769880,-0.580171,0.623664,-0.500444
1631018769890,-0.580232,0.623176,-0.499346
1631018769900,-0.579744,0.623054,-0.500139
1631018769909,-0.579012,0.622749,-0.50081
1631018769919,-0.580171,0.622932,-0.501176
1631018769928,-0.578646,0.623176,-0.500993
1631018769938,-0.579073,0.6211019999999999,-0.500078
1631018769948,-0.57828,0.6204919999999999,-0.500139
1631018769957,-0.578341,0.619394,-0.500871
1631018769967,-0.579744,0.620004,-0.500566
1631018769976,-0.581147,0.619943,-0.501481
1631018769986,-0.580537,0.6207969999999999,-0.501176
1631018769996,-0.580659,0.622627,-0.500932
1631018770005,-0.582672,0.622993,-0.501664
1631018770015,-0.581269,0.623298,-0.502396
1631018770024,-0.580903,0.623115,-0.500932
1631018770034,-0.581086,0.62403,-0.500627
1631018770044,-0.580964,0.624701,-0.500383
1631018770053,-0.580537,0.626165,-0.498919
1631018770063,-0.58194,0.62647,-0.496784
1631018770072,-0.580659,0.62525,-0.497516
1631018770082,-0.580659,0.625128,-0.498675
1631018770092,-0.580842,0.624823,-0.499895
1631018770101,-0.581086,0.625677,-0.501603
1631018770111,-0.580964,0.625799,-0.50264
1631018770120,-0.580232,0.62464,-0.502945
1631018770130,-0.5795,0.625006,-0.503494
1631018770140,-0.579683,0.624335,-0.502579
1631018770149,-0.580171,0.624213,-0.50203
1631018770159,-0.579256,0.623603,-0.503128
1631018770168,-0.580171,0.622932,-0.503799
1631018770178,-0.580659,0.621956,-0.505324
1631018770188,-0.579988,0.622017,-0.503982
1631018770197,-0.579378,0.6222,-0.504287
1631018770207,-0.580171,0.622322,-0.504653
1631018770216,-0.580171,0.622322,-0.504104
1631018770226,-0.579927,0.622688,-0.503616
1631018770236,-0.58072,0.622383,-0.503555
1631018770245,-0.581086,0.621346,-0.503738
1631018770255,-0.581025,0.623481,-0.502518
1631018770264,-0.581635,0.623908,-0.501664
1631018770274,-0.580476,0.622932,-0.501481
1631018770284,-0.5795,0.6222,-0.50142
1631018770293,-0.580354,0.622261,-0.501298
1631018770303,-0.580842,0.624579,-0.501176
1631018770312,-0.579866,0.623481,-0.501908
1631018770322,-0.579866,0.622383,-0.501542
1631018770332,-0.579073,0.622932,-0.501176
1631018770341,-0.579683,0.622322,-0.500017
1631018770351,-0.579622,0.621956,-0.500749
1631018770360,-0.5795,0.621041,-0.501725
1631018770370,-0.579622,0.6214069999999999,-0.501603
1631018770380,-0.580354,0.621773,-0.501847
1631018770389,-0.579622,0.621651,-0.502762
1631018770399,-0.580659,0.620248,-0.50325
1631018770408,-0.580049,0.621224,-0.504775
1631018770418,-0.580476,0.621346,-0.50508
1631018770428,-0.581574,0.621956,-0.504226
1631018770437,-0.581269,0.621834,-0.504897
1631018770447,-0.581269,0.621712,-0.503921
1631018770456,-0.58072,0.621041,-0.504348
1631018770466,-0.58011,0.61976,-0.505263
1631018770476,-0.580781,0.617564,-0.505995
1631018770485,-0.580659,0.6168319999999999,-0.50691
1631018770495,-0.581147,0.6189669999999999,-0.508374
1631018770504,-0.581635,0.619699,-0.511119
1631018770514,-0.582306,0.617991,-0.509899
1631018770524,-0.58377,0.618418,-0.507215
1631018770533,-0.584807,0.6211019999999999,-0.505507
1631018770543,-0.5845629999999999,0.622383,-0.50508
1631018770552,-0.583526,0.622688,-0.505934
1631018770562,-0.58255,0.623237,-0.508435
1631018770572,-0.581757,0.625311,-0.510631
1631018770581,-0.580598,0.625128,-0.511912
1631018770591,-0.579744,0.621834,-0.510448
1631018770600,-0.579866,0.619516,-0.508618
1631018770610,-0.579256,0.618418,-0.507398
1631018770620,-0.577914,0.615978,-0.507032
1631018770629,-0.577365,0.615734,-0.506666
1631018770639,-0.576206,0.615734,-0.507581
1631018770648,-0.575657,0.617381,-0.508618
1631018770658,-0.575291,0.618418,-0.508557
1631018770668,-0.574803,0.618174,-0.509228
1631018770677,-0.576084,0.617808,-0.509228
1631018770687,-0.577548,0.6180519999999999,-0.510387
1631018770696,-0.577304,0.617808,-0.50996
1631018770706,-0.57706,0.616283,-0.508923
1631018770716,-0.577365,0.616039,-0.507642
1631018770725,-0.578524,0.61732,-0.508191
1631018770735,-0.578951,0.61976,-0.507764
1631018770744,-0.578951,0.62159,-0.507337
1631018770754,-0.579561,0.622261,-0.508557
1631018770764,-0.578036,0.618784,-0.509167
1631018770773,-0.577121,0.616954,-0.505568
1631018770783,-0.580171,0.6189669999999999,-0.504958
1631018770792,-0.580415,0.621773,-0.506239
1631018770802,-0.580354,0.623115,-0.506117
1631018770812,-0.580598,0.621956,-0.505446
1631018770821,-0.579744,0.621224,-0.505446
1631018770831,-0.579134,0.621285,-0.507032
1631018770840,-0.578707,0.621224,-0.50874
1631018770850,-0.579073,0.622383,-0.509411
1631018770860,-0.577914,0.621834,-0.509167
1631018770869,-0.577792,0.620919,-0.509777
1631018770879,-0.576328,0.620309,-0.509106
1631018770888,-0.577182,0.619699,-0.508618
1631018770898,-0.576145,0.620248,-0.509228
1631018770908,-0.57767,0.620675,-0.510387
1631018770917,-0.577304,0.620736,-0.510631
1631018770927,-0.57706,0.619333,-0.509777
1631018770936,-0.576755,0.620248,-0.510753
1631018770946,-0.578768,0.620614,-0.509838
1631018770956,-0.577365,0.621956,-0.509838
1631018770965,-0.577182,0.621712,-0.510082
1631018770975,-0.577243,0.620919,-0.51057
1631018770984,-0.577182,0.619943,-0.510448
1631018770994,-0.577304,0.621346,-0.510875
1631018771004,-0.576511,0.620614,-0.509411
1631018771013,-0.576084,0.620614,-0.509106
1631018771023,-0.57523,0.620858,-0.508374
1631018771032,-0.576206,0.621163,-0.507276
1631018771042,-0.575352,0.621285,-0.507642
1631018771052,-0.574437,0.621041,-0.507154
1631018771061,-0.574803,0.620065,-0.507032
1631018771071,-0.574498,0.6195769999999999,-0.508374
1631018771080,-0.574925,0.618784,-0.506605
1631018771090,-0.574803,0.6183569999999999,-0.508191
1631018771100,-0.575657,0.619638,-0.50935
1631018771109,-0.576572,0.6198819999999999,-0.510265
1631018771119,-0.575657,0.619638,-0.510997
1631018771128,-0.576084,0.621224,-0.51179
1631018771138,-0.57645,0.620736,-0.511546
1631018771148,-0.576755,0.620126,-0.511546
1631018771157,-0.57584,0.619028,-0.511302
1631018771167,-0.575596,0.61976,-0.512278
1631018771176,-0.576206,0.619211,-0.512217
1631018771186,-0.576633,0.619699,-0.51118
1631018771196,-0.575657,0.6192719999999999,-0.510875
1631018771205,-0.575901,0.618418,-0.510204
1631018771215,-0.576084,0.619516,-0.511119
1631018771224,-0.574925,0.619211,-0.512583
1631018771234,-0.576511,0.617808,-0.5130709999999999
1631018771244,-0.576084,0.619211,-0.514779
1631018771253,-0.575718,0.620919,-0.5145959999999999
1631018771263,-0.577304,0.620126,-0.514413
1631018771272,-0.577304,0.61854,-0.512095
1631018771282,-0.576816,0.617198,-0.510326
1631018771292,-0.577548,0.6192719999999999,-0.51179
1631018771301,-0.57767,0.620553,-0.5133759999999999
1631018771311,-0.576267,0.621468,-0.513315
1631018771320,-0.576633,0.620553,-0.514474
1631018771330,-0.575962,0.61976,-0.516182
1631018771340,-0.575901,0.6183569999999999,-0.51545
1631018771349,-0.575474,0.616954,-0.5145959999999999
1631018771359,-0.576328,0.616283,-0.513315
1631018771368,-0.576389,0.616466,-0.51301
1631018771378,-0.575047,0.616039,-0.512522
1631018771388,-0.574742,0.616771,-0.5124
1631018771397,-0.574681,0.617076,-0.5124609999999999
1631018771407,-0.573217,0.61671,-0.5127659999999999
1631018771416,-0.57401,0.61549,-0.5136809999999999
1631018771426,-0.574925,0.615551,-0.514535
1631018771436,-0.57462,0.614148,-0.5149009999999999
1631018771445,-0.574864,0.61366,-0.515328
1631018771455,-0.575047,0.613294,-0.515389
1631018771464,-0.576572,0.614209,-0.515328
1631018771474,-0.576511,0.615185,-0.513864
1631018771484,-0.576999,0.615368,-0.514413
1631018771493,-0.576084,0.616466,-0.514657
1631018771503,-0.577731,0.616771,-0.514108
1631018771512,-0.575901,0.615856,-0.51362
1631018771522,-0.576145,0.615978,-0.511485
1631018771532,-0.576145,0.61793,-0.51179
1631018771541,-0.577548,0.618479,-0.5124
1631018771551,-0.577243,0.6186619999999999,-0.511668
1631018771560,-0.577426,0.618296,-0.512522
1631018771570,-0.576938,0.619089,-0.513498
1631018771580,-0.576145,0.6183569999999999,-0.5145959999999999
1631018771589,-0.575718,0.6186619999999999,-0.514718
1631018771599,-0.57706,0.6180519999999999,-0.516182
1631018771608,-0.576755,0.6174419999999999,-0.51606
1631018771618,-0.576145,0.617381,-0.516548
1631018771628,-0.576206,0.617686,-0.5170359999999999
1631018771637,-0.575352,0.616588,-0.517097
1631018771647,-0.576023,0.617076,-0.517768
1631018771656,-0.57645,0.616771,-0.518927
1631018771666,-0.575962,0.616954,-0.517707
1631018771676,-0.576328,0.6168319999999999,-0.517158
1631018771685,-0.575718,0.616954,-0.5170359999999999
1631018771695,-0.57645,0.617381,-0.516548
1631018771704,-0.576389,0.618418,-0.517524
1631018771714,-0.57584,0.617991,-0.517524
1631018771724,-0.575535,0.616954,-0.516792
1631018771733,-0.575108,0.616954,-0.516365
1631018771743,-0.57584,0.617564,-0.514352
1631018771752,-0.575962,0.617869,-0.5142909999999999
1631018771762,-0.575535,0.618418,-0.514474
1631018771772,-0.576328,0.61915,-0.512705
1631018771781,-0.575779,0.618174,-0.5130709999999999
1631018771791,-0.575413,0.6180519999999999,-0.512217
1631018771800,-0.574742,0.617686,-0.510936
1631018771810,-0.575413,0.6171369999999999,-0.511302
1631018771820,-0.575535,0.618113,-0.509594
1631018771829,-0.575413,0.617686,-0.50996
1631018771839,-0.575901,0.618296,-0.509533
1631018771848,-0.575108,0.617198,-0.509533
1631018771858,-0.575718,0.61671,-0.50996
1631018771868,-0.577121,0.61671,-0.509655
1631018771877,-0.57706,0.617686,-0.510326
1631018771887,-0.576938,0.618113,-0.510143
1631018771896,-0.576938,0.6186619999999999,-0.510448
1631018771906,-0.576816,0.61793,-0.511302
1631018771916,-0.577731,0.618418,-0.510265
1631018771925,-0.577792,0.619028,-0.510204
1631018771935,-0.577609,0.617564,-0.510143
1631018771944,-0.577182,0.615856,-0.511485
1631018771954,-0.577975,0.615795,-0.511607
1631018771964,-0.57889,0.615673,-0.511973
1631018771973,-0.578768,0.615124,-0.5133759999999999
1631018771983,-0.579012,0.61549,-0.514352
1631018771992,-0.579439,0.61549,-0.514474
1631018772002,-0.580537,0.6162219999999999,-0.51545
1631018772012,-0.579378,0.615368,-0.514108
1631018772021,-0.580415,0.615551,-0.51423
1631018772031,-0.580171,0.615063,-0.515084
1631018772040,-0.579866,0.6143919999999999,-0.515328
1631018772050,-0.579561,0.6137819999999999,-0.514718
1631018772060,-0.580171,0.615246,-0.515694
1631018772069,-0.580171,0.615185,-0.516487
1631018772079,-0.579927,0.6137819999999999,-0.513803
1631018772088,-0.580537,0.615063,-0.511485
1631018772098,-0.580903,0.6183569999999999,-0.510936
1631018772108,-0.581025,0.6198819999999999,-0.51057
1631018772117,-0.580354,0.6192719999999999,-0.512339
1631018772127,-0.579195,0.61976,-0.512949
1631018772136,-0.57828,0.620004,-0.514535
1631018772146,-0.57767,0.619211,-0.5158159999999999
1631018772156,-0.57828,0.617503,-0.514535
1631018772165,-0.577243,0.616344,-0.512095
1631018772175,-0.577121,0.614758,-0.512827
1631018772184,-0.575535,0.614514,-0.513254
1631018772194,-0.575657,0.614636,-0.511546
1631018772204,-0.574986,0.6156119999999999,-0.511851
1631018772213,-0.575108,0.616466,-0.512583
1631018772223,-0.574437,0.6161,-0.513437
1631018772232,-0.574681,0.615734,-0.512949
1631018772242,-0.574681,0.613904,-0.513498
1631018772252,-0.574742,0.61244,-0.5139859999999999
1631018772261,-0.575291,0.612989,-0.5133759999999999
1631018772271,-0.575474,0.6131719999999999,-0.5136809999999999
1631018772280,-0.576328,0.614026,-0.513864
1631018772290,-0.576572,0.615185,-0.514413
1631018772300,-0.578097,0.6161,-0.513437
1631018772309,-0.579073,0.6174419999999999,-0.514535
1631018772319,-0.578036,0.616893,-0.514962
1631018772328,-0.577853,0.6162219999999999,-0.512705
1631018772338,-0.577243,0.617686,-0.511485
1631018772348,-0.57767,0.6189669999999999,-0.511668
1631018772357,-0.579073,0.618784,-0.510936
1631018772367,-0.5795,0.617686,-0.509838
1631018772376,-0.578768,0.618296,-0.511302
1631018772386,-0.578524,0.618906,-0.513193
1631018772396,-0.579195,0.619638,-0.51362
1631018772405,-0.579195,0.6192719999999999,-0.514474
1631018772415,-0.578646,0.618723,-0.512888
1631018772424,-0.577853,0.618296,-0.513193
1631018772434,-0.578402,0.617686,-0.5127659999999999
1631018772444,-0.578097,0.617076,-0.514535
1631018772453,-0.577243,0.615734,-0.514779
1631018772463,-0.577853,0.615185,-0.515755
1631018772472,-0.577853,0.614819,-0.515389
1631018772482,-0.578768,0.615124,-0.5155109999999999
1631018772492,-0.57828,0.6150019999999999,-0.515328
1631018772501,-0.578707,0.61732,-0.514779
1631018772511,-0.578646,0.617808,-0.5139859999999999
1631018772520,-0.578646,0.617198,-0.513437
1631018772530,-0.578463,0.616893,-0.513315
1631018772540,-0.577914,0.6177469999999999,-0.5124609999999999
1631018772549,-0.578158,0.617564,-0.511485
1631018772559,-0.578768,0.61671,-0.511058
1631018772568,-0.578768,0.617503,-0.510692
1631018772578,-0.5795,0.617076,-0.509533
1631018772588,-0.578585,0.617076,-0.508801
1631018772597,-0.578829,0.617869,-0.507886
1631018772607,-0.57889,0.617503,-0.507703
1631018772616,-0.579012,0.6171369999999999,-0.508862
1631018772626,-0.579012,0.616893,-0.510692
1631018772636,-0.579256,0.6174419999999999,-0.510204
1631018772645,-0.579134,0.617564,-0.510448
1631018772655,-0.579988,0.616649,-0.509777
1631018772664,-0.580171,0.616344,-0.509533
1631018772674,-0.579927,0.6159169999999999,-0.511302
1631018772684,-0.580049,0.6165269999999999,-0.511607
1631018772693,-0.580049,0.615551,-0.511546
1631018772703,-0.579866,0.615551,-0.511241
1631018772712,-0.58072,0.6156119999999999,-0.512095
1631018772722,-0.579805,0.615246,-0.512644
1631018772732,-0.579866,0.615063,-0.512522
1631018772741,-0.579866,0.615734,-0.513498
1631018772751,-0.579866,0.614575,-0.514474
1631018772760,-0.579378,0.615124,-0.51545
1631018772770,-0.578768,0.615978,-0.515938
1631018772780,-0.579317,0.6159169999999999,-0.515267
1631018772789,-0.579012,0.616466,-0.514413
1631018772799,-0.578463,0.6162219999999999,-0.515145
1631018772808,-0.578463,0.615246,-0.514169
1631018772818,-0.578585,0.615734,-0.514047
1631018772828,-0.578341,0.615246,-0.515267
1631018772837,-0.577731,0.615734,-0.515084
1631018772847,-0.578585,0.616283,-0.514657
1631018772856,-0.578036,0.615856,-0.514047
1631018772866,-0.57828,0.616283,-0.5139859999999999
1631018772876,-0.577548,0.61549,-0.5124609999999999
1631018772885,-0.577121,0.614758,-0.512522
1631018772895,-0.577243,0.614148,-0.51179
1631018772904,-0.577365,0.615795,-0.512949
1631018772914,-0.57706,0.615978,-0.513315
1631018772924,-0.576755,0.615673,-0.514047
1631018772933,-0.576694,0.6165269999999999,-0.513803
1631018772943,-0.576816,0.6150019999999999,-0.51118
1631018772952,-0.578097,0.6153069999999999,-0.509777
1631018772962,-0.578036,0.618723,-0.510387
1631018772972,-0.579195,0.61976,-0.509716
1631018772981,-0.579744,0.620858,-0.510997
1631018772991,-0.57828,0.621041,-0.513132
1631018773000,-0.57828,0.621651,-0.5145959999999999
1631018773010,-0.57828,0.6198819999999999,-0.514108
1631018773020,-0.578097,0.618235,-0.512522
1631018773029,-0.577731,0.6168319999999999,-0.513498
1631018773039,-0.577182,0.615124,-0.512217
1631018773048,-0.576999,0.615368,-0.5133759999999999
1631018773058,-0.576267,0.6159169999999999,-0.514108
1631018773068,-0.575474,0.616466,-0.513193
1631018773077,-0.574498,0.616649,-0.513315
1631018773087,-0.574681,0.615856,-0.514535
1631018773096,-0.574803,0.615246,-0.5142909999999999
1631018773106,-0.575962,0.614331,-0.514779
1631018773116,-0.577548,0.6140869999999999,-0.5145959999999999
1631018773125,-0.57767,0.613599,-0.513803
1631018773135,-0.579012,0.614575,-0.5139859999999999
1631018773144,-0.579256,0.614819,-0.513925
1631018773154,-0.579744,0.6162219999999999,-0.513193
1631018773164,-0.580537,0.617564,-0.512034
1631018773173,-0.581025,0.61915,-0.510936
1631018773183,-0.582428,0.619638,-0.510631
1631018773192,-0.580476,0.618174,-0.509655
1631018773202,-0.579622,0.617564,-0.508862
1631018773212,-0.58011,0.619089,-0.50752
1631018773221,-0.581574,0.6201869999999999,-0.50569
1631018773231,-0.581208,0.620004,-0.504104
1631018773240,-0.579927,0.619028,-0.50447
1631018773250,-0.579012,0.618906,-0.505873
1631018773260,-0.579073,0.618479,-0.506483
1631018773269,-0.579317,0.6186619999999999,-0.508557
1631018773279,-0.579683,0.61976,-0.508862
1631018773288,-0.580049,0.620065,-0.509716
1631018773298,-0.578951,0.619333,-0.510265
1631018773308,-0.579378,0.618418,-0.509228
1631018773317,-0.579195,0.618784,-0.509106
1631018773327,-0.579744,0.6180519999999999,-0.507947
1631018773336,-0.579378,0.618418,-0.508496
1631018773346,-0.57889,0.617808,-0.508862
1631018773356,-0.579744,0.618235,-0.508801
1631018773365,-0.57889,0.6192719999999999,-0.510021
1631018773375,-0.5795,0.619028,-0.511607
1631018773384,-0.578707,0.618113,-0.512217
1631018773394,-0.578707,0.616588,-0.511363
1631018773404,-0.578646,0.6159169999999999,-0.512095
1631018773413,-0.57889,0.61549,-0.5130709999999999
1631018773423,-0.578158,0.617015,-0.513132
1631018773432,-0.577792,0.61732,-0.5127659999999999
1631018773442,-0.578585,0.617198,-0.5127659999999999
1631018773452,-0.579622,0.6168319999999999,-0.512156
1631018773461,-0.579195,0.617015,-0.511912
1631018773471,-0.577975,0.617503,-0.510997
1631018773480,-0.578402,0.6192719999999999,-0.509533
1631018773490,-0.578951,0.619028,-0.508008
1631018773500,-0.579012,0.61915,-0.50813
1631018773509,-0.578463,0.61854,-0.50874
1631018773519,-0.578402,0.61793,-0.508862
1631018773528,-0.577304,0.618235,-0.509045
1631018773538,-0.577121,0.616588,-0.509777
1631018773548,-0.577853,0.6168319999999999,-0.510509
1631018773557,-0.578341,0.616954,-0.511241
1631018773567,-0.578524,0.615185,-0.512217
1631018773576,-0.578768,0.615734,-0.5127659999999999
1631018773586,-0.578219,0.615795,-0.512278
1631018773596,-0.578341,0.6171369999999999,-0.5124
1631018773605,-0.577853,0.617015,-0.513193
1631018773615,-0.577609,0.617076,-0.513803
1631018773624,-0.57706,0.615856,-0.5145959999999999
1631018773634,-0.576877,0.615368,-0.5130709999999999
1631018773644,-0.576755,0.615368,-0.513254
1631018773653,-0.57706,0.6161,-0.511546
1631018773663,-0.577182,0.617625,-0.51118
1631018773672,-0.576328,0.6177469999999999,-0.512522
1631018773682,-0.578646,0.616039,-0.512522
1631018773692,-0.578524,0.614331,-0.5139859999999999
1631018773701,-0.577304,0.615063,-0.514413
1631018773711,-0.577548,0.617991,-0.514413
1631018773720,-0.578402,0.617808,-0.515084
1631018773730,-0.578341,0.617198,-0.513437
1631018773740,-0.577182,0.615429,-0.513498
1631018773749,-0.57767,0.613355,-0.51362
1631018773759,-0.57767,0.612013,-0.514474
1631018773768,-0.577792,0.612318,-0.514535
1631018773778,-0.578097,0.61305,-0.515633
1631018773788,-0.579073,0.6131719999999999,-0.516365
1631018773797,-0.578646,0.614819,-0.5158159999999999
1631018773807,-0.579256,0.61488,-0.515145
1631018773816,-0.579378,0.616466,-0.514718
1631018773826,-0.579683,0.617564,-0.51362
1631018773836,-0.580964,0.6161,-0.511241
1631018773845,-0.581696,0.616466,-0.507642
1631018773855,-0.58133,0.6195769999999999,-0.508618
1631018773864,-0.581208,0.621529,-0.510265
1631018773874,-0.580232,0.622017,-0.511973
1631018773884,-0.579378,0.6211019999999999,-0.513315
1631018773893,-0.578768,0.619394,-0.513864
1631018773903,-0.578219,0.617869,-0.515145
1631018773912,-0.578768,0.6162219999999999,-0.514718
1631018773922,-0.578524,0.614758,-0.513498
1631018773932,-0.575779,0.613416,-0.512888
1631018773941,-0.575962,0.613355,-0.512644
1631018773951,-0.575657,0.613843,-0.512156
1631018773960,-0.575779,0.615124,-0.513132
1631018773970,-0.57523,0.615734,-0.5136809999999999
1631018773980,-0.574559,0.615856,-0.513559
1631018773989,-0.574986,0.615734,-0.514962
1631018773999,-0.575291,0.615063,-0.5164259999999999
1631018774008,-0.574864,0.6137819999999999,-0.5173409999999999
1631018774018,-0.575108,0.613843,-0.517402
1631018774028,-0.574925,0.612989,-0.5185609999999999
1631018774037,-0.57523,0.614026,-0.5176459999999999
1631018774047,-0.576572,0.615246,-0.518012
1631018774056,-0.576755,0.616954,-0.518134
1631018774066,-0.577182,0.617503,-0.519293
1631018774076,-0.576023,0.616344,-0.518439
1631018774085,-0.575657,0.615368,-0.516792
1631018774095,-0.577487,0.616039,-0.514718
1631018774104,-0.577304,0.61732,-0.514535
1631018774114,-0.577304,0.616588,-0.5124
1631018774124,-0.576694,0.6153069999999999,-0.513132
1631018774133,-0.57645,0.615124,-0.5142909999999999
1631018774143,-0.576206,0.615124,-0.515084
1631018774152,-0.577365,0.6161,-0.515572
1631018774162,-0.577487,0.616283,-0.515633
1631018774172,-0.576938,0.616161,-0.5158159999999999
1631018774181,-0.577792,0.615734,-0.515023
1631018774191,-0.57706,0.615063,-0.514169
1631018774200,-0.577914,0.61549,-0.513559
1631018774210,-0.578097,0.61488,-0.5139859999999999
1631018774220,-0.579256,0.6156119999999999,-0.514474
1631018774229,-0.578036,0.615673,-0.514474
1631018774239,-0.57767,0.615246,-0.513315
1631018774248,-0.578219,0.615978,-0.51179
1631018774258,-0.578341,0.6156119999999999,-0.512583
1631018774268,-0.579561,0.6161,-0.512644
1631018774277,-0.579378,0.61549,-0.5142909999999999
1631018774287,-0.579073,0.615124,-0.513498
1631018774296,-0.579378,0.615856,-0.5133759999999999
1631018774306,-0.579622,0.6162219999999999,-0.512949
1631018774316,-0.579134,0.615673,-0.512888
1631018774325,-0.579134,0.615795,-0.513254
1631018774335,-0.578341,0.616344,-0.513193
1631018774344,-0.578951,0.617076,-0.51301
1631018774354,-0.579378,0.617869,-0.512583
1631018774364,-0.578951,0.617381,-0.511912
1631018774373,-0.578524,0.61732,-0.512095
1631018774383,-0.57889,0.6174419999999999,-0.512278
1631018774392,-0.579439,0.616344,-0.5124
1631018774402,-0.578463,0.616771,-0.512583
1631018774412,-0.577975,0.6162219999999999,-0.51423
1631018774421,-0.57767,0.6156119999999999,-0.515389
1631018774431,-0.577609,0.61549,-0.515267
1631018774440,-0.576877,0.614636,-0.51606
1631018774450,-0.577609,0.614331,-0.514718
1631018774460,-0.576694,0.613904,-0.5145959999999999
1631018774469,-0.576938,0.613721,-0.51545
1631018774479,-0.577853,0.615185,-0.5145959999999999
1631018774488,-0.576816,0.616344,-0.512644
1631018774498,-0.577914,0.616344,-0.5127659999999999
1631018774508,-0.57706,0.615795,-0.511912
1631018774517,-0.577609,0.616588,-0.513132
1631018774527,-0.576999,0.61671,-0.5124609999999999
1631018774536,-0.577914,0.616344,-0.511607
1631018774546,-0.577731,0.616405,-0.510753
1631018774556,-0.577426,0.616283,-0.510204
1631018774565,-0.579012,0.616344,-0.510753
1631018774575,-0.578829,0.61671,-0.510326
1631018774584,-0.579012,0.617076,-0.51057
1631018774594,-0.5795,0.61793,-0.510204
1631018774604,-0.579561,0.616893,-0.510387
1631018774613,-0.580659,0.617381,-0.509411
1631018774623,-0.579683,0.617686,-0.510387
1631018774632,-0.580598,0.617259,-0.510204
1631018774642,-0.579622,0.617015,-0.510936
1631018774652,-0.58072,0.617198,-0.511485
1631018774661,-0.580415,0.6156119999999999,-0.511668
1631018774671,-0.580354,0.61549,-0.513803
1631018774680,-0.579744,0.6153069999999999,-0.514169
1631018774690,-0.579744,0.616954,-0.513193
1631018774700,-0.579012,0.6161,-0.511119
1631018774709,-0.579439,0.615185,-0.508374
1631018774719,-0.580354,0.6171369999999999,-0.507764
1631018774728,-0.580659,0.6186619999999999,-0.509838
1631018774738,-0.58011,0.61976,-0.511241
1631018774748,-0.579744,0.62037,-0.514047
1631018774757,-0.579134,0.6198819999999999,-0.515328
1631018774767,-0.578829,0.618601,-0.517219
1631018774776,-0.57767,0.617869,-0.515084
1631018774786,-0.577121,0.6162219999999999,-0.513132
1631018774796,-0.57706,0.615063,-0.5130709999999999
1631018774805,-0.576877,0.614819,-0.5139859999999999
1631018774815,-0.575352,0.615368,-0.512034
1631018774824,-0.574559,0.61549,-0.511424
1631018774834,-0.575291,0.616344,-0.511912
1631018774844,-0.573156,0.615978,-0.512522
1631018774853,-0.573888,0.614575,-0.512644
1631018774863,-0.573949,0.613721,-0.512949
1631018774872,-0.575108,0.6137819999999999,-0.513315
1631018774882,-0.576938,0.6131719999999999,-0.514169
1631018774892,-0.576206,0.61366,-0.514962
1631018774901,-0.577304,0.615124,-0.5136809999999999
1631018774911,-0.578219,0.614758,-0.5139859999999999
1631018774920,-0.578463,0.616161,-0.5130709999999999
1631018774930,-0.580354,0.616588,-0.512522
1631018774940,-0.58133,0.617259,-0.511912
1631018774949,-0.580293,0.616588,-0.511668
1631018774959,-0.580476,0.615856,-0.51118
1631018774968,-0.580049,0.616954,-0.509838
1631018774978,-0.58072,0.618601,-0.510753
1631018774988,-0.581025,0.618723,-0.509716
1631018774997,-0.581269,0.61732,-0.509228
1631018775007,-0.58133,0.6171369999999999,-0.510326
1631018775016,-0.580537,0.618296,-0.510814
1631018775026,-0.579988,0.61793,-0.511607
1631018775036,-0.578768,0.617991,-0.511302
1631018775045,-0.579317,0.618296,-0.510936
1631018775055,-0.5795,0.617381,-0.511607
1631018775064,-0.579256,0.6162219999999999,-0.512034
1631018775074,-0.579012,0.6165269999999999,-0.512522
1631018775084,-0.579012,0.615734,-0.512705
1631018775093,-0.579378,0.6161,-0.5133759999999999
1631018775103,-0.578951,0.616344,-0.5133759999999999
1631018775112,-0.578585,0.61671,-0.512949
1631018775122,-0.579317,0.6168319999999999,-0.51179
1631018775132,-0.578524,0.616161,-0.511119
1631018775141,-0.579317,0.616283,-0.5124
1631018775151,-0.58011,0.616893,-0.511729
1631018775160,-0.57828,0.617076,-0.511851
1631018775170,-0.579439,0.616649,-0.512522
1631018775180,-0.578707,0.617015,-0.510936
1631018775189,-0.579744,0.6180519999999999,-0.510814
1631018775199,-0.578463,0.617198,-0.510387
1631018775208,-0.579439,0.616588,-0.509838
1631018775218,-0.579622,0.6177469999999999,-0.50935
1631018775228,-0.579744,0.616771,-0.509411
1631018775237,-0.579744,0.6162219999999999,-0.510326
1631018775247,-0.579134,0.617076,-0.508801
1631018775256,-0.579805,0.617259,-0.509106
1631018775266,-0.579317,0.6165269999999999,-0.509777
1631018775276,-0.580598,0.6165269999999999,-0.509106
1631018775285,-0.579561,0.6161,-0.510387
1631018775295,-0.579988,0.615795,-0.510509
1631018775304,-0.580964,0.615368,-0.511729
1631018775314,-0.579988,0.615673,-0.511424
1631018775324,-0.579988,0.616283,-0.512034
1631018775333,-0.5795,0.616039,-0.512034
1631018775343,-0.581025,0.615368,-0.511912
1631018775352,-0.579134,0.615185,-0.513132
1631018775362,-0.580476,0.615673,-0.511912
1631018775372,-0.581269,0.61549,-0.511851
1631018775381,-0.580354,0.615673,-0.511729
1631018775391,-0.579744,0.61549,-0.510997
1631018775400,-0.579805,0.61671,-0.512217
1631018775410,-0.579561,0.6161,-0.511607
1631018775420,-0.579073,0.613843,-0.51179
1631018775429,-0.579195,0.61488,-0.513498
1631018775439,-0.58011,0.614758,-0.5130709999999999
1631018775448,-0.580476,0.6150019999999999,-0.514535
1631018775458,-0.580049,0.6140869999999999,-0.51606
1631018775468,-0.580476,0.614331,-0.515633
1631018775477,-0.580964,0.615124,-0.514779
1631018775487,-0.580232,0.614636,-0.514108
1631018775496,-0.579988,0.613538,-0.512888
1631018775506,-0.579927,0.612989,-0.513254
1631018775516,-0.580171,0.613965,-0.51301
1631018775525,-0.580598,0.613904,-0.513132
1631018775535,-0.582062,0.613416,-0.513864
1631018775544,-0.581818,0.613294,-0.515084
1631018775554,-0.580842,0.613233,-0.515023
1631018775564,-0.581269,0.6125619999999999,-0.512156
1631018775573,-0.582428,0.6143919999999999,-0.510326
1631018775583,-0.582245,0.616893,-0.51179
1631018775592,-0.582611,0.617076,-0.511912
1631018775602,-0.582062,0.6174419999999999,-0.513254
1631018775612,-0.581147,0.61915,-0.5133759999999999
1631018775621,-0.580964,0.618784,-0.51362
1631018775631,-0.580476,0.617198,-0.51362
1631018775640,-0.579622,0.615856,-0.511363
1631018775650,-0.580476,0.614514,-0.509594
1631018775660,-0.579134,0.613599,-0.51118
1631018775669,-0.57828,0.613355,-0.510509
1631018775679,-0.578646,0.614026,-0.510509
1631018775688,-0.577792,0.614758,-0.51057
1631018775698,-0.578036,0.615673,-0.51179
1631018775708,-0.577121,0.615429,-0.513559
1631018775717,-0.576694,0.613843,-0.512644
1631018775727,-0.577426,0.613233,-0.51301
1631018775736,-0.57828,0.612684,-0.5124609999999999
1631018775746,-0.578219,0.612318,-0.5124609999999999
1631018775756,-0.579073,0.613416,-0.51179
1631018775765,-0.578646,0.612318,-0.510936
1631018775775,-0.580476,0.613721,-0.510753
1631018775784,-0.580476,0.614941,-0.511973
1631018775794,-0.580354,0.6161,-0.510875
1631018775804,-0.581269,0.617869,-0.509899
1631018775813,-0.581696,0.6171369999999999,-0.509472
1631018775823,-0.581208,0.61671,-0.50874
1631018775832,-0.582123,0.617991,-0.507703
1631018775842,-0.582489,0.620553,-0.507947
1631018775852,-0.582306,0.618296,-0.507947
1631018775861,-0.580598,0.617625,-0.50752
1631018775871,-0.580842,0.617259,-0.508252
1631018775880,-0.580049,0.61793,-0.509533
1631018775890,-0.579561,0.618296,-0.511485
1631018775900,-0.579805,0.617808,-0.511668
1631018775909,-0.579805,0.618174,-0.510936
1631018775919,-0.579561,0.6180519999999999,-0.511607
1631018775928,-0.578951,0.616649,-0.510753
1631018775938,-0.578707,0.615856,-0.510997
1631018775948,-0.579378,0.6159169999999999,-0.512949
1631018775957,-0.578829,0.616039,-0.513437
1631018775967,-0.579866,0.6162219999999999,-0.5142909999999999
1631018775976,-0.579866,0.614636,-0.51423
1631018775986,-0.579927,0.615978,-0.514535
1631018775996,-0.580049,0.6146969999999999,-0.514779
1631018776005,-0.580659,0.614819,-0.514535
1631018776015,-0.581208,0.61549,-0.514657
1631018776024,-0.581147,0.6162219999999999,-0.513254
1631018776034,-0.580964,0.617381,-0.512827
1631018776044,-0.580415,0.617015,-0.5127659999999999
1631018776053,-0.581574,0.6165269999999999,-0.512705
1631018776063,-0.580781,0.6161,-0.512034
1631018776072,-0.580354,0.616466,-0.510997
1631018776082,-0.580598,0.617564,-0.510814
1631018776092,-0.580598,0.617686,-0.509472
1631018776101,-0.581208,0.617564,-0.50874
1631018776111,-0.580354,0.617869,-0.508313
1631018776120,-0.581452,0.6180519999999999,-0.509228
1631018776130,-0.58072,0.617503,-0.508435
1631018776140,-0.579073,0.617625,-0.508374
1631018776149,-0.578646,0.615856,-0.508191
1631018776159,-0.578524,0.616344,-0.507825
1631018776168,-0.579256,0.6150019999999999,-0.508191
1631018776178,-0.578341,0.6146969999999999,-0.508313
1631018776188,-0.578585,0.615185,-0.509411
1631018776197,-0.579439,0.6165269999999999,-0.509533
1631018776207,-0.579683,0.616588,-0.510082
1631018776216,-0.579927,0.6162219999999999,-0.509655
1631018776226,-0.579683,0.615734,-0.510204
1631018776236,-0.579988,0.615978,-0.509716
1631018776245,-0.580537,0.616954,-0.509289
1631018776255,-0.580293,0.616039,-0.509472
1631018776264,-0.580049,0.6159169999999999,-0.509594
1631018776274,-0.579927,0.6159169999999999,-0.509655
1631018776284,-0.580781,0.616588,-0.510631
1631018776293,-0.580598,0.616588,-0.510997
1631018776303,-0.580842,0.616283,-0.510875
1631018776312,-0.58011,0.615368,-0.509899
1631018776322,-0.581147,0.615246,-0.510936
1631018776332,-0.581574,0.614575,-0.509899
1631018776341,-0.581574,0.614026,-0.510143
1631018776351,-0.581757,0.6156119999999999,-0.511912
1631018776360,-0.582428,0.614819,-0.512827
1631018776370,-0.583282,0.616771,-0.5133759999999999
1631018776380,-0.583099,0.617503,-0.5142909999999999
1631018776389,-0.582977,0.617564,-0.515267
1631018776399,-0.583587,0.61732,-0.513925
1631018776408,-0.583526,0.616161,-0.509594
1631018776418,-0.58194,0.617625,-0.507886
1631018776428,-0.582367,0.620248,-0.5063
1631018776437,-0.580964,0.621529,-0.506849
1631018776447,-0.57889,0.6214069999999999,-0.508008
1631018776456,-0.577548,0.620675,-0.510204
1631018776466,-0.576816,0.618479,-0.511607
1631018776476,-0.576023,0.615673,-0.510631
1631018776485,-0.57706,0.614453,-0.509289
1631018776495,-0.576084,0.61244,-0.51057
1631018776504,-0.574864,0.611891,-0.510692
1631018776514,-0.575596,0.611891,-0.510387
1631018776524,-0.576084,0.612684,-0.51179
1631018776533,-0.57584,0.613538,-0.5142909999999999
1631018776543,-0.576206,0.6140869999999999,-0.516243
1631018776552,-0.57706,0.614331,-0.5161209999999999
1631018776562,-0.577548,0.613233,-0.515572
1631018776572,-0.577609,0.6125619999999999,-0.513803
1631018776581,-0.578463,0.612928,-0.513437
1631018776591,-0.58011,0.614026,-0.513559
1631018776600,-0.580293,0.615368,-0.5149009999999999
1631018776610,-0.579073,0.6161,-0.514779
1631018776620,-0.581452,0.6174419999999999,-0.512705
1631018776629,-0.580415,0.619028,-0.5124
1631018776639,-0.581818,0.61976,-0.511973
1631018776648,-0.580049,0.6189669999999999,-0.5133759999999999
1631018776658,-0.578402,0.61793,-0.511912
1631018776668,-0.579134,0.617198,-0.510936
1631018776677,-0.578524,0.6186619999999999,-0.509655
1631018776687,-0.578829,0.6183569999999999,-0.509594
1631018776696,-0.577548,0.616161,-0.509411
1631018776706,-0.577609,0.616344,-0.509716
1631018776716,-0.576633,0.615978,-0.5124
1631018776725,-0.577304,0.6161,-0.512278
1631018776735,-0.577548,0.615856,-0.514047
1631018776744,-0.577426,0.616954,-0.513864
1631018776754,-0.578829,0.6168319999999999,-0.513864
1631018776764,-0.578341,0.617381,-0.513559
1631018776773,-0.579378,0.616954,-0.514108
1631018776783,-0.579378,0.617686,-0.512644
1631018776792,-0.579378,0.6174419999999999,-0.510753
1631018776802,-0.579195,0.6180519999999999,-0.510326
1631018776812,-0.579256,0.618784,-0.509533
1631018776821,-0.579073,0.61915,-0.508862
1631018776831,-0.579622,0.6189669999999999,-0.508374
1631018776840,-0.580171,0.618418,-0.508191
1631018776850,-0.579683,0.618174,-0.508252
1631018776860,-0.579683,0.61793,-0.50874
1631018776869,-0.580171,0.6177469999999999,-0.507825
1631018776879,-0.580232,0.6183569999999999,-0.508679
1631018776888,-0.581025,0.61976,-0.507703
1631018776898,-0.581818,0.620126,-0.50874
1631018776908,-0.581513,0.620248,-0.509289
1631018776917,-0.581757,0.620614,-0.509045
1631018776927,-0.581391,0.6198819999999999,-0.506971
1631018776936,-0.579561,0.618418,-0.506361
1631018776946,-0.579866,0.616466,-0.504958
1631018776956,-0.58011,0.617503,-0.505019
1631018776965,-0.579622,0.617686,-0.505812
1631018776975,-0.579988,0.6186619999999999,-0.506666
1631018776984,-0.580659,0.617686,-0.507642
1631018776994,-0.580293,0.6162219999999999,-0.508496
1631018777004,-0.58011,0.615978,-0.509472
1631018777013,-0.580476,0.6150019999999999,-0.509228
1631018777023,-0.581269,0.6150019999999999,-0.509777
1631018777032,-0.580354,0.614148,-0.511607
1631018777042,-0.580964,0.613538,-0.510692
1631018777052,-0.580354,0.614026,-0.511119
1631018777061,-0.579561,0.613294,-0.510936
1631018777071,-0.581208,0.612989,-0.511424
1631018777080,-0.580842,0.612928,-0.51179
1631018777090,-0.581757,0.613965,-0.51179
1631018777100,-0.58194,0.61366,-0.510936
1631018777109,-0.582001,0.613355,-0.511729
1631018777119,-0.582184,0.613904,-0.5127659999999999
1631018777128,-0.581696,0.614148,-0.511912
1631018777138,-0.583038,0.613721,-0.511729
1631018777148,-0.58316,0.6143919999999999,-0.5133759999999999
1631018777157,-0.583587,0.613416,-0.5145959999999999
1631018777167,-0.582855,0.613294,-0.515877
1631018777176,-0.58194,0.613355,-0.515755
1631018777186,-0.581391,0.6143919999999999,-0.515389
1631018777196,-0.582428,0.612806,-0.513132
1631018777205,-0.582672,0.612623,-0.511058
1631018777215,-0.582062,0.615063,-0.510692
1631018777224,-0.582001,0.615551,-0.511424
1631018777234,-0.581635,0.6156119999999999,-0.513437
1631018777244,-0.579622,0.61671,-0.516304
1631018777253,-0.579378,0.616588,-0.517707
1631018777263,-0.579134,0.6156119999999999,-0.5167309999999999
1631018777272,-0.579439,0.614514,-0.516365
1631018777282,-0.579805,0.613294,-0.514962
1631018777292,-0.578341,0.6128669999999999,-0.51423
1631018777301,-0.577609,0.612501,-0.512827
1631018777311,-0.576999,0.611403,-0.5124609999999999
1631018777320,-0.576633,0.612806,-0.511668
1631018777330,-0.576328,0.613721,-0.513254
1631018777340,-0.575779,0.614758,-0.512827
1631018777349,-0.576084,0.6140869999999999,-0.513315
1631018777359,-0.575779,0.612684,-0.51301
1631018777368,-0.577121,0.612989,-0.512095
1631018777378,-0.577975,0.612684,-0.511912
1631018777388,-0.577487,0.612196,-0.511851
1631018777397,-0.577914,0.612989,-0.513132
1631018777407,-0.57889,0.614026,-0.513315
1631018777416,-0.579805,0.615551,-0.512278
1631018777426,-0.581635,0.616039,-0.513315
1631018777436,-0.580842,0.616771,-0.511241
1631018777445,-0.580842,0.6171369999999999,-0.510997
1631018777455,-0.581818,0.618174,-0.509167
1631018777464,-0.581452,0.620065,-0.507886
1631018777474,-0.582794,0.619516,-0.506422
1631018777484,-0.581391,0.619394,-0.505446
1631018777493,-0.581208,0.620004,-0.506422
1631018777503,-0.579866,0.620614,-0.507276
1631018777512,-0.579866,0.620919,-0.507459
1631018777522,-0.580354,0.620248,-0.506483
1631018777532,-0.579988,0.619211,-0.506239
1631018777541,-0.580293,0.6183569999999999,-0.506056
1631018777551,-0.579988,0.617991,-0.506605
1631018777560,-0.581086,0.61915,-0.507581
1631018777570,-0.581025,0.6177469999999999,-0.507276
1631018777580,-0.581696,0.617869,-0.507947
1631018777589,-0.582184,0.617686,-0.50813
1631018777599,-0.58194,0.6183569999999999,-0.508374
1631018777608,-0.582184,0.618418,-0.508618
1631018777618,-0.582672,0.617259,-0.509045
1631018777628,-0.583221,0.6171369999999999,-0.509167
1631018777637,-0.582245,0.6171369999999999,-0.509411
1631018777647,-0.583526,0.616954,-0.508618
1631018777656,-0.583648,0.617686,-0.507825
1631018777666,-0.582855,0.61976,-0.507398
1631018777676,-0.583404,0.61854,-0.505446
1631018777685,-0.583221,0.6189669999999999,-0.505324
1631018777695,-0.582977,0.61793,-0.506178
1631018777704,-0.583587,0.617259,-0.504836
1631018777714,-0.583526,0.616954,-0.505507
1631018777724,-0.583038,0.617259,-0.504592
1631018777733,-0.582672,0.61671,-0.505446
1631018777743,-0.583404,0.617198,-0.504226
1631018777752,-0.582001,0.6168319999999999,-0.504897
1631018777762,-0.582184,0.616466,-0.505324
1631018777772,-0.58255,0.6161,-0.50508
1631018777781,-0.582001,0.615734,-0.50569
1631018777791,-0.582184,0.6156119999999999,-0.504775
1631018777800,-0.581879,0.615124,-0.505324
1631018777810,-0.580964,0.614758,-0.50569
1631018777820,-0.582184,0.615978,-0.507642
1631018777829,-0.580354,0.615795,-0.509472
1631018777839,-0.580964,0.614148,-0.509228
1631018777848,-0.580781,0.61488,-0.509716
1631018777858,-0.582245,0.61427,-0.510265
1631018777868,-0.582001,0.6137819999999999,-0.510814
1631018777877,-0.582184,0.6140869999999999,-0.512217
1631018777887,-0.582916,0.613599,-0.513864
1631018777896,-0.582184,0.61305,-0.514352
1631018777906,-0.583282,0.6122569999999999,-0.515145
1631018777916,-0.582977,0.6113419999999999,-0.5170359999999999
1631018777925,-0.582916,0.6119519999999999,-0.519415
1631018777935,-0.582001,0.6116469999999999,-0.519659
1631018777944,-0.582428,0.609878,-0.517829
1631018777954,-0.583709,0.610488,-0.516548
1631018777964,-0.583709,0.61366,-0.5164259999999999
1631018777973,-0.583648,0.6153069999999999,-0.515572
1631018777983,-0.582428,0.616771,-0.516487
1631018777992,-0.581513,0.616771,-0.517158
1631018778002,-0.580598,0.61671,-0.5176459999999999
1631018778012,-0.581269,0.615063,-0.518012
1631018778021,-0.580781,0.614758,-0.516365
1631018778031,-0.579927,0.61244,-0.5152059999999999
1631018778040,-0.577975,0.61122,-0.515084
1631018778050,-0.577609,0.611525,-0.513864
1631018778060,-0.577121,0.6119519999999999,-0.5145959999999999
1631018778069,-0.576755,0.612928,-0.516365
1631018778079,-0.576633,0.614209,-0.5179509999999999
1631018778088,-0.575596,0.613904,-0.5185609999999999
1631018778098,-0.576511,0.613294,-0.518378
1631018778108,-0.575779,0.611098,-0.517219
1631018778117,-0.576084,0.6089019999999999,-0.515572
1631018778127,-0.576694,0.608658,-0.516609
1631018778136,-0.577731,0.608963,-0.516609
1631018778146,-0.577304,0.609085,-0.516243
1631018778156,-0.577853,0.6092069999999999,-0.515999
1631018778165,-0.577914,0.61,-0.515999
1631018778175,-0.579317,0.611098,-0.5164259999999999
1631018778184,-0.58011,0.612806,-0.517463
1631018778194,-0.580171,0.613538,-0.5173409999999999
1631018778204,-0.58011,0.614209,-0.5176459999999999
1631018778213,-0.58072,0.616283,-0.518195
1631018778223,-0.581086,0.6161,-0.5176459999999999
1631018778232,-0.581086,0.6150019999999999,-0.517158
1631018778242,-0.580171,0.6122569999999999,-0.515694
1631018778252,-0.579622,0.612623,-0.516548
1631018778261,-0.578463,0.6128669999999999,-0.5188659999999999
1631018778271,-0.578524,0.614026,-0.51911
1631018778280,-0.578951,0.61366,-0.518805
1631018778290,-0.577792,0.614575,-0.519232
1631018778300,-0.577914,0.6143919999999999,-0.517829
1631018778309,-0.57706,0.612806,-0.518195
1631018778319,-0.576389,0.61366,-0.5182559999999999
1631018778328,-0.577975,0.6146969999999999,-0.518012
1631018778338,-0.576877,0.614514,-0.5185
1631018778348,-0.576694,0.6150019999999999,-0.517829
1631018778357,-0.576572,0.615673,-0.517707
1631018778367,-0.578036,0.6146969999999999,-0.516304
1631018778376,-0.576877,0.614758,-0.5155109999999999
1631018778386,-0.576694,0.6140869999999999,-0.5152059999999999
1631018778396,-0.576511,0.612928,-0.5139859999999999
1631018778405,-0.576999,0.614026,-0.514047
1631018778415,-0.576755,0.613843,-0.51301
1631018778424,-0.57767,0.6140869999999999,-0.512644
1631018778434,-0.577792,0.6128669999999999,-0.5124609999999999
1631018778444,-0.578158,0.614758,-0.51301
1631018778453,-0.578402,0.614941,-0.512034
1631018778463,-0.57889,0.6159169999999999,-0.511546
1631018778472,-0.579439,0.616771,-0.512034
1631018778482,-0.579744,0.6168319999999999,-0.511363
1631018778492,-0.579012,0.616954,-0.511363
1631018778501,-0.578829,0.616405,-0.510692
1631018778511,-0.578707,0.616954,-0.509716
1631018778520,-0.57828,0.615673,-0.510265
1631018778530,-0.578158,0.614758,-0.511607
1631018778540,-0.577609,0.6140869999999999,-0.512705
1631018778549,-0.577853,0.613416,-0.513254
1631018778559,-0.578341,0.613111,-0.513193
1631018778568,-0.578097,0.612623,-0.5145959999999999
1631018778578,-0.578524,0.614026,-0.516243
1631018778588,-0.579744,0.614453,-0.51545
1631018778597,-0.578951,0.614209,-0.5167309999999999
1631018778607,-0.579012,0.614331,-0.518805
1631018778616,-0.579012,0.61366,-0.519598
1631018778626,-0.579195,0.61427,-0.52033
1631018778636,-0.57889,0.615856,-0.5200859999999999
1631018778645,-0.5795,0.61549,-0.5191709999999999
1631018778655,-0.579195,0.6143919999999999,-0.51728
1631018778664,-0.579439,0.614941,-0.514047
1631018778674,-0.578036,0.617259,-0.51423
1631018778684,-0.577975,0.619455,-0.51484
