timestamp,ax,ay,az
1631019124283,-0.618235,0.775432,0.028548
1631019124292,-0.620431,0.775981,0.030744
1631019124302,-0.623725,0.775066,0.034282
1631019124312,-0.625433,0.775493,0.035685
1631019124321,-0.627629,0.7762249999999999,0.038125
1631019124331,-0.629703,0.778116,0.038857
1631019124340,-0.631411,0.780251,0.039467
1631019124350,-0.6329359999999999,0.781593,0.03904
1631019124360,-0.6344609999999999,0.781349,0.040320999999999996
1631019124369,-0.6365959999999999,0.782081,0.041602
1631019124379,-0.6365959999999999,0.780739,0.042943999999999996
1631019124388,-0.638792,0.7774449999999999,0.042822
1631019124398,-0.638609,0.77409,0.042212
1631019124408,-0.639524,0.773724,0.038979
1631019124417,-0.6411709999999999,0.7771399999999999,0.034343
1631019124427,-0.639463,0.778299,0.033367
1631019124436,-0.640622,0.7801899999999999,0.03477
1631019124446,-0.639768,0.781959,0.036478
1631019124456,-0.636718,0.7792749999999999,0.037454
1631019124465,-0.63684,0.777506,0.04087
1631019124475,-0.6356809999999999,0.7777499999999999,0.042456
1631019124484,-0.634339,0.777811,0.045628
1631019124494,-0.6323259999999999,0.777506,0.046421
1631019124504,-0.631167,0.777262,0.045323
1631019124513,-0.632753,0.7786649999999999,0.044957
1631019124523,-0.6335459999999999,0.778421,0.04453
1631019124532,-0.635254,0.776469,0.044712999999999996
1631019124542,-0.635193,0.773419,0.045018
1631019124552,-0.633668,0.769698,0.044347
1631019124561,-0.633668,0.767685,0.044042
1631019124571,-0.6347659999999999,0.767868,0.042273
1631019124580,-0.634888,0.766587,0.042578
1631018753887,-0.782569,0.612013,-0.009028
1631018753897,-0.7823249999999999,0.611403,-0.012017
1631018753906,-0.782203,0.6092069999999999,-0.011956
1631018753916,-0.781837,0.606462,-0.011467999999999999
1631018753925,-0.781166,0.605791,-0.009089
1631018753935,-0.782142,0.604937,-0.007259
1631018753945,-0.782142,0.605425,-0.007503
1631018753954,-0.7844599999999999,0.606218,-0.006893
1631018753964,-0.7862899999999999,0.607011,-0.008418
1631018753973,-0.787571,0.606462,-0.009089
1631018753983,-0.789218,0.60573,-0.01098
1631018753993,-0.789157,0.604876,-0.012078
1631018754002,-0.790011,0.60451,-0.012688
1631018754012,-0.789096,0.603046,-0.013663999999999999
1631018754021,-0.7896449999999999,0.599752,-0.015006
1631018754031,-0.789279,0.60024,-0.015921
1631018754041,-0.7887299999999999,0.601277,-0.015067
1631018754050,-0.787388,0.602802,-0.017019
1631018754060,-0.7868999999999999,0.603839,-0.017934
1631018754069,-0.786168,0.604327,-0.018971
1631018754079,-0.784277,0.605181,-0.018605
1631018754089,-0.783301,0.607194,-0.016836
1631018754098,-0.782569,0.609024,-0.015006
1631018754108,-0.782264,0.610793,-0.013359
1631018754117,-0.779702,0.6125619999999999,-0.011833999999999999
1631018754127,-0.776652,0.612989,-0.011163
1631018754137,-0.774273,0.613111,-0.012139
1631018754146,-0.774334,0.614941,-0.01098
1631018754156,-0.773541,0.6161,-0.010675
1631018754165,-0.774822,0.6177469999999999,-0.010492
1631018754175,-0.77409,0.61976,-0.008418
1631018754185,-0.772687,0.620736,-0.007625
1631018754194,-0.771772,0.620553,-0.007869
1631018754204,-0.771833,0.619821,-0.008539999999999999
1631018754213,-0.77226,0.61793,-0.008539999999999999
1631018754223,-0.773419,0.616954,-0.00976
1631018754233,-0.774151,0.6177469999999999,-0.011041
1631018754242,-0.775371,0.6177469999999999,-0.012444
1631018754252,-0.777323,0.617381,-0.013663999999999999
1631018754261,-0.778848,0.6171369999999999,-0.013542
1631018754271,-0.778238,0.616466,-0.013847
1631018754281,-0.779092,0.615734,-0.014518
1631018754290,-0.780373,0.614331,-0.014761999999999999
1631018754300,-0.779946,0.612318,-0.015189
1631018754309,-0.7807999999999999,0.611281,-0.0183
1631018754319,-0.780251,0.609878,-0.020618
1631018754329,-0.782203,0.607255,-0.022753
1631018754338,-0.783423,0.606218,-0.024583
1631018754348,-0.783484,0.604876,-0.026352
1631018754357,-0.783484,0.603656,-0.025863999999999998
1631018754367,-0.7817149999999999,0.602985,-0.027206
1631018754377,-0.781227,0.602131,-0.027145
1631018754386,-0.7820199999999999,0.60085,-0.028487
1631018754396,-0.782386,0.600362,-0.030744
1631018754405,-0.7807999999999999,0.594567,-0.03782
1631018754415,-0.781166,0.590602,-0.038186
1631018754425,-0.781532,0.591334,-0.039406
1631018754434,-0.781532,0.5918829999999999,-0.041053
1631018754444,-0.7832399999999999,0.592127,-0.041907
1631018754453,-0.785009,0.591456,-0.043737
1631018754463,-0.784399,0.588589,-0.04514
1631018754473,-0.786229,0.587674,-0.047397
1631018754482,-0.7853749999999999,0.5854779999999999,-0.048434
1631018754492,-0.787266,0.585234,-0.049166
1631018754501,-0.788547,0.5857829999999999,-0.048983
1631018754511,-0.7896449999999999,0.586515,-0.049532
1631018754521,-0.788059,0.583831,-0.05124
1631018754530,-0.7878149999999999,0.579439,-0.052948
1631018754540,-0.788547,0.574376,-0.057462
1631018754549,-0.790682,0.5712039999999999,-0.060756
1631018754559,-0.793732,0.568093,-0.062891
1631018754569,-0.794952,0.565592,-0.061975999999999996
1631018754578,-0.796843,0.5657139999999999,-0.066307
1631018754588,-0.797392,0.56425,-0.07094299999999999
1631018754597,-0.7999539999999999,0.5647989999999999,-0.076616
1631018754607,-0.801845,0.561261,-0.080947
1631018754617,-0.802211,0.55815,-0.083204
1631018754626,-0.8026989999999999,0.554246,-0.08790099999999999
1631018754636,-0.800442,0.546072,-0.088694
1631018754645,-0.801296,0.541009,-0.088938
1631018754655,-0.804346,0.541497,-0.088328
1631018754665,-0.808738,0.549488,-0.086986
1631018754674,-0.81313,0.554185,-0.08662
1631018754684,-0.816729,0.557967,-0.0854
1631018754693,-0.818315,0.559553,-0.08295999999999999
1631018754703,-0.822341,0.562908,-0.08662
1631018754713,-0.822829,0.562298,-0.085522
1631018754722,-0.824232,0.563213,-0.08588799999999999
1631018754732,-0.8224629999999999,0.560041,-0.08558299999999999
1631018754741,-0.818315,0.55632,-0.083448
1631018754751,-0.823256,0.556076,-0.08326499999999999
1631018754761,-0.832772,0.563152,-0.07747
1631018754770,-0.841434,0.575596,-0.069601
1631018754780,-0.842898,0.582123,-0.059414
1631018754789,-0.846253,0.588101,-0.047824
1631018754799,-0.848998,0.5949329999999999,-0.032818
1631018754809,-0.85156,0.595787,-0.017385
1631018754818,-0.856806,0.6079869999999999,-0.0035989999999999998
1631018754828,-0.861686,0.623847,0.00732
1631018754837,-0.86315,0.636047,0.014091
1631018754847,-0.8641869999999999,0.649955,0.016347999999999998
1631018754857,-0.866932,0.659593,0.013176
1631018754866,-0.862723,0.657031,0.006344
1631018754876,-0.852414,0.643428,-0.001586
1631018754885,-0.844972,0.629581,-0.01098
1631018754895,-0.836066,0.617259,-0.02135
1631018754905,-0.8270379999999999,0.602131,-0.031049
1631018754914,-0.828197,0.590785,-0.038491
1631018754924,-0.837652,0.5848679999999999,-0.039467
1631018754933,-0.83021,0.573888,-0.046482
1631018754943,-0.818559,0.562176,-0.048922
1631018754953,-0.819169,0.559126,-0.050935
1631018754962,-0.821914,0.56181,-0.051362
1631018754972,-0.817888,0.5641889999999999,-0.05368
1631018754981,-0.811788,0.561871,-0.054595
1631018754991,-0.80398,0.554246,-0.056181
1631018755001,-0.800808,0.545218,-0.059902
1631018755010,-0.796477,0.534665,-0.064904
1631018755020,-0.788181,0.521855,-0.070516
1631018755029,-0.780922,0.512034,-0.075335
1631018755039,-0.775066,0.506056,-0.079849
1631018755049,-0.7668309999999999,0.507581,-0.083875
1631018755058,-0.754875,0.511424,-0.083082
1631018755068,-0.747372,0.5170359999999999,-0.081862
1631018755077,-0.748409,0.526735,-0.077836
1631018755087,-0.750117,0.539179,-0.072346
1631018755097,-0.745908,0.5465599999999999,-0.065514
1631018755106,-0.7381,0.547658,-0.055998
1631018755116,-0.729865,0.548329,-0.047945999999999996
1631018755125,-0.723338,0.549671,-0.039101
1631018755135,-0.71919,0.554063,-0.033916
1631018755145,-0.717055,0.5617489999999999,-0.027877
1631018755154,-0.720654,0.576877,-0.021289
1631018755164,-0.730048,0.5970679999999999,-0.016592
1631018755173,-0.741455,0.61915,-0.011529
1631018755183,-0.7503,0.6393409999999999,-0.004697
1631018755193,-0.754204,0.6563599999999999,-0.000732
1631018755202,-0.759938,0.675697,-0.0071979999999999995
1631018755212,-0.764025,0.69784,-0.008723
1631018755221,-0.760853,0.7093079999999999,-0.0070149999999999995
1631018755231,-0.759938,0.71492,-0.0037819999999999998
1631018755241,-0.755668,0.71797,0.002013
1631018755250,-0.747372,0.715957,0.012444
1631018755260,-0.745664,0.713334,0.022387
1631018755269,-0.745176,0.7114429999999999,0.027327999999999998
1631018755279,-0.743834,0.712236,0.031415
1631018755289,-0.743834,0.710772,0.031903
1631018755298,-0.742248,0.7108329999999999,0.030622
1631018755308,-0.7406619999999999,0.708881,0.025559
1631018755317,-0.7381,0.7096129999999999,0.020801
1631018755327,-0.736819,0.707112,0.019337
1631018755337,-0.738954,0.7062579999999999,0.017506999999999998
1631018755346,-0.735721,0.701256,0.01769
1631018755356,-0.732,0.696559,0.021655
1631018755365,-0.731146,0.6935089999999999,0.021045
1631018755375,-0.730475,0.694058,0.016958
1631018755385,-0.732183,0.694607,0.010003999999999999
1631018755394,-0.73566,0.696315,0.002013
1631018755404,-0.738588,0.697352,-0.003538
1631018755413,-0.739808,0.696132,-0.00976
1631018755423,-0.7381,0.6922889999999999,-0.013725
1631018755433,-0.731756,0.686433,-0.017202
1631018755442,-0.731695,0.682163,-0.019825
1631018755452,-0.734013,0.682468,-0.022814
1631018755461,-0.726693,0.679357,-0.024704999999999998
1631018755471,-0.718641,0.675087,-0.026108
1631018755481,-0.715286,0.671976,-0.025193
1631018755490,-0.716506,0.671976,-0.02623
1631018755500,-0.71675,0.671549,-0.028182
1631018755509,-0.716384,0.670634,-0.03111
1631018755519,-0.7169329999999999,0.672037,-0.032269
1631018755529,-0.719312,0.670329,-0.03172
1631018755538,-0.720288,0.668194,-0.030683
1631018755548,-0.72041,0.665876,-0.029646
1631018755557,-0.719434,0.665388,-0.029463
1631018755567,-0.72163,0.6655099999999999,-0.029219
1631018755577,-0.725473,0.664839,-0.029951
1631018755586,-0.729194,0.6655099999999999,-0.032879
1631018755596,-0.729438,0.664656,-0.032757
1631018755605,-0.7275469999999999,0.661179,-0.032879
1631018755615,-0.7287669999999999,0.658739,-0.034587
1631018755625,-0.734318,0.659776,-0.037698
1631018755634,-0.739076,0.661484,-0.038125
1631018755644,-0.745359,0.6652049999999999,-0.034038
1631018755653,-0.750239,0.6700849999999999,-0.029341
1631018755663,-0.752862,0.674294,-0.024095
1631018755673,-0.757559,0.674599,-0.015799
1631018755682,-0.76372,0.674965,-0.007686
1631018755692,-0.76372,0.672708,-0.005246
1631018755701,-0.7619509999999999,0.668621,-0.006893
1631018755711,-0.7628659999999999,0.662826,-0.01098
1631018755721,-0.764269,0.659532,-0.016653
1631018755730,-0.76677,0.657519,-0.023546
1631018755740,-0.766892,0.652944,-0.031415
1631018755749,-0.7646959999999999,0.64721,-0.038796
1631018755759,-0.763049,0.643367,-0.044347
1631018755769,-0.764147,0.639402,-0.045384
1631018755778,-0.765977,0.635193,-0.04453
1631018755788,-0.767868,0.6317159999999999,-0.043981
1631018755797,-0.768539,0.626897,-0.045506
1631018755807,-0.7659159999999999,0.62159,-0.047519
1631018755817,-0.767014,0.618906,-0.052886999999999997
1631018755826,-0.771406,0.620614,-0.061854
1631018755836,-0.776347,0.624823,-0.072468
1631018755845,-0.776286,0.62464,-0.077653
1631018755855,-0.7750049999999999,0.621285,-0.081008
1631018755865,-0.770918,0.617381,-0.083387
1631018755874,-0.769515,0.615673,-0.086559
1631018755884,-0.76921,0.614819,-0.089609
1631018755893,-0.767563,0.613538,-0.09211
1631018755903,-0.769149,0.6134769999999999,-0.096502
1631018755913,-0.7686,0.613111,-0.101687
1631018755922,-0.769149,0.612684,-0.10736
1631018755932,-0.770003,0.611159,-0.110593
1631018755941,-0.769149,0.6079869999999999,-0.113277
1631018755951,-0.768478,0.607499,-0.114985
1631018755961,-0.7677459999999999,0.608414,-0.11773
1631018755970,-0.767075,0.608658,-0.118584
1631018755980,-0.765672,0.60817,-0.119865
1631018755989,-0.765123,0.606462,-0.121695
1631018755999,-0.762988,0.602985,-0.12071899999999999
1631018756009,-0.76494,0.601277,-0.121207
1631018756018,-0.7671359999999999,0.60085,-0.122732
1631018756028,-0.767075,0.598227,-0.126026
1631018756037,-0.767502,0.593469,-0.127917
1631018756047,-0.768844,0.590846,-0.129503
1631018756057,-0.770247,0.586942,-0.125599
1631018756066,-0.77104,0.583892,-0.122915
1631018756076,-0.772016,0.580537,-0.121756
1631018756085,-0.77348,0.579866,-0.12224399999999999
1631018756095,-0.776469,0.582794,-0.122122
1631018756105,-0.780861,0.587247,-0.12261
1631018756114,-0.784521,0.589626,-0.127002
1631018756124,-0.7881199999999999,0.5924929999999999,-0.132248
1631018756133,-0.789767,0.596336,-0.13908
1631018756143,-0.791109,0.601521,-0.14701
1631018756153,-0.791109,0.607865,-0.15481799999999998
1631018756162,-0.790499,0.6104269999999999,-0.1586
1631018756172,-0.786351,0.608475,-0.158051
1631018756181,-0.781776,0.605791,-0.15494
1631018756191,-0.777384,0.604022,-0.154757
1631018756201,-0.774334,0.604754,-0.15451299999999998
1631018756210,-0.772992,0.607804,-0.15494
1631018756220,-0.771345,0.612318,-0.154696
1631018756229,-0.769088,0.6146969999999999,-0.153476
1631018756239,-0.766404,0.6153069999999999,-0.151524
1631018756249,-0.7646959999999999,0.616405,-0.148108
1631018756258,-0.7604259999999999,0.619333,-0.14579
1631018756268,-0.760609,0.620126,-0.14457
1631018756277,-0.760182,0.622444,-0.14219099999999998
1631018756287,-0.759755,0.623481,-0.138836
1631018756297,-0.75884,0.622078,-0.134017
1631018756306,-0.758108,0.617503,-0.130601
1631018756316,-0.758718,0.614209,-0.12956399999999998
1631018756325,-0.760914,0.615246,-0.129625
1631018756335,-0.762927,0.615734,-0.129625
1631018756345,-0.765794,0.6165269999999999,-0.129686
1631018756354,-0.76799,0.615673,-0.129686
1631018756364,-0.769393,0.615124,-0.129381
1631018756373,-0.768722,0.614453,-0.128466
1631018756383,-0.769271,0.6122569999999999,-0.126941
1631018756393,-0.770003,0.611159,-0.127063
1631018756402,-0.769881,0.609939,-0.126758
1631018756412,-0.770247,0.608536,-0.127246
1631018756421,-0.770369,0.607316,-0.127734
1631018756431,-0.769576,0.605608,-0.127673
1631018756441,-0.769271,0.604449,-0.129137
1631018756450,-0.768966,0.60634,-0.129625
1631018756460,-0.768966,0.607011,-0.130418
1631018756469,-0.769881,0.606584,-0.129503
1631018756479,-0.769759,0.606584,-0.130418
1631018756489,-0.769027,0.60756,-0.12895399999999999
1631018756498,-0.768539,0.608841,-0.12895399999999999
1631018756508,-0.767868,0.6095119999999999,-0.127002
1631018756517,-0.76738,0.610671,-0.12364699999999999
1631018756527,-0.767075,0.612745,-0.124074
1631018756537,-0.7662209999999999,0.613843,-0.122427
1631018756546,-0.765367,0.61549,-0.121695
1631018756556,-0.7646959999999999,0.61854,-0.11931599999999999
1631018756565,-0.7637809999999999,0.620126,-0.115229
1631018756575,-0.763232,0.621468,-0.111813
1631018756585,-0.762744,0.624091,-0.108092
1631018756594,-0.762378,0.626287,-0.103944
1631018756604,-0.762012,0.6283,-0.101077
1631018756613,-0.761158,0.629703,-0.099369
1631018756623,-0.76128,0.629947,-0.098332
1631018756633,-0.761463,0.631289,-0.098942
1631018756642,-0.760182,0.631106,-0.098149
1631018756652,-0.760914,0.630984,-0.097539
1631018756661,-0.760975,0.63257,-0.09820999999999999
1631018756671,-0.762439,0.632692,-0.099674
1631018756681,-0.762012,0.634034,-0.09759999999999999
1631018756690,-0.762195,0.6350709999999999,-0.096929
1631018756700,-0.761524,0.634095,-0.096014
1631018756709,-0.759694,0.632875,-0.095343
1631018756719,-0.759633,0.632692,-0.097234
1631018756729,-0.757742,0.632143,-0.099491
1631018756738,-0.756583,0.632265,-0.102175
1631018756748,-0.756339,0.629154,-0.102602
1631018756757,-0.754387,0.626226,-0.100894
1631018756767,-0.7543259999999999,0.626592,-0.09820999999999999
1631018756777,-0.754448,0.626165,-0.09516
1631018756786,-0.75518,0.628727,-0.093452
1631018756796,-0.75518,0.631594,-0.093696
1631018756805,-0.75518,0.6350709999999999,-0.093086
1631018756815,-0.756888,0.636779,-0.093391
1631018756825,-0.758108,0.6384259999999999,-0.093025
1631018756834,-0.75762,0.640012,-0.094428
1631018756844,-0.7567659999999999,0.640439,-0.09467199999999999
1631018756853,-0.756095,0.639707,-0.093086
1631018756863,-0.7552409999999999,0.638792,-0.091988
1631018756873,-0.755607,0.6387309999999999,-0.092537
1631018756882,-0.75518,0.638853,-0.09272
1631018756892,-0.755302,0.638182,-0.092293
1631018756901,-0.7555459999999999,0.638792,-0.09265899999999999
1631018756911,-0.7564609999999999,0.639219,-0.091195
1631018756921,-0.7573759999999999,0.640439,-0.09089
1631018756930,-0.756522,0.640622,-0.090402
1631018756940,-0.7561559999999999,0.63928,-0.090707
1631018756949,-0.756278,0.6372059999999999,-0.09174399999999999
1631018756959,-0.7576809999999999,0.634888,-0.091805
1631018756969,-0.75762,0.633424,-0.094184
1631018756978,-0.757437,0.6335459999999999,-0.09467199999999999
1631018756988,-0.759084,0.63379,-0.096441
1631018756997,-0.7598159999999999,0.6323259999999999,-0.098027
1631018757007,-0.7613409999999999,0.633058,-0.09729499999999999
1631018757017,-0.761524,0.632509,-0.097051
1631018757026,-0.76067,0.62952,-0.096136
1631018757036,-0.760243,0.628422,-0.095831
1631018757045,-0.762195,0.627446,-0.09497699999999999
1631018757055,-0.763659,0.627019,-0.095526
1631018757065,-0.765184,0.627507,-0.096319
1631018757074,-0.766648,0.627812,-0.096319
1631018757084,-0.76799,0.62769,-0.096258
1631018757093,-0.768844,0.628117,-0.096929
1631018757103,-0.76738,0.627812,-0.097722
1631018757113,-0.768112,0.625738,-0.09943
1631018757122,-0.767197,0.623542,-0.10187
1631018757132,-0.76799,0.623603,-0.102602
1631018757141,-0.7686,0.624396,-0.103944
1631018757151,-0.768783,0.624091,-0.10498099999999999
1631018757161,-0.768234,0.621834,-0.105591
1631018757170,-0.768051,0.620675,-0.105652
1631018757180,-0.766709,0.619943,-0.10577399999999999
1631018757189,-0.766099,0.620004,-0.106811
1631018757199,-0.766099,0.6201869999999999,-0.107848
1631018757209,-0.766282,0.620065,-0.10729899999999999
1631018757218,-0.765733,0.6204919999999999,-0.10699399999999999
1631018757228,-0.765245,0.621224,-0.10614
1631018757237,-0.764025,0.622261,-0.105408
1631018757247,-0.76372,0.622505,-0.10498099999999999
1631018757257,-0.76311,0.623481,-0.105225
1631018757266,-0.7634759999999999,0.62403,-0.10498099999999999
1631018757276,-0.762805,0.624518,-0.106323
1631018757285,-0.76372,0.624945,-0.107665
1631018757295,-0.76372,0.624823,-0.108641
1631018757305,-0.76372,0.624213,-0.108092
1631018757314,-0.763049,0.623481,-0.10858
1631018757324,-0.7625,0.622444,-0.108458
1631018757333,-0.761707,0.62403,-0.108214
1631018757343,-0.762195,0.624518,-0.10760399999999999
1631018757353,-0.761829,0.625982,-0.108031
1631018757362,-0.762195,0.627385,-0.107482
1631018757372,-0.76311,0.627568,-0.107482
1631018757381,-0.762134,0.629398,-0.107238
1631018757391,-0.7625609999999999,0.630374,-0.108275
1631018757401,-0.76189,0.63013,-0.108092
1631018757410,-0.7622559999999999,0.629459,-0.108214
1631018757420,-0.7601209999999999,0.63013,-0.106933
1631018757429,-0.759389,0.629642,-0.10736
1631018757439,-0.7582909999999999,0.62952,-0.106445
1631018757449,-0.757803,0.628788,-0.108214
1631018757458,-0.757437,0.630191,-0.111081
1631018757468,-0.75762,0.630557,-0.112972
1631018757477,-0.756583,0.628422,-0.112362
1631018757487,-0.755424,0.62586,-0.111874
1631018757497,-0.75396,0.624579,-0.10919
1631018757506,-0.752679,0.625555,-0.105713
1631018757516,-0.754875,0.6283,-0.10431
1631018757525,-0.754753,0.631411,-0.104127
1631018757535,-0.7555459999999999,0.6350709999999999,-0.10467599999999999
1631018757545,-0.7573759999999999,0.637389,-0.105713
1631018757554,-0.757864,0.638975,-0.10675
1631018757564,-0.758474,0.638365,-0.106628
1631018757573,-0.757254,0.6375109999999999,-0.105591
1631018757583,-0.7567659999999999,0.6372059999999999,-0.103578
1631018757593,-0.756888,0.6369009999999999,-0.10345599999999999
1631018757602,-0.7567659999999999,0.637633,-0.102724
1631018757612,-0.756217,0.637755,-0.101809
1631018757621,-0.7561559999999999,0.638365,-0.100467
1631018757631,-0.755485,0.63867,-0.100467
1631018757641,-0.75579,0.6387309999999999,-0.10052799999999999
1631018757650,-0.7546309999999999,0.6387309999999999,-0.101199
1631018757660,-0.754204,0.638853,-0.10065
1631018757669,-0.753472,0.6372059999999999,-0.101626
1631018757679,-0.7543259999999999,0.636718,-0.101382
1631018757689,-0.753045,0.635498,-0.099857
1631018757698,-0.753899,0.635254,-0.100589
1631018757708,-0.75274,0.6356809999999999,-0.10004
1631018757717,-0.753899,0.635437,-0.100406
1631018757727,-0.756034,0.635803,-0.10113799999999999
1631018757737,-0.756034,0.635742,-0.101382
1631018757746,-0.755729,0.636108,-0.102236
1631018757756,-0.754997,0.635254,-0.102602
1631018757765,-0.7555459999999999,0.634888,-0.101931
1631018757775,-0.755302,0.634827,-0.10187
1631018757785,-0.756339,0.634095,-0.100406
1631018757794,-0.756095,0.634034,-0.10126
1631018757804,-0.7573759999999999,0.6338509999999999,-0.10126
1631018757813,-0.759572,0.634034,-0.101992
1631018757823,-0.7592059999999999,0.634522,-0.10345599999999999
1631018757833,-0.759023,0.634095,-0.101382
1631018757842,-0.758169,0.634339,-0.101382
1631018757852,-0.7585959999999999,0.6332409999999999,-0.102114
1631018757861,-0.759023,0.634278,-0.102419
1631018757871,-0.758352,0.6338509999999999,-0.10083299999999999
1631018757881,-0.758657,0.634339,-0.100589
1631018757890,-0.759755,0.635254,-0.10187
1631018757900,-0.760182,0.636474,-0.10187
1631018757909,-0.7592059999999999,0.635925,-0.101199
1631018757919,-0.759267,0.636474,-0.102236
1631018757929,-0.759755,0.63501,-0.101992
1631018757938,-0.75884,0.634278,-0.102236
1631018757948,-0.758474,0.633302,-0.103944
1631018757957,-0.758474,0.633302,-0.104005
1631018757967,-0.757315,0.6326309999999999,-0.103273
1631018757977,-0.755607,0.632448,-0.10345599999999999
1631018757986,-0.75579,0.631777,-0.10376099999999999
1631018757996,-0.755302,0.630801,-0.10431
1631018758005,-0.755363,0.631594,-0.10614
1631018758015,-0.756034,0.633302,-0.106811
1631018758025,-0.755058,0.633302,-0.106201
1631018758034,-0.754997,0.632997,-0.106262
1631018758044,-0.753838,0.63074,-0.106201
1631018758053,-0.753777,0.63135,-0.105652
1631018758063,-0.754814,0.633302,-0.105896
1631018758073,-0.756705,0.6344609999999999,-0.105713
1631018758082,-0.756827,0.636169,-0.105957
1631018758092,-0.757498,0.635254,-0.105225
1631018758101,-0.756095,0.635132,-0.105835
1631018758111,-0.7552409999999999,0.636047,-0.107116
1631018758121,-0.755424,0.635498,-0.106323
1631018758130,-0.754265,0.636108,-0.106262
1631018758140,-0.753899,0.636962,-0.107177
1631018758149,-0.753594,0.63684,-0.106506
1631018758159,-0.753472,0.6365959999999999,-0.105652
1631018758169,-0.752435,0.6369009999999999,-0.105225
1631018758178,-0.753533,0.63684,-0.105164
1631018758188,-0.752435,0.63745,-0.105835
1631018758197,-0.7528009999999999,0.637999,-0.105408
1631018758207,-0.752862,0.6393409999999999,-0.104249
1631018758217,-0.753045,0.63989,-0.104615
1631018758226,-0.7543259999999999,0.639768,-0.10577399999999999
1631018758236,-0.75396,0.6414759999999999,-0.105408
1631018758245,-0.75335,0.6396459999999999,-0.104432
1631018758255,-0.752984,0.640927,-0.10498099999999999
1631018758265,-0.753167,0.640012,-0.106018
1631018758274,-0.752435,0.641049,-0.106872
1631018758284,-0.752435,0.641354,-0.109251
1631018758293,-0.75152,0.641415,-0.10931199999999999
1631018758303,-0.75152,0.6399509999999999,-0.1098
1631018758313,-0.749385,0.637572,-0.10931199999999999
1631018758322,-0.747067,0.635498,-0.10699399999999999
1631018758332,-0.747555,0.635254,-0.105591
1631018758341,-0.748043,0.6384259999999999,-0.105591
1631018758351,-0.74847,0.646051,-0.107116
1631018758361,-0.749751,0.655079,-0.106506
1631018758370,-0.751825,0.659288,-0.105408
1631018758380,-0.75152,0.658068,-0.104432
1631018758389,-0.74969,0.652639,-0.097234
1631018758399,-0.748348,0.644404,-0.092171
1631018758409,-0.747677,0.6390359999999999,-0.090951
1631018758418,-0.747494,0.635498,-0.092476
1631018758428,-0.748226,0.6365959999999999,-0.092415
1631018758437,-0.747067,0.636413,-0.092964
1631018758447,-0.74664,0.638975,-0.09497699999999999
1631018758457,-0.744139,0.6387309999999999,-0.096258
1631018758466,-0.742248,0.6414759999999999,-0.096136
1631018758476,-0.739991,0.6454409999999999,-0.095953
1631018758485,-0.739076,0.649833,-0.092232
1631018758495,-0.737368,0.651602,-0.089365
1631018758505,-0.735538,0.654713,-0.085461
1631018758514,-0.7397469999999999,0.659288,-0.07808
1631018758524,-0.73444,0.6618499999999999,-0.070211
1631018758533,-0.726022,0.659532,-0.064416
1631018758543,-0.725656,0.661423,-0.063684
1631018758553,-0.731451,0.666364,-0.066002
1631018758562,-0.73322,0.665754,-0.068625
1631018758572,-0.732793,0.666059,-0.069906
1631018758581,-0.7305969999999999,0.665632,-0.066856
1631018758591,-0.730841,0.666486,-0.066185
1631018758601,-0.732305,0.667706,-0.06508699999999999
1631018758610,-0.734074,0.665998,-0.063684
1631018758620,-0.73139,0.665022,-0.060695
1631018758629,-0.731634,0.663619,-0.060024
1631018758639,-0.7287669999999999,0.661911,-0.057583999999999996
1631018758649,-0.727303,0.660264,-0.054229
1631018758658,-0.7272419999999999,0.661301,-0.048434
1631018758668,-0.72468,0.662887,-0.040687
1631018758677,-0.722179,0.6655099999999999,-0.035502
1631018758687,-0.719861,0.666913,-0.02867
1631018758697,-0.7154079999999999,0.662521,-0.027327999999999998
1631018758706,-0.719434,0.6527,-0.034465
1631018758716,-0.721813,0.650504,-0.033977
1631018758725,-0.71736,0.649162,-0.029768
1631018758735,-0.720715,0.65514,-0.023667999999999998
1631018758745,-0.728889,0.671549,-0.01098
1631018758754,-0.725656,0.68137,6.1e-05
1631018758764,-0.725595,0.687043,0.009882
1631018758773,-0.731756,0.6925939999999999,0.012078
1631018758783,-0.732,0.688751,0.0055509999999999995
1631018758793,-0.728218,0.672098,-0.008173999999999999
1631018758802,-0.73139,0.671488,-0.009333
1631018758812,-0.743346,0.695034,0.0026839999999999998
1631018758821,-0.7558509999999999,0.725839,0.022203999999999998
1631018758831,-0.75884,0.747921,0.038369
1631018758841,-0.745969,0.745298,0.035502
1631018758850,-0.736514,0.719556,0.027877
1631018758860,-0.747616,0.7284619999999999,0.03477
1631018758869,-0.754204,0.739991,0.03538
1631018758879,-0.7549359999999999,0.740418,0.034159999999999996
1631018758889,-0.751398,0.734806,0.02928
1631018758898,-0.74847,0.725412,0.021655
1631018758908,-0.747616,0.707905,0.005795
1631018758917,-0.750849,0.691252,-0.013603
1631018758927,-0.75274,0.673989,-0.03843
1631018758937,-0.751459,0.659837,-0.059292
1631018758946,-0.74969,0.650382,-0.07448099999999999
1631018758956,-0.7503,0.637755,-0.087962
1631018758965,-0.749324,0.623664,-0.099857
1631018758975,-0.748958,0.6079869999999999,-0.110715
1631018758985,-0.746823,0.597312,-0.12132899999999999
1631018758994,-0.74603,0.5888329999999999,-0.130296
1631018759004,-0.743651,0.580842,-0.137982
1631018759013,-0.7409669999999999,0.572607,-0.145607
1631018759023,-0.737368,0.56669,-0.150548
1631018759033,-0.734013,0.564616,-0.15268299999999999
1631018759042,-0.733708,0.566751,-0.151768
1631018759052,-0.7357819999999999,0.57279,-0.150304
1631018759061,-0.736209,0.577853,-0.148413
1631018759071,-0.733159,0.576877,-0.14701
1631018759081,-0.731085,0.577792,-0.145058
1631018759090,-0.733281,0.584502,-0.140544
1631018759100,-0.7363919999999999,0.595726,-0.133285
1631018759109,-0.736758,0.606828,-0.122488
1631018759119,-0.732976,0.617991,-0.108214
1631018759129,-0.736819,0.6338509999999999,-0.096258
1631018759138,-0.744078,0.653066,-0.084912
1631018759148,-0.743834,0.659837,-0.081557
1631018759157,-0.743956,0.658129,-0.08174
1631018759167,-0.750178,0.670634,-0.073139
1631018759177,-0.753899,0.687165,-0.063379
1631018759186,-0.753533,0.69601,-0.054229
1631018759196,-0.752618,0.701805,-0.046055
1631018759205,-0.752923,0.70882,-0.038064
1631018759215,-0.765733,0.722728,-0.030805
1631018759225,-0.764574,0.729621,-0.024644
1631018759234,-0.752679,0.724619,-0.020739999999999998
1631018759244,-0.750117,0.720288,-0.016409
1631018759253,-0.75457,0.7190679999999999,-0.01525
1631018759263,-0.756827,0.714737,-0.016042999999999998
1631018759273,-0.7528009999999999,0.706502,-0.020801
1631018759282,-0.74969,0.699792,-0.028364999999999998
1631018759292,-0.749812,0.69235,-0.036417
1631018759301,-0.751093,0.68381,-0.04392
1631018759311,-0.747982,0.675392,-0.051606
1631018759321,-0.743651,0.663924,-0.056242
1631018759330,-0.7415769999999999,0.656543,-0.062037
1631018759340,-0.740296,0.649406,-0.068442
1631018759349,-0.738405,0.640988,-0.072224
1631018759359,-0.736636,0.634339,-0.077836
1631018759369,-0.734745,0.6283,-0.08234999999999999
1631018759378,-0.733281,0.621468,-0.087108
1631018759388,-0.731573,0.617259,-0.090707
1631018759397,-0.730658,0.6159169999999999,-0.09406199999999999
1631018759407,-0.730658,0.614514,-0.097783
1631018759417,-0.731939,0.6143919999999999,-0.10004
1631018759426,-0.733464,0.6137819999999999,-0.101321
1631018759436,-0.734013,0.61488,-0.102358
1631018759445,-0.7318169999999999,0.614758,-0.100894
1631018759455,-0.730414,0.61488,-0.100894
1631018759465,-0.729804,0.618296,-0.098576
1631018759474,-0.729133,0.620614,-0.094428
1631018759484,-0.731695,0.626836,-0.090585
1631018759493,-0.733708,0.635132,-0.085766
1631018759503,-0.736148,0.641842,-0.08052
1631018759513,-0.736941,0.647637,-0.077165
1631018759522,-0.738344,0.652334,-0.073383
1631018759532,-0.739076,0.656909,-0.07002799999999999
1631018759541,-0.7431019999999999,0.662704,-0.064294
1631018759551,-0.746518,0.670451,-0.059719
1631018759561,-0.749568,0.676856,-0.053558
1631018759570,-0.752618,0.68198,-0.044774
1631018759580,-0.756095,0.688568,-0.03843
1631018759589,-0.756888,0.6941189999999999,-0.034953
1631018759599,-0.7585959999999999,0.696437,-0.031049
1631018759609,-0.759389,0.698328,-0.029036
1631018759618,-0.7598159999999999,0.696803,-0.02928
1631018759628,-0.75945,0.693631,-0.029951
1631018759637,-0.759633,0.690642,-0.031659
1631018759647,-0.757742,0.685396,-0.034892
1631018759657,-0.7564,0.678503,-0.037576
1631018759666,-0.754997,0.675148,-0.040015999999999996
1631018759676,-0.752984,0.672769,-0.039955
1631018759685,-0.751398,0.669353,-0.041053
1631018759695,-0.750178,0.667096,-0.043248999999999996
1631018759705,-0.749507,0.662521,-0.046909
1631018759714,-0.74786,0.658556,-0.051972
1631018759724,-0.745725,0.652517,-0.056608
1631018759733,-0.743834,0.647454,-0.060939
1631018759743,-0.740906,0.643672,-0.064355
1631018759753,-0.739503,0.638487,-0.069357
1631018759762,-0.7376119999999999,0.635132,-0.073078
1631018759772,-0.736026,0.631472,-0.077165
1631018759781,-0.735111,0.630496,-0.079971
1631018759791,-0.7351719999999999,0.628239,-0.08326499999999999
1631018759801,-0.734501,0.627141,-0.086559
1631018759810,-0.733159,0.627507,-0.08881599999999999
1631018759820,-0.7330369999999999,0.626653,-0.091317
1631018759829,-0.731756,0.625189,-0.091866
1631018759839,-0.732,0.627141,-0.091622
1631018759849,-0.7342569999999999,0.629459,-0.091927
1631018759858,-0.735538,0.631899,-0.090036
1631018759868,-0.736758,0.636718,-0.086376
1631018759877,-0.738466,0.64294,-0.083387
1631018759887,-0.740723,0.648552,-0.079849
1631018759897,-0.742614,0.651846,-0.077226
1631018759906,-0.743468,0.655201,-0.073688
1631018759916,-0.743712,0.6575799999999999,-0.07155299999999999
1631018759925,-0.745786,0.660996,-0.068686
1631018759935,-0.748104,0.665266,-0.066429
1631018759945,-0.750361,0.668804,-0.064111
1631018759954,-0.751154,0.67039,-0.061244
1631018759964,-0.7521909999999999,0.671244,-0.058621
1631018759973,-0.7521909999999999,0.672464,-0.056729999999999996
1631018759983,-0.754265,0.673257,-0.055388
1631018759993,-0.754082,0.672952,-0.054107
1631018760002,-0.753228,0.670573,-0.054717
1631018760012,-0.75274,0.668743,-0.056181
1631018760021,-0.752618,0.666181,-0.059536
1631018760031,-0.752313,0.664351,-0.06222
1631018760041,-0.751825,0.660508,-0.06222
1631018760050,-0.7503,0.6563599999999999,-0.066185
1631018760060,-0.749324,0.653188,-0.06709999999999999
1631018760069,-0.748958,0.648613,-0.067893
1631018760079,-0.746945,0.644892,-0.070516
1631018760089,-0.747433,0.6436109999999999,-0.076006
1631018760098,-0.747189,0.6414759999999999,-0.08265499999999999
1631018760108,-0.748104,0.639768,-0.08662
1631018760117,-0.747677,0.637755,-0.086559
1631018760127,-0.746518,0.636108,-0.08588799999999999
1631018760137,-0.745481,0.636169,-0.083692
1631018760146,-0.744078,0.6378159999999999,-0.082289
1631018760156,-0.743956,0.638792,-0.08003199999999999
1631018760165,-0.742614,0.640683,-0.080154
1631018760175,-0.74237,0.6423909999999999,-0.08113
1631018760185,-0.743285,0.644038,-0.082411
1631018760194,-0.744749,0.646478,-0.082167
1631018760204,-0.744139,0.64599,-0.082167
1631018760213,-0.743224,0.646356,-0.080398
1631018760223,-0.7431019999999999,0.646478,-0.076738
1631018760233,-0.7434069999999999,0.647454,-0.072773
1631018760242,-0.7431019999999999,0.649894,-0.069418
1631018760252,-0.742858,0.651297,-0.067588
1631018760261,-0.745237,0.653371,-0.066734
1631018760271,-0.745786,0.654713,-0.066673
1631018760281,-0.746701,0.655323,-0.065209
1631018760290,-0.747982,0.655994,-0.064233
1631018760300,-0.748348,0.655872,-0.063196
1631018760309,-0.749629,0.654408,-0.062647
1631018760319,-0.74969,0.653859,-0.061488
1631018760329,-0.747982,0.653066,-0.060024
1631018760338,-0.749202,0.651785,-0.060573
1631018760348,-0.750727,0.65331,-0.061
1631018760357,-0.7518859999999999,0.653432,-0.060634
1631018760367,-0.752862,0.653493,-0.060268
1631018760377,-0.752984,0.653554,-0.058865
1631018760386,-0.751459,0.651419,-0.059536
1631018760396,-0.7515809999999999,0.650382,-0.060207
1631018760405,-0.751032,0.648857,-0.061305
1631018760415,-0.75335,0.649772,-0.062708
1631018760425,-0.753228,0.649406,-0.063745
1631018760434,-0.752679,0.649345,-0.065331
1631018760444,-0.752435,0.648552,-0.066795
1631018760453,-0.7518859999999999,0.648857,-0.068442
1631018760463,-0.75213,0.648186,-0.068625
1631018760473,-0.751337,0.647942,-0.06954
1631018760482,-0.75091,0.647942,-0.070272
1631018760492,-0.749873,0.648796,-0.070394
1631018760501,-0.748714,0.648125,-0.07063799999999999
1631018760511,-0.747067,0.649528,-0.071614
1631018760521,-0.746213,0.648857,-0.07259
1631018760530,-0.746091,0.64965,-0.074359
1631018760540,-0.743834,0.648552,-0.07381
1631018760549,-0.743712,0.647149,-0.073932
1631018760559,-0.744444,0.64721,-0.072895
1631018760569,-0.744078,0.648857,-0.073322
1631018760578,-0.744139,0.649101,-0.071736
1631018760588,-0.743346,0.648796,-0.07063799999999999
1631018760597,-0.744932,0.65026,-0.07002799999999999
1631018760607,-0.745481,0.651236,-0.069479
1631018760617,-0.74603,0.651419,-0.067466
1631018760626,-0.745847,0.652822,-0.067527
1631018760636,-0.748165,0.652761,-0.066856
1631018760645,-0.747677,0.651175,-0.06709999999999999
1631018760655,-0.748531,0.650138,-0.068747
1631018760665,-0.750361,0.649406,-0.068991
1631018760674,-0.750483,0.649711,-0.068198
1631018760684,-0.749873,0.64965,-0.06740499999999999
1631018760693,-0.750544,0.651602,-0.066856
1631018760703,-0.750422,0.652029,-0.065636
1631018760713,-0.7506659999999999,0.653127,-0.065331
1631018760722,-0.750239,0.653493,-0.065941
1631018760732,-0.750239,0.652761,-0.064965
1631018760741,-0.748653,0.651175,-0.065636
1631018760751,-0.748897,0.649528,-0.066368
1631018760761,-0.748958,0.648003,-0.067588
1631018760770,-0.748592,0.647759,-0.068564
1631018760780,-0.749751,0.648491,-0.06954
1631018760789,-0.749812,0.649833,-0.069845
1631018760799,-0.75091,0.650138,-0.069418
1631018760809,-0.749751,0.650382,-0.069723
1631018760818,-0.749812,0.650077,-0.07094299999999999
1631018760828,-0.749324,0.650565,-0.070882
1631018760837,-0.749141,0.651968,-0.071004
1631018760847,-0.748409,0.651419,-0.071614
1631018760857,-0.748043,0.651175,-0.073139
1631018760866,-0.745481,0.648613,-0.073627
1631018760876,-0.744322,0.64721,-0.07381
1631018760885,-0.744749,0.644892,-0.075152
1631018760895,-0.744017,0.645624,-0.076616
1631018760905,-0.7442,0.6466,-0.07911699999999999
1631018760914,-0.745176,0.647454,-0.081069
1631018760924,-0.745908,0.647088,-0.081313
1631018760933,-0.745359,0.645197,-0.078934
1631018760943,-0.744322,0.645929,-0.076982
1631018760953,-0.744322,0.645868,-0.075762
1631018760962,-0.744871,0.647271,-0.075152
1631018760972,-0.74664,0.649955,-0.076921
1631018760981,-0.747799,0.650748,-0.07911699999999999
1631018760991,-0.749507,0.651846,-0.079971
1631018761001,-0.749873,0.651663,-0.079971
1631018761010,-0.74969,0.650931,-0.080276
1631018761020,-0.74847,0.650138,-0.079483
1631018761029,-0.747982,0.64904,-0.078812
1631018761039,-0.747494,0.648308,-0.077043
1631018761049,-0.747494,0.647149,-0.077348
1631018761058,-0.748592,0.648125,-0.076616
1631018761068,-0.747799,0.649528,-0.077775
1631018761077,-0.747311,0.649528,-0.078019
1631018761087,-0.747677,0.650382,-0.078995
1631018761097,-0.746152,0.648369,-0.078385
1631018761106,-0.747555,0.646966,-0.079544
1631018761116,-0.748287,0.648857,-0.079361
1631018761125,-0.747677,0.649284,-0.078629
1631018761135,-0.747799,0.650687,-0.078751
1631018761145,-0.747555,0.649528,-0.078812
1631018761154,-0.746884,0.649101,-0.0793
1631018761164,-0.746762,0.649467,-0.079666
1631018761173,-0.746945,0.647698,-0.080276
1631018761183,-0.746762,0.648674,-0.081801
1631018761193,-0.745969,0.649162,-0.081679
1631018761202,-0.746701,0.647515,-0.079849
1631018761212,-0.746518,0.647271,-0.078873
1631018761221,-0.745908,0.648674,-0.077836
1631018761231,-0.747128,0.647881,-0.077653
1631018761241,-0.748348,0.650504,-0.075762
1631018761250,-0.747982,0.65209,-0.076616
1631018761260,-0.748287,0.652761,-0.076372
1631018761269,-0.748897,0.653371,-0.075335
1631018761279,-0.747799,0.653188,-0.075152
1631018761289,-0.748409,0.653371,-0.075945
1631018761298,-0.748226,0.652456,-0.076067
1631018761308,-0.747616,0.651907,-0.077226
1631018761317,-0.747372,0.650077,-0.077287
1631018761327,-0.747372,0.650565,-0.077043
1631018761337,-0.747738,0.650321,-0.07686
1631018761346,-0.747677,0.65087,-0.07686
1631018761356,-0.746945,0.651602,-0.075884
1631018761365,-0.746152,0.650382,-0.074969
1631018761375,-0.746213,0.650382,-0.074786
1631018761385,-0.745786,0.650321,-0.07442
1631018761394,-0.745481,0.650809,-0.074603
1631018761404,-0.745542,0.650382,-0.075335
1631018761413,-0.744932,0.650504,-0.07564
1631018761423,-0.744749,0.650382,-0.07618899999999999
1631018761433,-0.745786,0.65087,-0.076433
1631018761442,-0.746396,0.650504,-0.07740899999999999
1631018761452,-0.746213,0.649772,-0.076677
1631018761461,-0.745725,0.648918,-0.07710399999999999
1631018761471,-0.745298,0.649162,-0.076982
1631018761481,-0.745054,0.648918,-0.077531
1631018761490,-0.745054,0.649162,-0.077958
1631018761500,-0.745237,0.648369,-0.078324
1631018761509,-0.745237,0.649345,-0.078202
1631018761519,-0.745603,0.649101,-0.07747
1631018761529,-0.744932,0.64843,-0.076372
1631018761538,-0.745359,0.648979,-0.075518
1631018761548,-0.74603,0.65087,-0.074847
1631018761557,-0.746701,0.651907,-0.0732
1631018761567,-0.747982,0.6527,-0.072468
1631018761577,-0.748409,0.653432,-0.072895
1631018761586,-0.748775,0.653432,-0.07259
1631018761596,-0.749019,0.653981,-0.072529
1631018761605,-0.749446,0.654347,-0.072224
1631018761615,-0.749263,0.654042,-0.072712
1631018761625,-0.748409,0.654408,-0.072285
1631018761634,-0.749568,0.654835,-0.072956
1631018761644,-0.74908,0.653615,-0.07356599999999999
1631018761653,-0.748714,0.653249,-0.073688
1631018761663,-0.747982,0.653127,-0.076311
1631018761673,-0.74969,0.6527,-0.077958
1631018761682,-0.749568,0.652639,-0.078873
1631018761692,-0.748043,0.650809,-0.077714
1631018761701,-0.745481,0.649589,-0.074725
1631018761711,-0.743956,0.647576,-0.071736
1631018761721,-0.743285,0.647088,-0.069967
1631018761730,-0.7431019999999999,0.647942,-0.07063799999999999
1631018761740,-0.744444,0.649894,-0.07076
1631018761749,-0.746457,0.651297,-0.073078
1631018761759,-0.74664,0.652334,-0.075579
1631018761769,-0.747982,0.653737,-0.07625
1631018761778,-0.747982,0.653188,-0.076433
1631018761788,-0.747677,0.651236,-0.07649399999999999
1631018761797,-0.747494,0.650626,-0.07686
1631018761807,-0.74786,0.649894,-0.076738
1631018761817,-0.747616,0.649284,-0.076555
1631018761826,-0.746457,0.649711,-0.077958
1631018761836,-0.745847,0.648674,-0.079666
1631018761845,-0.745847,0.64843,-0.081374
1631018761855,-0.746396,0.648186,-0.081374
1631018761865,-0.746091,0.64904,-0.08174
1631018761874,-0.746396,0.650443,-0.081374
1631018761884,-0.746457,0.651663,-0.081313
1631018761893,-0.746945,0.65331,-0.080398
1631018761903,-0.747677,0.653798,-0.079361
1631018761913,-0.746091,0.653798,-0.079361
1631018761922,-0.744566,0.65209,-0.07808
1631018761932,-0.744505,0.652212,-0.079056
1631018761941,-0.746274,0.652944,-0.079178
1631018761951,-0.745786,0.654347,-0.0793
1631018761961,-0.746335,0.656238,-0.07618899999999999
1631018761970,-0.74603,0.658434,-0.07387099999999999
1631018761980,-0.746396,0.6609349999999999,-0.071675
1631018761989,-0.746884,0.661728,-0.068869
1631018761999,-0.74725,0.662948,-0.064721
1631018762009,-0.748104,0.664168,-0.063745
1631018762018,-0.748287,0.664839,-0.063745
1631018762028,-0.748165,0.663802,-0.062159
1631018762037,-0.748348,0.664473,-0.062647
1631018762047,-0.749568,0.665571,-0.06222
1631018762057,-0.750422,0.666059,-0.062037
1631018762066,-0.749629,0.665998,-0.063013
1631018762076,-0.748653,0.664168,-0.063867
1631018762085,-0.74725,0.662399,-0.066368
1631018762095,-0.744688,0.658617,-0.067466
1631018762105,-0.742004,0.653432,-0.068259
1631018762114,-0.742919,0.651602,-0.070577
1631018762124,-0.742919,0.652273,-0.073444
1631018762133,-0.744871,0.652639,-0.077226
1631018762143,-0.74908,0.655872,-0.081008
1631018762153,-0.745786,0.655689,-0.084058
1631018762162,-0.7418819999999999,0.650809,-0.088877
1631018762172,-0.740906,0.64843,-0.094428
1631018762181,-0.741699,0.645807,-0.093574
1631018762191,-0.74054,0.646112,-0.097539
1631018762201,-0.7376119999999999,0.641842,-0.09516
1631018762210,-0.7381,0.641964,-0.095099
1631018762220,-0.741638,0.6414759999999999,-0.096502
1631018762229,-0.745176,0.645319,-0.099552
1631018762239,-0.747494,0.64721,-0.101565
1631018762249,-0.747921,0.648125,-0.104188
1631018762258,-0.746945,0.645563,-0.102724
1631018762268,-0.746213,0.6417809999999999,-0.101199
1631018762277,-0.752252,0.641049,-0.10437099999999999
1631018762287,-0.755058,0.641415,-0.109373
1631018762297,-0.752008,0.6433059999999999,-0.112606
1631018762306,-0.755485,0.646173,-0.112301
1631018762316,-0.759267,0.650626,-0.110166
1631018762325,-0.75884,0.651358,-0.10699399999999999
1631018762335,-0.75518,0.648125,-0.103822
1631018762345,-0.754082,0.6442209999999999,-0.100406
1631018762354,-0.7528009999999999,0.6411709999999999,-0.099186
1631018762364,-0.75518,0.638853,-0.101504
1631018762373,-0.75884,0.635925,-0.108275
1631018762383,-0.759877,0.634034,-0.11547299999999999
1631018762393,-0.757254,0.630679,-0.117974
1631018762402,-0.754753,0.626104,-0.12139
1631018762412,-0.752984,0.620919,-0.127734
1631018762421,-0.751032,0.615673,-0.132065
1631018762431,-0.748531,0.616161,-0.13602999999999998
1631018762441,-0.749995,0.6159169999999999,-0.137616
1631018762450,-0.750422,0.6153069999999999,-0.140239
1631018762460,-0.752862,0.613416,-0.144997
1631018762469,-0.7531059999999999,0.610488,-0.14945
1631018762479,-0.754753,0.609085,-0.149572
1631018762489,-0.7567659999999999,0.608475,-0.152317
1631018762498,-0.75823,0.606645,-0.154086
1631018762508,-0.759999,0.605974,-0.150304
1631018762517,-0.762378,0.604937,-0.143594
1631018762527,-0.769454,0.606584,-0.144509
1631018762537,-0.777628,0.6101219999999999,-0.150487
1631018762546,-0.784094,0.6168319999999999,-0.163114
1631018762556,-0.788608,0.624335,-0.174704
1631018762565,-0.7868999999999999,0.623969,-0.181475
1631018762575,-0.782996,0.619455,-0.185867
1631018762585,-0.780739,0.618113,-0.188246
1631018762594,-0.777201,0.616588,-0.187514
1631018762604,-0.774395,0.612684,-0.184159
1631018762613,-0.774334,0.6134769999999999,-0.181048
1631018762623,-0.772077,0.61122,-0.177876
1631018762633,-0.770552,0.609451,-0.179035
1631018762642,-0.768966,0.604876,-0.180194
1631018762652,-0.76677,0.602314,-0.178669
1631018762661,-0.764757,0.598898,-0.181841
1631018762671,-0.7631709999999999,0.595665,-0.183244
1631018762681,-0.765977,0.598044,-0.185257
1631018762690,-0.765794,0.598959,-0.18727
1631018762700,-0.76067,0.596519,-0.187209
1631018762709,-0.756339,0.592981,-0.187148
1631018762719,-0.75335,0.591517,-0.188063
1631018762729,-0.753472,0.591334,-0.189771
1631018762738,-0.757498,0.592676,-0.193858
1631018762748,-0.751032,0.591822,-0.198494
1631018762757,-0.747616,0.592676,-0.204716
1631018762767,-0.748409,0.5952379999999999,-0.212219
1631018762777,-0.74786,0.596702,-0.216367
1631018762786,-0.744932,0.598288,-0.217648
1631018762796,-0.7406619999999999,0.600972,-0.217221
1631018762805,-0.738405,0.603778,-0.217282
1631018762815,-0.736575,0.608048,-0.22021
1631018762825,-0.737551,0.6092069999999999,-0.223443
1631018762834,-0.742126,0.613965,-0.223809
1631018762844,-0.7442,0.615429,-0.22197899999999998
1631018762853,-0.744871,0.6180519999999999,-0.217404
1631018762863,-0.744139,0.620431,-0.216672
1631018762873,-0.740174,0.623725,-0.216977
1631018762882,-0.735843,0.62464,-0.220942
1631018762892,-0.738893,0.62586,-0.227896
1631018762901,-0.744139,0.626409,-0.22942099999999999
1631018762911,-0.748287,0.627202,-0.226432
1631018762921,-0.751093,0.627324,-0.225822
1631018762930,-0.748897,0.625799,-0.224541
1631018762940,-0.748958,0.623298,-0.225212
1631018762949,-0.753533,0.621956,-0.223382
1631018762959,-0.755424,0.623054,-0.22136899999999998
1631018762969,-0.75823,0.620736,-0.216672
1631018762978,-0.763232,0.6192719999999999,-0.210206
1631018762988,-0.765672,0.618601,-0.204838
1631018762997,-0.765062,0.616344,-0.19580999999999998
1631018763007,-0.7604259999999999,0.610915,-0.186721
1631018763017,-0.754814,0.603168,-0.17824199999999998
1631018763026,-0.7549359999999999,0.601338,-0.17732699999999998
1631018763036,-0.757742,0.604266,-0.17915699999999998
1631018763045,-0.76128,0.608231,-0.18226799999999999
1631018763055,-0.764513,0.612013,-0.18440299999999998
1631018763065,-0.764635,0.6134769999999999,-0.186965
1631018763074,-0.762683,0.615124,-0.19117399999999998
1631018763084,-0.7601209999999999,0.6156119999999999,-0.194346
1631018763093,-0.755302,0.615063,-0.198433
1631018763103,-0.752069,0.6140869999999999,-0.205143
1631018763113,-0.75091,0.613843,-0.209596
1631018763122,-0.750483,0.615246,-0.210267
1631018763132,-0.74847,0.6168319999999999,-0.208986
1631018763141,-0.746396,0.6162219999999999,-0.204289
1631018763151,-0.743285,0.614209,-0.19702999999999998
1631018763161,-0.74115,0.611769,-0.189588
1631018763170,-0.73993,0.6125619999999999,-0.183976
1631018763180,-0.739869,0.613294,-0.181597
1631018763189,-0.740174,0.616466,-0.179828
1631018763199,-0.738771,0.617198,-0.181414
1631018763209,-0.735843,0.616649,-0.186843
1631018763218,-0.734379,0.615795,-0.196237
1631018763228,-0.73383,0.613233,-0.201788
1631018763237,-0.738161,0.614026,-0.21228
1631018763247,-0.742004,0.61366,-0.22143
1631018763257,-0.744017,0.611891,-0.22722499999999998
1631018763266,-0.747006,0.6104269999999999,-0.231129
1631018763276,-0.749263,0.610305,-0.23302
1631018763285,-0.7512759999999999,0.60817,-0.22972599999999999
1631018763295,-0.752374,0.603717,-0.22265
1631018763305,-0.753472,0.59841,-0.21801399999999999
1631018763314,-0.757437,0.595909,-0.21612299999999998
1631018763324,-0.760487,0.598654,-0.216916
1631018763333,-0.763842,0.599386,-0.217404
1631018763343,-0.766648,0.599142,-0.216794
1631018763353,-0.767929,0.5964579999999999,-0.22021
1631018763362,-0.769637,0.592005,-0.224602
1631018763372,-0.771772,0.586576,-0.224907
1631018763381,-0.7750049999999999,0.581269,-0.21831899999999999
1631018763391,-0.7783599999999999,0.571936,-0.20630199999999999
1631018763401,-0.7795799999999999,0.549854,-0.191906
1631018763410,-0.782142,0.519354,-0.183427
1631018763420,-0.784826,0.507886,-0.18379299999999998
1631018763429,-0.788791,0.513437,-0.197213
1631018763439,-0.792451,0.530944,-0.218441
1631018763449,-0.793976,0.551745,-0.236619
1631018763458,-0.794159,0.569252,-0.251198
1631018763468,-0.795867,0.583831,-0.267302
1631018763477,-0.7991,0.593469,-0.272304
1631018763487,-0.799893,0.599569,-0.26992499999999997
1631018763497,-0.796599,0.599203,-0.260165
1631018763506,-0.796782,0.597861,-0.244549
1631018763516,-0.795989,0.595299,-0.229055
1631018763525,-0.794769,0.59231,-0.215757
1631018763535,-0.794159,0.591151,-0.205326
1631018763545,-0.793244,0.590602,-0.195261
1631018763554,-0.7899499999999999,0.5888329999999999,-0.188917
1631018763564,-0.786534,0.5873079999999999,-0.186233
1631018763573,-0.784948,0.588467,-0.187026
1631018763583,-0.784704,0.590419,-0.189222
1631018763593,-0.7872049999999999,0.592066,-0.191662
1631018763602,-0.786717,0.591212,-0.194651
1631018763612,-0.783911,0.590846,-0.19611499999999998
1631018763621,-0.7795799999999999,0.588284,-0.198433
1631018763631,-0.777262,0.585539,-0.202032
1631018763641,-0.775859,0.583038,-0.203862
1631018763650,-0.773236,0.579012,-0.2074
1631018763660,-0.770979,0.575779,-0.210816
1631018763669,-0.768844,0.571631,-0.217404
1631018763679,-0.770064,0.567666,-0.22356499999999999
1631018763689,-0.770979,0.5669339999999999,-0.230458
1631018763698,-0.769149,0.565897,-0.236924
1631018763708,-0.767014,0.564067,-0.241072
1631018763717,-0.761402,0.564616,-0.24156
1631018763727,-0.757132,0.5647989999999999,-0.239486
1631018763737,-0.75579,0.568032,-0.23619199999999999
1631018763746,-0.755363,0.5734,-0.233813
1631018763756,-0.7543259999999999,0.577731,-0.23094599999999998
1631018763765,-0.748958,0.581086,-0.229848
1631018763775,-0.747677,0.584014,-0.227042
1631018763785,-0.747128,0.586332,-0.22356499999999999
1631018763794,-0.745664,0.587247,-0.221186
1631018763804,-0.745664,0.5885279999999999,-0.217892
1631018763813,-0.749141,0.592676,-0.21551299999999998
1631018763823,-0.752374,0.596946,-0.213561
1631018763833,-0.75457,0.601033,-0.210877
1631018763842,-0.75884,0.60939,-0.20843699999999998
1631018763852,-0.762012,0.616466,-0.203618
1631018763861,-0.764635,0.62098,-0.198616
1631018763871,-0.765672,0.622261,-0.19458999999999999
1631018763881,-0.7665259999999999,0.621834,-0.190808
1631018763890,-0.765672,0.6198819999999999,-0.189771
1631018763900,-0.764818,0.617625,-0.190503
1631018763909,-0.763964,0.615673,-0.190015
1631018763919,-0.763049,0.613416,-0.189405
1631018763929,-0.760975,0.610976,-0.18781899999999999
1631018763938,-0.762134,0.6089019999999999,-0.187636
1631018763948,-0.76311,0.608414,-0.185562
1631018763957,-0.7625609999999999,0.60451,-0.182756
1631018763967,-0.76189,0.602436,-0.179523
1631018763977,-0.762317,0.60146,-0.177571
1631018763986,-0.7622559999999999,0.599691,-0.175314
1631018763996,-0.762622,0.599264,-0.175314
1631018764005,-0.765489,0.601765,-0.17580199999999999
1631018764015,-0.771162,0.603351,-0.174765
1631018764025,-0.773114,0.604266,-0.175558
1631018764034,-0.772321,0.603046,-0.175619
1631018764044,-0.770003,0.59963,-0.176168
1631018764053,-0.769759,0.597678,-0.176046
1631018764063,-0.771162,0.597739,-0.176839
1631018764073,-0.772626,0.596946,-0.17824199999999998
1631018764082,-0.771467,0.594689,-0.178364
1631018764092,-0.771772,0.591334,-0.177693
1631018764101,-0.772992,0.591212,-0.178425
1631018764111,-0.774334,0.5900529999999999,-0.179218
1631018764121,-0.77409,0.5900529999999999,-0.182085
1631018764130,-0.776164,0.5912729999999999,-0.186416
1631018764140,-0.777994,0.595604,-0.190686
1631018764149,-0.779458,0.599447,-0.194773
1631018764159,-0.778787,0.602985,-0.19672499999999998
1631018764169,-0.777323,0.606462,-0.200019
1631018764178,-0.7765299999999999,0.607926,-0.20227599999999998
1631018764188,-0.7759199999999999,0.6089019999999999,-0.203252
1631018764197,-0.774944,0.608475,-0.204411
1631018764207,-0.773602,0.6092069999999999,-0.204777
1631018764217,-0.771711,0.608963,-0.205204
1631018764226,-0.769637,0.606828,-0.203923
1631018764236,-0.767014,0.60634,-0.203984
1631018764245,-0.763232,0.605486,-0.201117
1631018764255,-0.76067,0.604815,-0.199531
1631018764265,-0.759694,0.606645,-0.197701
1631018764274,-0.75945,0.6089019999999999,-0.197213
1631018764284,-0.757315,0.6092069999999999,-0.194956
1631018764293,-0.756034,0.6092069999999999,-0.195383
1631018764303,-0.7564609999999999,0.61,-0.195444
1631018764313,-0.755912,0.6110369999999999,-0.195383
1631018764322,-0.756827,0.611769,-0.19519999999999998
1631018764332,-0.757254,0.613294,-0.195017
1631018764341,-0.757254,0.614819,-0.19550499999999998
1631018764351,-0.755729,0.61488,-0.194468
1631018764361,-0.755302,0.617259,-0.194468
1631018764370,-0.7537159999999999,0.61671,-0.194651
1631018764380,-0.7540209999999999,0.619211,-0.195932
1631018764389,-0.753167,0.61976,-0.196969
1631018764399,-0.7521909999999999,0.620858,-0.196176
1631018764409,-0.752008,0.62342,-0.196176
1631018764418,-0.750056,0.624274,-0.19672499999999998
1631018764428,-0.747616,0.624152,-0.19550499999999998
1631018764437,-0.745664,0.625433,-0.195139
1631018764447,-0.745237,0.625921,-0.195871
1631018764457,-0.744444,0.627263,-0.195627
1631018764466,-0.743224,0.627507,-0.196481
1631018764476,-0.7431019999999999,0.626836,-0.19702999999999998
1631018764485,-0.7415769999999999,0.626653,-0.197518
1631018764495,-0.73871,0.624213,-0.196176
1631018764505,-0.738161,0.621529,-0.195627
1631018764514,-0.738893,0.6195769999999999,-0.195261
1631018764524,-0.738344,0.618723,-0.192699
1631018764533,-0.7379169999999999,0.618296,-0.189527
1631018764543,-0.739503,0.616954,-0.186294
1631018764553,-0.741638,0.6171369999999999,-0.18361
1631018764562,-0.745359,0.617381,-0.18239
1631018764572,-0.748104,0.618235,-0.180987
1631018764581,-0.750117,0.6177469999999999,-0.180621
1631018764591,-0.7521909999999999,0.617625,-0.179828
1631018764601,-0.753899,0.616893,-0.178059
1631018764610,-0.756095,0.615551,-0.176839
1631018764620,-0.75701,0.6153069999999999,-0.176534
1631018764629,-0.75823,0.6131719999999999,-0.17671699999999999
1631018764639,-0.758413,0.610488,-0.175192
1631018764649,-0.760182,0.608414,-0.174033
1631018764658,-0.76311,0.607377,-0.174277
1631018764668,-0.765855,0.607316,-0.174033
1631018764677,-0.768112,0.608475,-0.174582
1631018764687,-0.768539,0.609756,-0.176168
1631018764697,-0.767563,0.609573,-0.177266
1631018764706,-0.767258,0.609085,-0.176656
1631018764716,-0.767624,0.6082919999999999,-0.177144
1631018764725,-0.768173,0.6092069999999999,-0.1769
1631018764735,-0.767502,0.609451,-0.177083
1631018764745,-0.767807,0.611403,-0.176778
1631018764754,-0.768356,0.610976,-0.178425
1631018764764,-0.769088,0.612074,-0.18257299999999999
1631018764773,-0.76677,0.611281,-0.185562
1631018764783,-0.7659159999999999,0.609695,-0.187392
1631018764793,-0.763964,0.609146,-0.187514
1631018764802,-0.762683,0.609268,-0.187087
1631018764812,-0.7628659999999999,0.609634,-0.186233
1631018764821,-0.761219,0.610793,-0.18483
1631018764831,-0.760487,0.6104269999999999,-0.18318299999999998
1631018764841,-0.76006,0.611281,-0.18239
1631018764850,-0.759633,0.6122569999999999,-0.181231
1631018764860,-0.7579859999999999,0.61427,-0.180804
1631018764869,-0.7585959999999999,0.614636,-0.180621
1631018764879,-0.7579859999999999,0.615063,-0.180621
1631018764889,-0.758047,0.615734,-0.180804
1631018764898,-0.759938,0.616466,-0.18287799999999999
1631018764908,-0.7595109999999999,0.617503,-0.18348799999999998
1631018764917,-0.759938,0.617015,-0.183732
1631018764927,-0.758108,0.617625,-0.181536
1631018764937,-0.7576809999999999,0.616039,-0.181841
1631018764946,-0.757803,0.616161,-0.180804
1631018764956,-0.75701,0.6162219999999999,-0.180804
1631018764965,-0.757742,0.616283,-0.180621
1631018764975,-0.757498,0.615734,-0.180316
1631018764985,-0.7561559999999999,0.615185,-0.17934
1631018764994,-0.7558509999999999,0.613721,-0.177754
1631018765004,-0.75579,0.614575,-0.177693
1631018765013,-0.755729,0.616588,-0.17934
1631018765023,-0.756095,0.616649,-0.178791
1631018765033,-0.756522,0.617808,-0.179096
1631018765042,-0.7564,0.6177469999999999,-0.178608
1631018765052,-0.754875,0.617015,-0.177815
1631018765061,-0.7549359999999999,0.616588,-0.176961
1631018765071,-0.756278,0.6171369999999999,-0.17671699999999999
1631018765081,-0.7561559999999999,0.616649,-0.17812
1631018765090,-0.7558509999999999,0.617808,-0.176839
1631018765100,-0.756034,0.619333,-0.177815
1631018765109,-0.7573759999999999,0.620248,-0.177083
1631018765119,-0.756644,0.622261,-0.175192
1631018765129,-0.756583,0.621346,-0.174643
1631018765138,-0.7558509999999999,0.621163,-0.173179
1631018765148,-0.7555459999999999,0.621346,-0.171898
1631018765157,-0.7549359999999999,0.621895,-0.170312
1631018765167,-0.7549359999999999,0.6207969999999999,-0.169092
1631018765177,-0.756278,0.620858,-0.169824
1631018765186,-0.754875,0.6198819999999999,-0.171654
1631018765196,-0.7540209999999999,0.618784,-0.174216
1631018765205,-0.756034,0.617991,-0.176168
1631018765215,-0.7570709999999999,0.618418,-0.174765
1631018765225,-0.756034,0.618174,-0.171227
1631018765234,-0.756034,0.616344,-0.168116
1631018765244,-0.756583,0.616893,-0.165859
1631018765253,-0.757498,0.6201869999999999,-0.164822
1631018765263,-0.758108,0.62159,-0.16348
1631018765273,-0.759572,0.623908,-0.164334
1631018765282,-0.7595109999999999,0.624396,-0.165554
1631018765292,-0.760853,0.622627,-0.166042
1631018765301,-0.759633,0.6207969999999999,-0.16683499999999998
1631018765311,-0.758474,0.618296,-0.166713
1631018765321,-0.758047,0.616466,-0.16897
1631018765330,-0.758474,0.6156119999999999,-0.170678
1631018765340,-0.7601209999999999,0.616466,-0.171349
1631018765349,-0.762012,0.617259,-0.171532
1631018765359,-0.7625609999999999,0.618418,-0.171654
1631018765369,-0.762805,0.618296,-0.171837
1631018765378,-0.763232,0.617564,-0.170922
1631018765388,-0.762378,0.61854,-0.171227
1631018765397,-0.7619509999999999,0.617991,-0.169885
1631018765407,-0.761585,0.61732,-0.168421
1631018765417,-0.760182,0.615856,-0.168848
1631018765426,-0.758169,0.613721,-0.17019
1631018765436,-0.756888,0.612684,-0.170983
1631018765445,-0.7564,0.610244,-0.172752
1631018765455,-0.757437,0.612318,-0.175375
1631018765465,-0.757254,0.612379,-0.176351
1631018765474,-0.756888,0.61244,-0.176961
1631018765484,-0.757193,0.6140869999999999,-0.17568
1631018765493,-0.757132,0.615429,-0.175253
1631018765503,-0.7576809999999999,0.61671,-0.174216
1631018765513,-0.759389,0.620248,-0.173972
1631018765522,-0.759267,0.622566,-0.17324
1631018765532,-0.758657,0.623359,-0.172752
1631018765541,-0.758169,0.622566,-0.172752
1631018765551,-0.756583,0.622139,-0.17299599999999998
1631018765561,-0.7561559999999999,0.621468,-0.173484
1631018765570,-0.755729,0.620614,-0.174826
1631018765580,-0.7552409999999999,0.6204919999999999,-0.175436
1631018765589,-0.753777,0.620248,-0.176046
1631018765599,-0.753838,0.620919,-0.175985
1631018765609,-0.753655,0.622139,-0.176168
1631018765618,-0.753167,0.622261,-0.17568
1631018765628,-0.750788,0.622566,-0.174826
1631018765637,-0.750178,0.622261,-0.173179
1631018765647,-0.749812,0.622078,-0.173179
1631018765657,-0.749263,0.621468,-0.173423
1631018765666,-0.750239,0.621224,-0.17360599999999998
1631018765676,-0.749568,0.6211019999999999,-0.172874
1631018765685,-0.750178,0.621529,-0.172752
1631018765695,-0.751337,0.621956,-0.17299599999999998
1631018765705,-0.750849,0.622566,-0.171593
1631018765714,-0.7518859999999999,0.623359,-0.17055599999999999
1631018765724,-0.752252,0.623664,-0.170739
1631018765733,-0.7524959999999999,0.623603,-0.170983
1631018765743,-0.753472,0.622749,-0.17019
1631018765753,-0.7537159999999999,0.621285,-0.170068
1631018765762,-0.75335,0.622505,-0.168787
1631018765772,-0.753472,0.622566,-0.168482
1631018765781,-0.755119,0.621895,-0.16836
1631018765791,-0.755607,0.622444,-0.166652
1631018765801,-0.755607,0.622383,-0.164578
1631018765810,-0.755973,0.623847,-0.165127
1631018765820,-0.756339,0.623969,-0.165371
1631018765829,-0.756827,0.622871,-0.16530999999999998
1631018765839,-0.757315,0.622261,-0.165676
1631018765849,-0.760975,0.623603,-0.166408
1631018765858,-0.7637809999999999,0.624823,-0.16836
1631018765868,-0.765489,0.626226,-0.16744499999999998
1631018765877,-0.76616,0.627202,-0.16683499999999998
1631018765887,-0.765123,0.628056,-0.165798
1631018765897,-0.764818,0.625189,-0.16561499999999998
1631018765906,-0.7659159999999999,0.624457,-0.167079
1631018765916,-0.765733,0.625433,-0.169275
1631018765925,-0.7646959999999999,0.624762,-0.171898
1631018765935,-0.763293,0.621834,-0.17299599999999998
1631018765945,-0.762439,0.619211,-0.17299599999999998
1631018765954,-0.759633,0.619211,-0.169153
1631018765964,-0.7582909999999999,0.6183569999999999,-0.166042
1631018765973,-0.7585959999999999,0.619028,-0.164273
1631018765983,-0.757559,0.620736,-0.163724
1631018765993,-0.756949,0.622566,-0.163907
1631018766002,-0.7555459999999999,0.621895,-0.165981
1631018766012,-0.754509,0.621468,-0.168238
1631018766021,-0.753289,0.619821,-0.171532
1631018766031,-0.751703,0.617869,-0.172874
1631018766041,-0.749019,0.6165269999999999,-0.1708
1631018766050,-0.746945,0.61488,-0.169153
1631018766060,-0.746518,0.615856,-0.170617
1631018766069,-0.746396,0.61732,-0.170678
1631018766079,-0.746396,0.618418,-0.172325
1631018766089,-0.746518,0.621712,-0.174033
1631018766098,-0.74786,0.623786,-0.174765
1631018766108,-0.747982,0.625128,-0.176229
1631018766117,-0.747128,0.623542,-0.17507
1631018766127,-0.746152,0.623298,-0.174521
1631018766137,-0.745237,0.622627,-0.173179
1631018766146,-0.742126,0.621895,-0.170373
1631018766156,-0.7403569999999999,0.621468,-0.167689
1631018766165,-0.738649,0.62098,-0.16591999999999998
1631018766175,-0.736453,0.619638,-0.162748
1631018766185,-0.735599,0.6211019999999999,-0.16097899999999998
1631018766194,-0.736453,0.621712,-0.16104
1631018766204,-0.738344,0.623664,-0.16128399999999998
1631018766213,-0.739869,0.625311,-0.161345
1631018766223,-0.7400519999999999,0.625616,-0.160003
1631018766233,-0.741211,0.62708,-0.158661
1631018766242,-0.743834,0.630496,-0.16006399999999998
1631018766252,-0.747311,0.6329359999999999,-0.161528
1631018766261,-0.749263,0.633973,-0.16408999999999999
1631018766271,-0.748165,0.631838,-0.165676
1631018766281,-0.74603,0.630862,-0.165493
1631018766290,-0.747677,0.630435,-0.165859
1631018766300,-0.75274,0.634095,-0.169214
1631018766309,-0.757559,0.637328,-0.171105
1631018766319,-0.760182,0.640805,-0.1708
1631018766329,-0.762012,0.64416,-0.170373
1631018766338,-0.76433,0.646905,-0.172264
1631018766348,-0.764574,0.646539,-0.17299599999999998
1631018766357,-0.763232,0.644587,-0.173789
1631018766367,-0.760487,0.642208,-0.174155
1631018766377,-0.758352,0.638243,-0.174826
1631018766386,-0.7506659999999999,0.632814,-0.171349
1631018766396,-0.747189,0.627812,-0.16775
1631018766405,-0.749812,0.625555,-0.171288
1631018766415,-0.7543259999999999,0.624579,-0.177266
1631018766425,-0.756278,0.624335,-0.180987
1631018766434,-0.75457,0.62281,-0.177571
1631018766444,-0.753594,0.620248,-0.173972
1631018766453,-0.752618,0.616649,-0.17385
1631018766463,-0.751093,0.609756,-0.17324
1631018766473,-0.750178,0.60329,-0.173728
1631018766482,-0.748653,0.597983,-0.174216
1631018766492,-0.748165,0.5934079999999999,-0.174765
1631018766501,-0.751215,0.593469,-0.174704
1631018766511,-0.754143,0.592676,-0.175009
1631018766521,-0.756949,0.593652,-0.174948
1631018766530,-0.7625,0.596275,-0.173667
1631018766540,-0.765977,0.598776,-0.173423
1631018766549,-0.771894,0.602375,-0.174704
1631018766559,-0.774944,0.60512,-0.173484
1631018766569,-0.7753099999999999,0.604815,-0.17147099999999998
1631018766578,-0.7765299999999999,0.60146,-0.169092
1631018766588,-0.7783599999999999,0.601948,-0.171715
1631018766597,-0.779946,0.602924,-0.175558
1631018766607,-0.780861,0.604388,-0.180682
1631018766617,-0.778482,0.603778,-0.182451
1631018766626,-0.776286,0.603778,-0.18318299999999998
1631018766636,-0.775371,0.602619,-0.184891
1631018766645,-0.774151,0.601338,-0.183854
1631018766655,-0.773053,0.601094,-0.18361
1631018766665,-0.772199,0.601216,-0.180316
1631018766674,-0.770857,0.601033,-0.177571
1631018766684,-0.768661,0.601826,-0.174338
1631018766693,-0.768173,0.603107,-0.17385
1631018766703,-0.767624,0.603656,-0.172813
1631018766713,-0.767258,0.602619,-0.172508
1631018766722,-0.76494,0.601704,-0.16994599999999999
1631018766732,-0.762744,0.602619,-0.16713999999999998
1631018766741,-0.763232,0.604022,-0.166042
1631018766751,-0.7640859999999999,0.60573,-0.165981
1631018766761,-0.76433,0.609634,-0.167079
1631018766770,-0.765855,0.614331,-0.167384
1631018766780,-0.7662209999999999,0.619089,-0.166774
1631018766789,-0.7665259999999999,0.623054,-0.166408
1631018766799,-0.765672,0.624884,-0.16622499999999998
1631018766809,-0.763598,0.62403,-0.16713999999999998
1631018766818,-0.76128,0.623237,-0.166896
1631018766828,-0.760914,0.623786,-0.167262
1631018766837,-0.759267,0.624762,-0.167567
1631018766847,-0.757864,0.626531,-0.169763
1631018766857,-0.755668,0.627385,-0.171227
1631018766866,-0.754692,0.629276,-0.17238599999999998
1631018766876,-0.7531059999999999,0.631411,-0.173484
1631018766885,-0.752252,0.631289,-0.175253
1631018766895,-0.751032,0.63135,-0.174704
1631018766905,-0.750178,0.629947,-0.17324
1631018766914,-0.749324,0.62952,-0.171837
1631018766924,-0.746701,0.628483,-0.17263
1631018766933,-0.745298,0.625738,-0.173484
1631018766943,-0.744444,0.624152,-0.174216
1631018766953,-0.744871,0.622017,-0.174948
1631018766962,-0.745115,0.621285,-0.176229
1631018766972,-0.747311,0.621468,-0.175619
1631018766981,-0.747006,0.622444,-0.174704
1631018766991,-0.749751,0.623786,-0.173484
1631018767001,-0.750849,0.623176,-0.172142
1631018767010,-0.751093,0.6214069999999999,-0.170068
1631018767020,-0.751825,0.619211,-0.168177
1631018767029,-0.7534109999999999,0.6183569999999999,-0.167994
1631018767039,-0.75396,0.6165269999999999,-0.16744499999999998
1631018767049,-0.754814,0.615551,-0.16744499999999998
1631018767058,-0.7576809999999999,0.614819,-0.168543
1631018767068,-0.760487,0.615795,-0.168604
1631018767077,-0.761524,0.615429,-0.169702
1631018767087,-0.763232,0.614819,-0.17019
1631018767097,-0.764818,0.613538,-0.170434
1631018767106,-0.765123,0.6125619999999999,-0.170434
1631018767116,-0.76616,0.612074,-0.170739
1631018767125,-0.767014,0.610244,-0.172203
1631018767135,-0.768112,0.609695,-0.17360599999999998
1631018767145,-0.769515,0.60939,-0.174216
1631018767154,-0.770247,0.610183,-0.17507
1631018767164,-0.77043,0.609695,-0.175558
1631018767173,-0.76982,0.6101219999999999,-0.17580199999999999
1631018767183,-0.769881,0.610183,-0.175192
1631018767193,-0.7686,0.610366,-0.173789
1631018767202,-0.7686,0.612745,-0.172447
1631018767212,-0.767563,0.612318,-0.171044
1631018767221,-0.766709,0.6128669999999999,-0.170068
1631018767231,-0.766404,0.6128669999999999,-0.17055599999999999
1631018767241,-0.765184,0.6122569999999999,-0.17141
1631018767250,-0.76311,0.6119519999999999,-0.17177599999999998
1631018767260,-0.763842,0.61244,-0.172569
1631018767269,-0.764818,0.61244,-0.174887
1631018767279,-0.767014,0.612684,-0.176839
1631018767289,-0.7674409999999999,0.612806,-0.178486
1631018767298,-0.7659159999999999,0.612806,-0.180011
1631018767308,-0.765062,0.611891,-0.18056
1631018767317,-0.76189,0.6085969999999999,-0.179889
1631018767327,-0.757864,0.604449,-0.17934
1631018767337,-0.754265,0.602619,-0.178364
1631018767346,-0.753472,0.601216,-0.177693
1631018767356,-0.752618,0.601338,-0.17610699999999999
1631018767365,-0.754204,0.602924,-0.175558
1631018767375,-0.755302,0.605364,-0.174765
1631018767385,-0.757498,0.608658,-0.172508
1631018767394,-0.758535,0.610915,-0.171837
1631018767404,-0.7601209999999999,0.613111,-0.169763
1631018767413,-0.761097,0.615368,-0.168787
1631018767423,-0.7625,0.617259,-0.167018
1631018767433,-0.7625,0.617869,-0.166164
1631018767442,-0.762439,0.617564,-0.165432
1631018767452,-0.76128,0.616954,-0.167079
1631018767461,-0.7610359999999999,0.615551,-0.169641
1631018767471,-0.76067,0.6150019999999999,-0.173911
1631018767481,-0.762012,0.612989,-0.175741
1631018767490,-0.7622559999999999,0.612074,-0.176168
1631018767500,-0.763232,0.612135,-0.174338
1631018767509,-0.761768,0.612806,-0.170678
1631018767519,-0.760914,0.612196,-0.16775
1631018767529,-0.7604259999999999,0.614026,-0.166469
1631018767538,-0.76006,0.615246,-0.165249
1631018767548,-0.76189,0.6183569999999999,-0.165188
1631018767557,-0.7625609999999999,0.620309,-0.16561499999999998
1631018767567,-0.762805,0.620614,-0.164517
1631018767577,-0.7625609999999999,0.620004,-0.163236
1631018767586,-0.7628659999999999,0.619638,-0.16348
1631018767596,-0.761829,0.6177469999999999,-0.163907
1631018767605,-0.761524,0.61732,-0.162687
1631018767615,-0.760548,0.6161,-0.163846
1631018767625,-0.7592059999999999,0.616466,-0.164029
1631018767634,-0.759633,0.617259,-0.165554
1631018767644,-0.75884,0.6174419999999999,-0.166469
1631018767653,-0.7592059999999999,0.616771,-0.167079
1631018767663,-0.758169,0.615734,-0.167994
1631018767673,-0.757742,0.61427,-0.169336
1631018767682,-0.7579859999999999,0.6131719999999999,-0.170434
1631018767692,-0.760182,0.61427,-0.171898
1631018767701,-0.758718,0.6140869999999999,-0.171654
1631018767711,-0.758474,0.613111,-0.171044
1631018767721,-0.759877,0.613599,-0.172264
1631018767730,-0.761158,0.615795,-0.173179
1631018767740,-0.7619509999999999,0.616466,-0.173362
1631018767749,-0.761097,0.617503,-0.172325
1631018767759,-0.760487,0.616283,-0.170983
1631018767769,-0.759328,0.616039,-0.169275
1631018767778,-0.757925,0.615368,-0.169214
1631018767788,-0.758413,0.613904,-0.169519
1631018767797,-0.758474,0.613904,-0.169336
1631018767807,-0.75884,0.6150019999999999,-0.17025099999999999
1631018767817,-0.759938,0.614209,-0.170922
1631018767826,-0.7598159999999999,0.614331,-0.171532
1631018767836,-0.760792,0.614331,-0.171105
1631018767845,-0.761158,0.6137819999999999,-0.169885
1631018767855,-0.760365,0.613965,-0.170495
1631018767865,-0.762012,0.614209,-0.171105
1631018767874,-0.7628659999999999,0.6165269999999999,-0.17324
1631018767884,-0.765367,0.616405,-0.17507
1631018767893,-0.765062,0.616893,-0.175009
1631018767903,-0.7653059999999999,0.615368,-0.175497
1631018767913,-0.764757,0.614331,-0.175924
1631018767922,-0.763293,0.612623,-0.175497
1631018767932,-0.7625,0.611464,-0.175558
1631018767941,-0.7604259999999999,0.610244,-0.175985
1631018767951,-0.760548,0.609634,-0.175436
1631018767961,-0.7616459999999999,0.609573,-0.175314
1631018767970,-0.762073,0.609878,-0.174033
1631018767980,-0.7619509999999999,0.6110369999999999,-0.173972
1631018767989,-0.762439,0.6113419999999999,-0.174338
1631018767999,-0.76189,0.6110369999999999,-0.174338
1631018768009,-0.762317,0.611281,-0.174094
1631018768018,-0.762927,0.611708,-0.172447
1631018768028,-0.763232,0.612135,-0.172752
1631018768037,-0.762683,0.61122,-0.173057
1631018768047,-0.762195,0.609695,-0.173179
1631018768057,-0.762683,0.609756,-0.175192
1631018768066,-0.7625,0.608719,-0.175741
1631018768076,-0.76189,0.60817,-0.176839
1631018768085,-0.7604259999999999,0.609268,-0.17507
1631018768095,-0.7598159999999999,0.6119519999999999,-0.172264
1631018768105,-0.760487,0.61732,-0.171532
1631018768114,-0.759572,0.620065,-0.167506
1631018768124,-0.760548,0.622383,-0.167079
1631018768133,-0.76128,0.624152,-0.169458
1631018768143,-0.758352,0.619455,-0.165554
1631018768153,-0.75701,0.615856,-0.166042
1631018768162,-0.75762,0.6131719999999999,-0.167811
1631018768172,-0.758352,0.61183,-0.169641
1631018768181,-0.759938,0.612501,-0.16994599999999999
1631018768191,-0.761402,0.61366,-0.171227
1631018768201,-0.762439,0.6134769999999999,-0.171837
1631018768210,-0.7640859999999999,0.613416,-0.171959
1631018768220,-0.76433,0.6125619999999999,-0.172325
1631018768229,-0.764208,0.6119519999999999,-0.171532
1631018768239,-0.76433,0.612196,-0.171349
1631018768249,-0.763415,0.610915,-0.173972
1631018768258,-0.762195,0.607743,-0.17507
1631018768268,-0.762134,0.60451,-0.176595
1631018768277,-0.762317,0.602436,-0.176961
1631018768287,-0.761402,0.601582,-0.17629
1631018768297,-0.7616459999999999,0.601765,-0.172508
1631018768306,-0.762683,0.602436,-0.170617
1631018768316,-0.76372,0.603961,-0.169214
1631018768325,-0.765794,0.605913,-0.16958
1631018768335,-0.767563,0.606889,-0.171044
1631018768345,-0.767929,0.60756,-0.17324
1631018768354,-0.768051,0.607255,-0.174643
1631018768364,-0.767929,0.606279,-0.17568
1631018768373,-0.768905,0.606096,-0.17580199999999999
1631018768383,-0.768661,0.60451,-0.177449
1631018768393,-0.768234,0.604449,-0.177693
1631018768402,-0.767929,0.604388,-0.177754
1631018768412,-0.767502,0.605181,-0.177998
1631018768421,-0.7665259999999999,0.607072,-0.17702199999999998
1631018768431,-0.767075,0.608048,-0.175985
1631018768441,-0.766587,0.6079869999999999,-0.174826
1631018768450,-0.76616,0.607438,-0.174399
1631018768460,-0.7662209999999999,0.607377,-0.17324
1631018768469,-0.765733,0.607926,-0.171959
1631018768479,-0.766282,0.609756,-0.17324
1631018768489,-0.766404,0.60878,-0.173118
1631018768498,-0.765672,0.608963,-0.174643
1631018768508,-0.766404,0.6089019999999999,-0.175558
1631018768517,-0.7656109999999999,0.607133,-0.17732699999999998
1631018768527,-0.765428,0.606401,-0.177266
1631018768537,-0.764452,0.604876,-0.175619
1631018768546,-0.763354,0.604693,-0.175375
1631018768556,-0.764208,0.603961,-0.176168
1631018768565,-0.765672,0.603961,-0.176778
1631018768575,-0.764635,0.603656,-0.175436
1631018768585,-0.765977,0.606096,-0.177083
1631018768594,-0.767258,0.606523,-0.176778
1631018768604,-0.768173,0.607072,-0.176961
1631018768613,-0.768295,0.607621,-0.177266
1631018768623,-0.768051,0.607438,-0.176534
1631018768633,-0.767929,0.607804,-0.17751
1631018768642,-0.767075,0.607133,-0.178608
1631018768652,-0.766709,0.607377,-0.178974
1631018768661,-0.766282,0.606767,-0.178364
1631018768671,-0.76616,0.606157,-0.179218
1631018768681,-0.7662209999999999,0.605913,-0.180316
1631018768690,-0.76555,0.606584,-0.179706
1631018768700,-0.764208,0.606218,-0.179645
1631018768709,-0.763415,0.604937,-0.17885199999999998
1631018768719,-0.762622,0.605059,-0.179584
1631018768729,-0.763659,0.604388,-0.180438
1631018768738,-0.764208,0.605913,-0.179279
1631018768748,-0.762378,0.606767,-0.179523
1631018768757,-0.761768,0.607438,-0.178913
1631018768767,-0.762683,0.6076819999999999,-0.179035
1631018768777,-0.762805,0.607621,-0.17885199999999998
1631018768786,-0.761524,0.6079869999999999,-0.177998
1631018768796,-0.761707,0.608414,-0.176961
1631018768805,-0.761768,0.608353,-0.17702199999999998
1631018768815,-0.7616459999999999,0.608048,-0.17671699999999999
1631018768825,-0.763354,0.60817,-0.1769
1631018768834,-0.762683,0.609146,-0.17629
1631018768844,-0.763354,0.61,-0.17641199999999999
1631018768853,-0.763049,0.611525,-0.175863
1631018768863,-0.7628659999999999,0.61122,-0.17568
1631018768873,-0.7625609999999999,0.611159,-0.174277
1631018768882,-0.762195,0.61061,-0.174338
1631018768892,-0.761158,0.61,-0.175009
1631018768901,-0.7619509999999999,0.610183,-0.175985
1631018768911,-0.7631709999999999,0.6110369999999999,-0.176229
1631018768921,-0.7625,0.611464,-0.175619
1631018768930,-0.762927,0.610976,-0.175863
1631018768940,-0.7619509999999999,0.6110369999999999,-0.174826
1631018768949,-0.761402,0.610061,-0.173362
1631018768959,-0.7613409999999999,0.609634,-0.172752
1631018768969,-0.760914,0.608963,-0.17208099999999998
1631018768978,-0.760487,0.608658,-0.17208099999999998
1631018768988,-0.762744,0.608536,-0.174582
1631018768997,-0.763537,0.6101219999999999,-0.17671699999999999
1631018769007,-0.7634759999999999,0.610366,-0.178669
1631018769017,-0.76433,0.609085,-0.179523
1631018769026,-0.764269,0.608353,-0.178486
1631018769036,-0.762927,0.60817,-0.175314
1631018769045,-0.7634759999999999,0.607011,-0.17299599999999998
1631018769055,-0.762988,0.606462,-0.17208099999999998
1631018769065,-0.76311,0.6082919999999999,-0.17147099999999998
1631018769074,-0.76494,0.6085969999999999,-0.172142
1631018769084,-0.765489,0.6110369999999999,-0.172203
1631018769093,-0.765977,0.611403,-0.173057
1631018769103,-0.7656109999999999,0.61,-0.173362
1631018769113,-0.765672,0.6095119999999999,-0.172508
1631018769122,-0.7659159999999999,0.6101219999999999,-0.17324
1631018769132,-0.7656109999999999,0.6092069999999999,-0.173057
1631018769141,-0.7653059999999999,0.607865,-0.17263
1631018769151,-0.7646959999999999,0.608048,-0.17055599999999999
1631018769161,-0.764208,0.607926,-0.170739
1631018769170,-0.763659,0.607438,-0.172935
1631018769180,-0.7653059999999999,0.609634,-0.172752
1631018769189,-0.764574,0.610366,-0.173545
1631018769199,-0.765123,0.611708,-0.171532
1631018769209,-0.765489,0.611464,-0.17141
1631018769218,-0.7653059999999999,0.61122,-0.17147099999999998
1631018769228,-0.764208,0.612074,-0.170617
1631018769237,-0.762439,0.609756,-0.17086099999999999
1631018769247,-0.763964,0.609939,-0.173118
1631018769257,-0.763842,0.608658,-0.173362
1631018769266,-0.764513,0.609268,-0.174643
1631018769276,-0.763903,0.609573,-0.174521
1631018769285,-0.7637809999999999,0.609695,-0.17360599999999998
1631018769295,-0.764513,0.609573,-0.172813
1631018769305,-0.763598,0.610183,-0.17208099999999998
1631018769314,-0.764208,0.609695,-0.17177599999999998
1631018769324,-0.764208,0.608963,-0.17141
1631018769333,-0.763903,0.6104269999999999,-0.171593
1631018769343,-0.7656109999999999,0.6098169999999999,-0.172752
1631018769353,-0.765245,0.6092069999999999,-0.17385
1631018769362,-0.765489,0.608963,-0.17568
1631018769372,-0.765489,0.608841,-0.17671699999999999
1631018769381,-0.764757,0.607377,-0.176473
1631018769391,-0.764818,0.6079869999999999,-0.17763199999999998
1631018769401,-0.763842,0.607072,-0.176168
1631018769410,-0.76372,0.608109,-0.17641199999999999
1631018769420,-0.764452,0.6089019999999999,-0.176168
1631018769429,-0.763049,0.608414,-0.176595
1631018769439,-0.7628659999999999,0.609268,-0.176473
1631018769449,-0.76311,0.609573,-0.175924
1631018769458,-0.762988,0.609268,-0.175436
1631018769468,-0.762805,0.608963,-0.17446
1631018769477,-0.762317,0.608048,-0.174399
1631018769487,-0.762317,0.60695,-0.176046
1631018769497,-0.7622559999999999,0.606828,-0.175253
1631018769506,-0.7613409999999999,0.606828,-0.175375
1631018769516,-0.762805,0.607133,-0.17610699999999999
1631018769525,-0.763232,0.607743,-0.176473
1631018769535,-0.7634759999999999,0.6076819999999999,-0.17629
1631018769545,-0.763232,0.608231,-0.17610699999999999
1631018769554,-0.763232,0.6089019999999999,-0.176046
1631018769564,-0.7640859999999999,0.608414,-0.176839
1631018769573,-0.764025,0.608536,-0.17641199999999999
1631018769583,-0.763964,0.608048,-0.175863
1631018769593,-0.7640859999999999,0.605974,-0.17641199999999999
1631018769602,-0.764208,0.605608,-0.175924
1631018769612,-0.763903,0.605059,-0.174399
1631018769621,-0.763842,0.605486,-0.174704
1631018769631,-0.763964,0.606096,-0.174155
1631018769641,-0.764635,0.607377,-0.174216
1631018769650,-0.7665259999999999,0.607865,-0.173789
1631018769660,-0.766648,0.607499,-0.174826
1631018769669,-0.7671359999999999,0.607438,-0.175375
1631018769679,-0.7671359999999999,0.608719,-0.175924
1631018769689,-0.768234,0.608353,-0.176961
1631018769698,-0.767929,0.609451,-0.17580199999999999
1631018769708,-0.76799,0.609756,-0.174765
1631018769717,-0.76616,0.6089019999999999,-0.17324
1631018769727,-0.7653059999999999,0.60878,-0.170312
1631018769737,-0.765428,0.609268,-0.17177599999999998
1631018769746,-0.764574,0.607926,-0.17385
1631018769756,-0.7650009999999999,0.607499,-0.17702199999999998
1631018769765,-0.764879,0.605547,-0.179096
1631018769775,-0.764208,0.604022,-0.17946199999999998
1631018769785,-0.7634759999999999,0.602192,-0.177693
1631018769794,-0.76372,0.602985,-0.17580199999999999
1631018769804,-0.764208,0.604327,-0.17360599999999998
1631018769813,-0.764269,0.605608,-0.172508
1631018769823,-0.765062,0.60756,-0.172264
1631018769833,-0.76616,0.609085,-0.173362
1631018769842,-0.76738,0.60939,-0.17330099999999998
1631018769852,-0.7671359999999999,0.610671,-0.174277
1631018769861,-0.766892,0.61,-0.17299599999999998
1631018769871,-0.766282,0.609085,-0.17360599999999998
1631018769881,-0.7659159999999999,0.608719,-0.173362
1631018769890,-0.765367,0.6079869999999999,-0.173179
1631018769900,-0.76494,0.607804,-0.17446
1631018769909,-0.764513,0.605852,-0.175863
1631018769919,-0.762927,0.606096,-0.176168
1631018769929,-0.763049,0.606889,-0.176046
1631018769938,-0.764269,0.606218,-0.175924
1631018769948,-0.763293,0.60756,-0.175253
1631018769957,-0.7628659999999999,0.607011,-0.17580199999999999
1631018769967,-0.764147,0.60756,-0.175314
1631018769977,-0.765123,0.607621,-0.174826
1631018769986,-0.763903,0.607377,-0.174033
1631018769996,-0.763232,0.605791,-0.173362
1631018770005,-0.763598,0.606523,-0.174399
1631018770015,-0.763537,0.606767,-0.174277
1631018770025,-0.76372,0.606584,-0.174826
1631018770034,-0.764452,0.606889,-0.175436
1631018770044,-0.764025,0.60634,-0.17360599999999998
1631018770053,-0.763964,0.60634,-0.172203
1631018770063,-0.765428,0.606889,-0.171898
1631018770073,-0.766038,0.608536,-0.170495
1631018770082,-0.7659159999999999,0.608414,-0.169824
1631018770092,-0.76677,0.6089019999999999,-0.170678
1631018770101,-0.766465,0.607804,-0.17019
1631018770111,-0.767563,0.606706,-0.172142
1631018770121,-0.768356,0.607438,-0.171959
1631018770130,-0.768722,0.609085,-0.17177599999999998
1631018770140,-0.768356,0.608719,-0.17202
1631018770149,-0.768539,0.607926,-0.172508
1631018770159,-0.768234,0.607377,-0.172813
1631018770169,-0.767685,0.607438,-0.172203
1631018770178,-0.767014,0.606645,-0.17360599999999998
1631018770188,-0.766953,0.606157,-0.172752
1631018770197,-0.76616,0.605791,-0.172264
1631018770207,-0.76616,0.606584,-0.171959
1631018770217,-0.766404,0.606828,-0.171593
1631018770226,-0.765794,0.607743,-0.172142
1631018770236,-0.765184,0.607072,-0.172264
1631018770245,-0.764452,0.606218,-0.170983
1631018770255,-0.764757,0.606401,-0.170495
1631018770265,-0.764635,0.607133,-0.170922
1631018770274,-0.76555,0.60634,-0.171593
1631018770284,-0.765672,0.605242,-0.171593
1631018770293,-0.76616,0.605974,-0.17116599999999998
1631018770303,-0.7665259999999999,0.605791,-0.172569
1631018770313,-0.766587,0.605608,-0.17208099999999998
1631018770322,-0.765977,0.605303,-0.172142
1631018770332,-0.7656109999999999,0.606523,-0.171837
1631018770341,-0.765672,0.606035,-0.17324
1631018770351,-0.765184,0.605364,-0.171959
1631018770361,-0.765062,0.606767,-0.170922
1631018770370,-0.7640859999999999,0.607926,-0.169824
1631018770380,-0.765123,0.60817,-0.168909
1631018770389,-0.7656109999999999,0.6079869999999999,-0.168116
1631018770399,-0.765367,0.608048,-0.169214
1631018770409,-0.765977,0.6092069999999999,-0.167811
1631018770418,-0.765794,0.61,-0.168909
1631018770428,-0.766587,0.609939,-0.16897
1631018770437,-0.76616,0.610549,-0.167872
1631018770447,-0.765123,0.611403,-0.166957
1631018770457,-0.7659159999999999,0.6119519999999999,-0.166591
1631018770466,-0.766099,0.611281,-0.16683499999999998
1631018770476,-0.7656109999999999,0.611891,-0.167384
1631018770485,-0.765184,0.61244,-0.16897
1631018770495,-0.7659159999999999,0.611708,-0.171959
1631018770505,-0.765245,0.609939,-0.172203
1631018770514,-0.7634759999999999,0.607804,-0.173057
1631018770524,-0.762805,0.605608,-0.170129
1631018770533,-0.762134,0.605547,-0.16591999999999998
1631018770543,-0.7622559999999999,0.605669,-0.163297
1631018770553,-0.7634759999999999,0.60756,-0.162138
1631018770562,-0.7646959999999999,0.61061,-0.162992
1631018770572,-0.766709,0.613721,-0.164578
1631018770581,-0.7686,0.614758,-0.166286
1631018770591,-0.768234,0.614331,-0.165127
1631018770601,-0.767197,0.613416,-0.16561499999999998
1631018770610,-0.766648,0.611281,-0.165371
1631018770620,-0.766343,0.609756,-0.166164
1631018770629,-0.765977,0.6085969999999999,-0.16591999999999998
1631018770639,-0.765794,0.60878,-0.16622499999999998
1631018770649,-0.764818,0.608048,-0.167506
1631018770658,-0.765794,0.6085969999999999,-0.16897
1631018770668,-0.764757,0.608658,-0.169153
1631018770677,-0.76372,0.60817,-0.17055599999999999
1631018770687,-0.763293,0.608658,-0.16994599999999999
1631018770697,-0.764269,0.607804,-0.169641
1631018770706,-0.7643909999999999,0.607255,-0.169214
1631018770716,-0.7637809999999999,0.607804,-0.16744499999999998
1631018770725,-0.763537,0.608719,-0.165066
1631018770735,-0.761585,0.608231,-0.165676
1631018770745,-0.761768,0.609451,-0.167689
1631018770754,-0.764452,0.6101219999999999,-0.168299
1631018770764,-0.765123,0.609085,-0.169336
1631018770773,-0.764818,0.6089019999999999,-0.169275
1631018770783,-0.7628659999999999,0.607865,-0.16836
1631018770793,-0.763354,0.6076819999999999,-0.166347
1631018770802,-0.763598,0.607865,-0.165676
1631018770812,-0.763903,0.608475,-0.164639
1631018770821,-0.76494,0.608658,-0.163907
1631018770831,-0.7671359999999999,0.609756,-0.164212
1631018770841,-0.76738,0.610915,-0.16408999999999999
1631018770850,-0.7674409999999999,0.611708,-0.163175
1631018770860,-0.768234,0.611159,-0.163968
1631018770869,-0.768966,0.611769,-0.164578
1631018770879,-0.769332,0.6116469999999999,-0.164029
1631018770889,-0.767868,0.611281,-0.16408999999999999
1631018770898,-0.768539,0.611525,-0.16408999999999999
1631018770908,-0.768661,0.609634,-0.164212
1631018770917,-0.767868,0.609756,-0.16530999999999998
1631018770927,-0.767502,0.61,-0.164822
1631018770937,-0.7665259999999999,0.60817,-0.164517
1631018770946,-0.766038,0.6082919999999999,-0.163541
1631018770956,-0.765672,0.60878,-0.164456
1631018770965,-0.766343,0.6092069999999999,-0.16408999999999999
1631018770975,-0.7665259999999999,0.6079869999999999,-0.163968
1631018770985,-0.766587,0.607377,-0.163419
1631018770994,-0.766648,0.607865,-0.163236
1631018771004,-0.7659159999999999,0.608048,-0.163846
1631018771013,-0.767319,0.6076819999999999,-0.162748
1631018771023,-0.766648,0.606828,-0.164517
1631018771033,-0.766892,0.607255,-0.164273
1631018771042,-0.765428,0.6076819999999999,-0.163846
1631018771052,-0.765672,0.607316,-0.16469999999999999
1631018771061,-0.765123,0.60573,-0.164883
1631018771071,-0.76555,0.605547,-0.16561499999999998
1631018771081,-0.7665259999999999,0.606523,-0.165188
1631018771090,-0.765794,0.606279,-0.163968
1631018771100,-0.7662209999999999,0.606279,-0.16348
1631018771109,-0.766038,0.60756,-0.163785
1631018771119,-0.766038,0.607499,-0.162748
1631018771129,-0.766038,0.608475,-0.161894
1631018771138,-0.767319,0.6110369999999999,-0.161711
1631018771148,-0.767014,0.610976,-0.160918
1631018771157,-0.76738,0.611769,-0.16043
1631018771167,-0.766343,0.611098,-0.160491
1631018771177,-0.767197,0.610976,-0.16036899999999998
1631018771186,-0.765428,0.610854,-0.15921
1631018771196,-0.766709,0.6113419999999999,-0.15975899999999998
1631018771205,-0.765428,0.610976,-0.157746
1631018771215,-0.766099,0.6104269999999999,-0.15799
1631018771225,-0.7671359999999999,0.6101219999999999,-0.159088
1631018771234,-0.768112,0.6113419999999999,-0.162443
1631018771244,-0.767563,0.612074,-0.164944
1631018771253,-0.767868,0.612623,-0.165554
1631018771263,-0.7671359999999999,0.610305,-0.164883
1631018771273,-0.766282,0.608109,-0.163663
1631018771282,-0.765062,0.607621,-0.160003
1631018771292,-0.76433,0.6076819999999999,-0.157868
1631018771301,-0.76372,0.610061,-0.157624
1631018771311,-0.764879,0.6119519999999999,-0.158112
1631018771321,-0.765672,0.614026,-0.158417
1631018771330,-0.7674409999999999,0.615429,-0.160003
1631018771340,-0.766465,0.614758,-0.159576
1631018771349,-0.766038,0.614026,-0.159332
1631018771359,-0.7646959999999999,0.6122569999999999,-0.158478
1631018771369,-0.764147,0.611098,-0.159088
1631018771378,-0.7637809999999999,0.610183,-0.158783
1631018771388,-0.7625609999999999,0.6104269999999999,-0.158173
1631018771397,-0.762134,0.610793,-0.15914899999999998
1631018771407,-0.762317,0.6104269999999999,-0.159393
1631018771417,-0.761524,0.611403,-0.159942
1631018771426,-0.762073,0.612196,-0.160247
1631018771436,-0.762134,0.612074,-0.161345
1631018771445,-0.762195,0.611098,-0.160918
1631018771455,-0.761707,0.609756,-0.16036899999999998
1631018771465,-0.7625,0.61183,-0.160125
1631018771474,-0.76189,0.6131719999999999,-0.15975899999999998
1631018771484,-0.762012,0.612196,-0.160186
1631018771493,-0.762195,0.61244,-0.16097899999999998
1631018771503,-0.763293,0.612318,-0.16128399999999998
1631018771513,-0.763842,0.613233,-0.160613
1631018771522,-0.763903,0.6134769999999999,-0.15921
1631018771532,-0.763659,0.61244,-0.158966
1631018771541,-0.763903,0.612074,-0.157685
1631018771551,-0.763415,0.61244,-0.157319
1631018771561,-0.763964,0.612684,-0.156282
1631018771570,-0.764818,0.613965,-0.15555
1631018771580,-0.765489,0.614026,-0.156038
1631018771589,-0.765733,0.614453,-0.156648
1631018771599,-0.767075,0.615368,-0.157319
1631018771609,-0.767929,0.614819,-0.156587
1631018771618,-0.768051,0.61488,-0.157441
1631018771628,-0.768051,0.6140869999999999,-0.158966
1631018771637,-0.7686,0.61427,-0.158295
1631018771647,-0.768112,0.613294,-0.15921
1631018771657,-0.768051,0.6125619999999999,-0.159942
1631018771666,-0.768173,0.6116469999999999,-0.159881
1631018771676,-0.767563,0.61122,-0.15982
1631018771685,-0.766892,0.610549,-0.1586
1631018771695,-0.764818,0.6092069999999999,-0.159576
1631018771705,-0.765184,0.609939,-0.159942
1631018771714,-0.7650009999999999,0.609085,-0.160552
1631018771724,-0.764879,0.6098169999999999,-0.16104
1631018771733,-0.765977,0.6107319999999999,-0.161833
1631018771743,-0.765794,0.610976,-0.161833
1631018771753,-0.766465,0.6098169999999999,-0.162199
1631018771762,-0.765245,0.610244,-0.162321
1631018771772,-0.7650009999999999,0.6095119999999999,-0.162382
1631018771781,-0.765062,0.609146,-0.162992
1631018771791,-0.764513,0.609146,-0.163968
1631018771801,-0.7646959999999999,0.608841,-0.163358
1631018771810,-0.7659159999999999,0.6089019999999999,-0.162748
1631018771820,-0.764452,0.610488,-0.163053
1631018771829,-0.763659,0.610549,-0.162626
1631018771839,-0.7637809999999999,0.6107319999999999,-0.163663
1631018771849,-0.764452,0.6104269999999999,-0.163358
1631018771858,-0.7637809999999999,0.610854,-0.162382
1631018771868,-0.763293,0.610488,-0.163114
1631018771877,-0.763232,0.610061,-0.16226
1631018771887,-0.763842,0.6104269999999999,-0.162016
1631018771897,-0.763537,0.610549,-0.161894
1631018771906,-0.763415,0.611403,-0.161589
1631018771916,-0.7631709999999999,0.61305,-0.160552
1631018771925,-0.764025,0.61427,-0.16006399999999998
1631018771935,-0.763232,0.614819,-0.160613
1631018771945,-0.764147,0.614148,-0.159881
1631018771954,-0.762927,0.614026,-0.159637
1631018771964,-0.763842,0.61488,-0.160186
1631018771973,-0.764513,0.614636,-0.160247
1631018771983,-0.763354,0.615124,-0.15975899999999998
1631018771993,-0.762988,0.614758,-0.159576
1631018772002,-0.763415,0.615673,-0.160491
1631018772012,-0.762988,0.615429,-0.160308
1631018772021,-0.763232,0.61549,-0.15975899999999998
1631018772031,-0.7634759999999999,0.615185,-0.159637
1631018772041,-0.7637809999999999,0.6146969999999999,-0.161589
1631018772050,-0.764452,0.6156119999999999,-0.164273
1631018772060,-0.764513,0.61366,-0.165127
1631018772069,-0.764269,0.611403,-0.165493
1631018772079,-0.7622559999999999,0.610366,-0.164212
1631018772089,-0.7616459999999999,0.609329,-0.16128399999999998
1631018772098,-0.760975,0.61,-0.158966
1631018772108,-0.761402,0.610488,-0.157441
1631018772117,-0.762134,0.612013,-0.157075
1631018772127,-0.762805,0.61427,-0.158173
1631018772137,-0.7650009999999999,0.6156119999999999,-0.15921
1631018772146,-0.766038,0.61732,-0.16067399999999998
1631018772156,-0.765977,0.6161,-0.159881
1631018772165,-0.7653059999999999,0.613965,-0.16097899999999998
1631018772175,-0.7653059999999999,0.612806,-0.160857
1631018772185,-0.765062,0.61183,-0.161223
1631018772194,-0.765367,0.6110369999999999,-0.161528
1631018772204,-0.764269,0.610976,-0.162687
1631018772213,-0.763232,0.610244,-0.162748
1631018772223,-0.76311,0.610976,-0.163175
1631018772233,-0.7625609999999999,0.610793,-0.163541
1631018772242,-0.762134,0.6110369999999999,-0.163785
1631018772252,-0.763232,0.6107319999999999,-0.163602
1631018772261,-0.7625,0.612196,-0.162443
1631018772271,-0.76372,0.613233,-0.162077
1631018772281,-0.763293,0.613111,-0.161528
1631018772290,-0.762134,0.613355,-0.16036899999999998
1631018772300,-0.762012,0.613233,-0.16067399999999998
1631018772309,-0.7625,0.613721,-0.161528
1631018772319,-0.763354,0.612623,-0.162382
1631018772329,-0.76311,0.613416,-0.16226
1631018772338,-0.762744,0.613599,-0.161772
1631018772348,-0.762805,0.614209,-0.159881
1631018772357,-0.7634759999999999,0.6150019999999999,-0.159393
1631018772367,-0.764147,0.614941,-0.159637
1631018772377,-0.764208,0.6137819999999999,-0.15945399999999998
1631018772386,-0.7637809999999999,0.61366,-0.159515
1631018772396,-0.765184,0.612074,-0.160247
1631018772405,-0.765123,0.612684,-0.160552
1631018772415,-0.766038,0.61305,-0.16165
1631018772425,-0.766587,0.615124,-0.161528
1631018772434,-0.7659159999999999,0.614941,-0.16226
1631018772444,-0.7653059999999999,0.614636,-0.162382
1631018772453,-0.766099,0.61366,-0.162504
1631018772463,-0.765123,0.6125619999999999,-0.16287
1631018772473,-0.76494,0.612989,-0.162992
1631018772482,-0.765062,0.61244,-0.162504
1631018772492,-0.76433,0.612318,-0.162077
1631018772501,-0.763659,0.612196,-0.161833
1631018772511,-0.762744,0.612745,-0.161162
1631018772521,-0.7628659999999999,0.612928,-0.162138
1631018772530,-0.763354,0.61244,-0.162565
1631018772540,-0.762805,0.612928,-0.162565
1631018772549,-0.762744,0.612196,-0.162931
1631018772559,-0.762927,0.612684,-0.163724
1631018772569,-0.762683,0.612928,-0.163236
1631018772578,-0.7622559999999999,0.612501,-0.163602
1631018772588,-0.762805,0.612135,-0.16287
1631018772597,-0.762805,0.612318,-0.163114
1631018772607,-0.76311,0.61305,-0.163785
1631018772617,-0.762683,0.613294,-0.163663
1631018772626,-0.762988,0.6131719999999999,-0.162687
1631018772636,-0.762927,0.6131719999999999,-0.162809
1631018772645,-0.762195,0.613416,-0.161894
1631018772655,-0.76189,0.614026,-0.161772
1631018772665,-0.762439,0.6143919999999999,-0.163114
1631018772674,-0.763232,0.613843,-0.162565
1631018772684,-0.762195,0.614575,-0.161223
1631018772693,-0.761524,0.6156119999999999,-0.160796
1631018772703,-0.761707,0.6159169999999999,-0.160491
1631018772713,-0.762012,0.614758,-0.158966
1631018772722,-0.7619509999999999,0.615856,-0.15792899999999999
1631018772732,-0.7625609999999999,0.61549,-0.158051
1631018772741,-0.762622,0.61549,-0.159271
1631018772751,-0.762805,0.6146969999999999,-0.160003
1631018772761,-0.763354,0.614209,-0.159881
1631018772770,-0.762988,0.613599,-0.16006399999999998
1631018772780,-0.762134,0.6143919999999999,-0.16036899999999998
1631018772789,-0.763354,0.614453,-0.158783
1631018772799,-0.7637809999999999,0.61488,-0.159332
1631018772809,-0.763232,0.6162219999999999,-0.158661
1631018772818,-0.764025,0.615856,-0.15945399999999998
1631018772828,-0.763659,0.615734,-0.159332
1631018772837,-0.763598,0.615246,-0.15975899999999998
1631018772847,-0.7634759999999999,0.614209,-0.15921
1631018772857,-0.762134,0.613965,-0.159576
1631018772866,-0.7634759999999999,0.613233,-0.16036899999999998
1631018772876,-0.763537,0.613416,-0.15921
1631018772885,-0.76433,0.614209,-0.158722
1631018772895,-0.764574,0.613843,-0.160247
1631018772905,-0.765062,0.613111,-0.161223
1631018772914,-0.764025,0.612623,-0.163907
1631018772924,-0.76372,0.6131719999999999,-0.16652999999999998
1631018772933,-0.7634759999999999,0.6104269999999999,-0.165798
1631018772943,-0.762378,0.609268,-0.164029
1631018772953,-0.761158,0.608475,-0.160796
1631018772962,-0.7607309999999999,0.609451,-0.1586
1631018772972,-0.762073,0.610488,-0.158783
1631018772981,-0.763598,0.6128669999999999,-0.159088
1631018772991,-0.765123,0.61549,-0.15853899999999999
1631018773001,-0.766099,0.618296,-0.159088
1631018773010,-0.767014,0.6186619999999999,-0.15945399999999998
1631018773020,-0.767258,0.618296,-0.159332
1631018773029,-0.7671359999999999,0.616161,-0.160552
1631018773039,-0.766038,0.613721,-0.16036899999999998
1631018773049,-0.765062,0.612745,-0.15982
1631018773058,-0.763293,0.611891,-0.16006399999999998
1631018773068,-0.7628659999999999,0.611891,-0.161162
1631018773077,-0.762622,0.612928,-0.16226
1631018773087,-0.7625609999999999,0.613294,-0.163968
1631018773097,-0.762988,0.614453,-0.163846
1631018773106,-0.76189,0.613904,-0.16408999999999999
1631018773116,-0.761829,0.613233,-0.16439499999999999
1631018773125,-0.761768,0.6125619999999999,-0.16439499999999999
1631018773135,-0.762073,0.612745,-0.164822
1631018773145,-0.762622,0.613355,-0.16408999999999999
1631018773154,-0.762439,0.61488,-0.163907
1631018773164,-0.761707,0.6137819999999999,-0.161772
1631018773173,-0.762012,0.615246,-0.163053
1631018773183,-0.7625609999999999,0.614026,-0.164273
1631018773193,-0.762012,0.613233,-0.165249
1631018773202,-0.7619509999999999,0.613721,-0.165981
1631018773212,-0.7607309999999999,0.612074,-0.165737
1631018773221,-0.761219,0.611281,-0.163968
1631018773231,-0.7595109999999999,0.612013,-0.163907
1631018773241,-0.7610359999999999,0.6116469999999999,-0.163785
1631018773250,-0.7625609999999999,0.611403,-0.164883
1631018773260,-0.762744,0.611464,-0.164456
1631018773269,-0.762622,0.612318,-0.165066
1631018773279,-0.762988,0.6131719999999999,-0.165493
1631018773289,-0.764879,0.61244,-0.165554
1631018773298,-0.764635,0.61305,-0.166042
1631018773308,-0.7653059999999999,0.613294,-0.165127
1631018773317,-0.7643909999999999,0.612745,-0.16561499999999998
1631018773327,-0.764025,0.612379,-0.16500499999999999
1631018773337,-0.763903,0.612684,-0.164273
1631018773346,-0.765367,0.612623,-0.164822
1631018773356,-0.764452,0.61305,-0.164578
1631018773365,-0.765428,0.613355,-0.16530999999999998
1631018773375,-0.764452,0.612379,-0.164822
1631018773385,-0.7631709999999999,0.61061,-0.163968
1631018773394,-0.762622,0.609451,-0.163846
1631018773404,-0.7622559999999999,0.611525,-0.163724
1631018773413,-0.763354,0.613111,-0.16226
1631018773423,-0.762805,0.613233,-0.161223
1631018773433,-0.7619509999999999,0.6131719999999999,-0.16043
1631018773442,-0.762134,0.613599,-0.160247
1631018773452,-0.762195,0.6131719999999999,-0.15921
1631018773461,-0.762988,0.6143919999999999,-0.15945399999999998
1631018773471,-0.7628659999999999,0.61488,-0.158905
1631018773481,-0.763354,0.61549,-0.158112
1631018773490,-0.7625609999999999,0.614941,-0.15945399999999998
1631018773500,-0.7628659999999999,0.614514,-0.15884399999999999
1631018773509,-0.763964,0.613843,-0.159637
1631018773519,-0.762744,0.6134769999999999,-0.159942
1631018773529,-0.763232,0.612928,-0.160491
1631018773538,-0.762683,0.612074,-0.16097899999999998
1631018773548,-0.763293,0.61122,-0.16128399999999998
1631018773557,-0.76372,0.611281,-0.161772
1631018773567,-0.7637809999999999,0.611525,-0.162016
1631018773577,-0.76372,0.6119519999999999,-0.161528
1631018773586,-0.764269,0.611281,-0.161406
1631018773596,-0.765184,0.611708,-0.16097899999999998
1631018773605,-0.765184,0.6113419999999999,-0.160735
1631018773615,-0.765062,0.6116469999999999,-0.16104
1631018773625,-0.7643909999999999,0.6116469999999999,-0.159698
1631018773634,-0.764452,0.612135,-0.158783
1631018773644,-0.764574,0.613599,-0.157624
1631018773653,-0.763293,0.615124,-0.157502
1631018773663,-0.762988,0.6153069999999999,-0.156465
1631018773673,-0.76494,0.614819,-0.155672
1631018773682,-0.765123,0.613538,-0.157685
1631018773692,-0.76555,0.613721,-0.158722
1631018773701,-0.766099,0.614331,-0.158783
1631018773711,-0.765428,0.614331,-0.160247
1631018773721,-0.765123,0.615368,-0.159515
1631018773730,-0.764635,0.616161,-0.158905
1631018773740,-0.765245,0.61671,-0.158112
1631018773749,-0.763842,0.616283,-0.15823399999999999
1631018773759,-0.763537,0.6156119999999999,-0.156709
1631018773769,-0.762012,0.614758,-0.15555
1631018773778,-0.761829,0.6134769999999999,-0.156526
1631018773788,-0.7628659999999999,0.613904,-0.157624
1631018773797,-0.7640859999999999,0.614575,-0.15982
1631018773807,-0.763232,0.6153069999999999,-0.161528
1631018773817,-0.764513,0.614514,-0.163785
1631018773826,-0.7637809999999999,0.613721,-0.162443
1631018773836,-0.762988,0.611586,-0.160918
1631018773845,-0.762683,0.6119519999999999,-0.157685
1631018773855,-0.761585,0.612013,-0.15420799999999998
1631018773865,-0.7619509999999999,0.613355,-0.154086
1631018773874,-0.762134,0.615246,-0.153964
1631018773884,-0.76372,0.616161,-0.155367
1631018773893,-0.7640859999999999,0.6162219999999999,-0.156038
1631018773903,-0.763842,0.616161,-0.156404
1631018773913,-0.763354,0.61427,-0.158356
1631018773922,-0.762927,0.613965,-0.15853899999999999
1631018773932,-0.7628659999999999,0.6119519999999999,-0.156892
1631018773941,-0.76372,0.611586,-0.157563
1631018773951,-0.763232,0.611586,-0.157014
1631018773961,-0.7634759999999999,0.612135,-0.157563
1631018773970,-0.76433,0.6131719999999999,-0.157258
1631018773980,-0.765245,0.613904,-0.157441
1631018773989,-0.764818,0.614636,-0.156953
1631018773999,-0.764635,0.615063,-0.157624
1631018774009,-0.7650009999999999,0.614819,-0.157075
1631018774018,-0.765062,0.6140869999999999,-0.157197
1631018774028,-0.765428,0.61427,-0.155245
1631018774037,-0.765184,0.616283,-0.155245
1631018774047,-0.763659,0.615368,-0.154879
1631018774057,-0.764025,0.615246,-0.156282
1631018774066,-0.7646959999999999,0.615124,-0.157197
1631018774076,-0.764574,0.614148,-0.15738
1631018774085,-0.7634759999999999,0.613843,-0.158356
1631018774095,-0.762683,0.61366,-0.15616
1631018774105,-0.76189,0.612684,-0.155306
1631018774114,-0.7628659999999999,0.612806,-0.15481799999999998
1631018774124,-0.76372,0.613355,-0.155367
1631018774133,-0.763293,0.61427,-0.15555
1631018774143,-0.763964,0.614209,-0.156953
1631018774153,-0.76433,0.615368,-0.157319
1631018774162,-0.764513,0.6156119999999999,-0.15884399999999999
1631018774172,-0.764513,0.615429,-0.158905
1631018774181,-0.764208,0.614819,-0.159271
1631018774191,-0.764025,0.614209,-0.1586
1631018774201,-0.7631709999999999,0.614026,-0.159515
1631018774210,-0.7640859999999999,0.613904,-0.16067399999999998
1631018774220,-0.763842,0.613294,-0.16104
1631018774229,-0.7634759999999999,0.6137819999999999,-0.16104
1631018774239,-0.762683,0.613904,-0.160857
1631018774249,-0.7628659999999999,0.612989,-0.159942
1631018774258,-0.761524,0.613416,-0.158356
1631018774268,-0.7625609999999999,0.6146969999999999,-0.15884399999999999
1631018774277,-0.7622559999999999,0.614209,-0.15853899999999999
1631018774287,-0.761768,0.614575,-0.157136
1631018774297,-0.762622,0.616649,-0.157685
1631018774306,-0.763415,0.615185,-0.157868
1631018774316,-0.762988,0.614514,-0.157746
1631018774325,-0.7628659999999999,0.613416,-0.157258
1631018774335,-0.762622,0.6146969999999999,-0.155855
1631018774345,-0.7640859999999999,0.614514,-0.15616
1631018774354,-0.7640859999999999,0.615063,-0.157624
1631018774364,-0.7643909999999999,0.615368,-0.156831
1631018774373,-0.764452,0.614514,-0.15799
1631018774383,-0.7643909999999999,0.6140869999999999,-0.157014
1631018774393,-0.764513,0.614026,-0.15799
1631018774402,-0.765428,0.6143919999999999,-0.158417
1631018774412,-0.7646959999999999,0.6140869999999999,-0.1586
1631018774421,-0.7646959999999999,0.612806,-0.158905
1631018774431,-0.7640859999999999,0.61305,-0.15975899999999998
1631018774441,-0.764147,0.6122569999999999,-0.159698
1631018774450,-0.7646959999999999,0.611586,-0.159576
1631018774460,-0.7640859999999999,0.612318,-0.159637
1631018774469,-0.764208,0.611708,-0.15945399999999998
1631018774479,-0.763354,0.6125619999999999,-0.15853899999999999
1631018774489,-0.763415,0.612623,-0.159881
1631018774498,-0.76372,0.6119519999999999,-0.16043
1631018774508,-0.763659,0.611708,-0.15982
1631018774517,-0.76372,0.611708,-0.160125
1631018774527,-0.76433,0.612074,-0.160308
1631018774537,-0.763537,0.612196,-0.15975899999999998
1631018774546,-0.763415,0.612928,-0.159332
1631018774556,-0.764513,0.613599,-0.16006399999999998
1631018774565,-0.762988,0.613294,-0.160308
1631018774575,-0.763049,0.61305,-0.160186
1631018774585,-0.76311,0.613721,-0.160003
1631018774594,-0.7628659999999999,0.6146969999999999,-0.160186
1631018774604,-0.763293,0.614453,-0.15945399999999998
1631018774613,-0.7634759999999999,0.614941,-0.1586
1631018774623,-0.763293,0.615429,-0.159027
1631018774633,-0.762988,0.61549,-0.156953
1631018774642,-0.763537,0.61488,-0.157258
1631018774652,-0.7634759999999999,0.613416,-0.158112
1631018774661,-0.763903,0.613721,-0.16097899999999998
1631018774671,-0.763354,0.612684,-0.163175
1631018774681,-0.7643909999999999,0.6119519999999999,-0.165981
1631018774690,-0.765794,0.609939,-0.167628
1631018774700,-0.765428,0.610061,-0.164944
1631018774709,-0.764574,0.610305,-0.161955
1631018774719,-0.763537,0.609268,-0.159088
1631018774729,-0.763964,0.611525,-0.15738
1631018774738,-0.7640859999999999,0.613111,-0.156892
1631018774748,-0.764757,0.61366,-0.157136
1631018774757,-0.766099,0.615551,-0.157563
1631018774767,-0.767014,0.6156119999999999,-0.158478
1631018774777,-0.767319,0.614331,-0.158112
1631018774786,-0.7671359999999999,0.61366,-0.158295
1631018774796,-0.765977,0.6122569999999999,-0.15792899999999999
1631018774805,-0.765184,0.611464,-0.157868
1631018774815,-0.765428,0.610854,-0.158112
1631018774825,-0.765062,0.610976,-0.159576
1631018774834,-0.764818,0.612013,-0.160003
1631018774844,-0.764757,0.612074,-0.16104
1631018774853,-0.763415,0.61183,-0.16165
1631018774863,-0.762744,0.612135,-0.16067399999999998
1631018774873,-0.762134,0.612074,-0.160857
1631018774882,-0.762134,0.612074,-0.16036899999999998
1631018774892,-0.762012,0.612074,-0.160918
1631018774901,-0.761829,0.613111,-0.16036899999999998
1631018774911,-0.761219,0.612989,-0.160918
1631018774921,-0.76006,0.612928,-0.159881
1631018774930,-0.761219,0.613843,-0.161162
1631018774940,-0.762622,0.614026,-0.160491
1631018774949,-0.7628659999999999,0.613904,-0.161406
1631018774959,-0.762805,0.614514,-0.160613
1631018774969,-0.762134,0.614026,-0.15921
1631018774978,-0.762012,0.613355,-0.159271
1631018774988,-0.761524,0.613111,-0.158417
1631018774997,-0.762012,0.612989,-0.157258
1631018775007,-0.762744,0.612745,-0.15792899999999999
1631018775017,-0.764452,0.613965,-0.15945399999999998
1631018775026,-0.764757,0.614514,-0.160125
1631018775036,-0.766343,0.61488,-0.160796
1631018775045,-0.766282,0.6162219999999999,-0.161223
1631018775055,-0.767014,0.615673,-0.160735
1631018775065,-0.766892,0.614758,-0.161894
1631018775074,-0.7665259999999999,0.613965,-0.16226
1631018775084,-0.76616,0.613538,-0.16226
1631018775093,-0.765184,0.612928,-0.162138
1631018775103,-0.7650009999999999,0.6119519999999999,-0.163419
1631018775113,-0.7646959999999999,0.612318,-0.162321
1631018775122,-0.765245,0.6122569999999999,-0.162138
1631018775132,-0.7634759999999999,0.612745,-0.161345
1631018775141,-0.763232,0.611159,-0.161894
1631018775151,-0.763964,0.611769,-0.161406
1631018775161,-0.76433,0.6113419999999999,-0.162077
1631018775170,-0.7640859999999999,0.611403,-0.16165
1631018775180,-0.764269,0.612928,-0.161467
1631018775189,-0.7640859999999999,0.6137819999999999,-0.161467
1631018775199,-0.763659,0.613233,-0.161162
1631018775209,-0.7634759999999999,0.613233,-0.161223
1631018775218,-0.763415,0.612074,-0.160186
1631018775228,-0.7628659999999999,0.613233,-0.161162
1631018775237,-0.763903,0.612318,-0.162077
1631018775247,-0.7631709999999999,0.612379,-0.162016
1631018775257,-0.7631709999999999,0.6131719999999999,-0.162138
1631018775266,-0.762805,0.612928,-0.161772
1631018775276,-0.762622,0.612013,-0.162138
1631018775285,-0.7625,0.612196,-0.162382
1631018775295,-0.762195,0.612806,-0.161528
1631018775305,-0.76189,0.612684,-0.160491
1631018775314,-0.762134,0.613599,-0.15945399999999998
1631018775324,-0.762317,0.612989,-0.15982
1631018775333,-0.76311,0.6131719999999999,-0.159698
1631018775343,-0.76189,0.614331,-0.15914899999999998
1631018775353,-0.762988,0.613538,-0.15914899999999998
1631018775362,-0.7631709999999999,0.613843,-0.159027
1631018775372,-0.763598,0.61305,-0.159332
1631018775381,-0.764208,0.61366,-0.159027
1631018775391,-0.763598,0.613599,-0.15823399999999999
1631018775401,-0.764208,0.613721,-0.158295
1631018775410,-0.764635,0.614941,-0.15792899999999999
1631018775420,-0.764818,0.6153069999999999,-0.157502
1631018775429,-0.764025,0.615734,-0.157197
1631018775439,-0.7650009999999999,0.615856,-0.157014
1631018775449,-0.7634759999999999,0.614514,-0.158173
1631018775458,-0.763659,0.614819,-0.157807
1631018775468,-0.763415,0.613416,-0.158478
1631018775477,-0.763659,0.61427,-0.15792899999999999
1631018775487,-0.763964,0.615185,-0.158661
1631018775497,-0.764452,0.615734,-0.158051
1631018775506,-0.763598,0.615673,-0.157746
1631018775516,-0.763659,0.6156119999999999,-0.15853899999999999
1631018775525,-0.763842,0.61549,-0.160613
1631018775535,-0.763232,0.615978,-0.162565
1631018775545,-0.763598,0.6137819999999999,-0.163419
1631018775554,-0.7625,0.6125619999999999,-0.163114
1631018775564,-0.7616459999999999,0.6119519999999999,-0.162199
1631018775573,-0.760914,0.6104269999999999,-0.159698
1631018775583,-0.76128,0.610549,-0.157807
1631018775593,-0.760548,0.6119519999999999,-0.15677
1631018775602,-0.763354,0.613965,-0.158783
1631018775612,-0.76494,0.6162219999999999,-0.158417
1631018775621,-0.765733,0.6162219999999999,-0.16104
1631018775631,-0.766099,0.617991,-0.16043
1631018775641,-0.765733,0.617564,-0.16043
1631018775650,-0.76433,0.615063,-0.15921
1631018775660,-0.763964,0.613294,-0.159271
1631018775669,-0.763537,0.611708,-0.159698
1631018775679,-0.76433,0.612135,-0.16006399999999998
1631018775689,-0.76372,0.6122569999999999,-0.16067399999999998
1631018775698,-0.7634759999999999,0.6122569999999999,-0.16128399999999998
1631018775708,-0.762012,0.612501,-0.16165
1631018775717,-0.762927,0.612074,-0.162931
1631018775727,-0.762744,0.6119519999999999,-0.163602
1631018775737,-0.762195,0.612806,-0.163602
1631018775746,-0.762012,0.612623,-0.16226
1631018775756,-0.761768,0.6125619999999999,-0.16226
1631018775765,-0.761829,0.612074,-0.161833
1631018775775,-0.760365,0.6128669999999999,-0.161711
1631018775785,-0.760365,0.6131719999999999,-0.161406
1631018775794,-0.760975,0.61244,-0.162565
1631018775804,-0.7628659999999999,0.613416,-0.163175
1631018775813,-0.762622,0.612318,-0.163541
1631018775823,-0.762683,0.613599,-0.164883
1631018775833,-0.7622559999999999,0.612806,-0.163846
1631018775842,-0.761829,0.612501,-0.162382
1631018775852,-0.7625609999999999,0.612684,-0.161101
1631018775861,-0.763232,0.613294,-0.160735
1631018775871,-0.764025,0.612684,-0.160186
1631018775881,-0.7646959999999999,0.613416,-0.16067399999999998
1631018775890,-0.764208,0.613721,-0.160186
1631018775900,-0.76555,0.612928,-0.160613
1631018775909,-0.766038,0.614026,-0.160857
1631018775919,-0.767075,0.6150019999999999,-0.160857
1631018775929,-0.766343,0.614758,-0.160613
1631018775938,-0.766465,0.6140869999999999,-0.160796
1631018775948,-0.765245,0.614453,-0.161528
1631018775957,-0.765672,0.614453,-0.161223
1631018775967,-0.7646959999999999,0.613721,-0.161711
1631018775977,-0.765428,0.613111,-0.162077
1631018775986,-0.764879,0.61305,-0.161833
1631018775996,-0.764574,0.612928,-0.161772
1631018776005,-0.76372,0.61183,-0.160918
1631018776015,-0.763964,0.61244,-0.161955
1631018776025,-0.764025,0.612745,-0.16067399999999998
1631018776034,-0.764269,0.613233,-0.16067399999999998
1631018776044,-0.7643909999999999,0.613965,-0.161162
1631018776053,-0.764574,0.612806,-0.160613
1631018776063,-0.763964,0.612318,-0.162016
1631018776073,-0.7634759999999999,0.612196,-0.161833
1631018776082,-0.763293,0.6122569999999999,-0.161528
1631018776092,-0.763842,0.611464,-0.161894
1631018776101,-0.7640859999999999,0.6104269999999999,-0.161528
1631018776111,-0.7634759999999999,0.6119519999999999,-0.162626
1631018776121,-0.763842,0.6113419999999999,-0.162687
1631018776130,-0.7640859999999999,0.61,-0.163114
1631018776140,-0.76311,0.6104269999999999,-0.163297
1631018776149,-0.763354,0.610244,-0.16287
1631018776159,-0.7634759999999999,0.6104269999999999,-0.162016
1631018776169,-0.7640859999999999,0.6104269999999999,-0.162626
1631018776178,-0.764208,0.610793,-0.16287
1631018776188,-0.763842,0.6107319999999999,-0.162504
1631018776197,-0.7631709999999999,0.6113419999999999,-0.163358
1631018776207,-0.7631709999999999,0.611586,-0.162626
1631018776217,-0.763598,0.612623,-0.160857
1631018776226,-0.763659,0.612684,-0.160552
1631018776236,-0.76311,0.612745,-0.16006399999999998
1631018776245,-0.7634759999999999,0.612745,-0.160003
1631018776255,-0.763903,0.612989,-0.15884399999999999
1631018776265,-0.763293,0.614514,-0.159637
1631018776274,-0.763354,0.613721,-0.160125
1631018776284,-0.7640859999999999,0.613904,-0.160491
1631018776293,-0.7634759999999999,0.6150019999999999,-0.161345
1631018776303,-0.763964,0.615246,-0.161162
1631018776313,-0.763293,0.615673,-0.16043
1631018776322,-0.764635,0.615551,-0.160003
1631018776332,-0.764269,0.6143919999999999,-0.160552
1631018776341,-0.764025,0.614331,-0.16006399999999998
1631018776351,-0.764025,0.614026,-0.15884399999999999
1631018776361,-0.765245,0.613965,-0.16036899999999998
1631018776370,-0.765062,0.614941,-0.163236
1631018776380,-0.76494,0.613904,-0.165798
1631018776389,-0.765123,0.6119519999999999,-0.165859
1631018776399,-0.763659,0.610366,-0.16348
1631018776409,-0.762378,0.609329,-0.1586
1631018776418,-0.761524,0.6085969999999999,-0.155489
1631018776428,-0.7622559999999999,0.610488,-0.15311
1631018776437,-0.764635,0.6131719999999999,-0.154086
1631018776447,-0.766587,0.617015,-0.155916
1631018776457,-0.767197,0.617503,-0.15914899999999998
1631018776466,-0.7674409999999999,0.617686,-0.160796
1631018776476,-0.7662209999999999,0.614758,-0.16165
1631018776485,-0.76494,0.612196,-0.16128399999999998
1631018776495,-0.765184,0.610671,-0.161833
1631018776505,-0.763598,0.609146,-0.16067399999999998
1631018776514,-0.762317,0.608231,-0.160552
1631018776524,-0.7622559999999999,0.608536,-0.16104
1631018776533,-0.761402,0.609634,-0.162199
1631018776543,-0.761158,0.610549,-0.162077
1631018776553,-0.761402,0.612745,-0.162077
1631018776562,-0.761463,0.612806,-0.16104
1631018776572,-0.761402,0.6137819999999999,-0.16043
1631018776581,-0.7622559999999999,0.614209,-0.159088
1631018776591,-0.762378,0.61427,-0.15884399999999999
1631018776601,-0.762927,0.614331,-0.15823399999999999
1631018776610,-0.763293,0.6156119999999999,-0.157075
1631018776620,-0.762622,0.615246,-0.156648
1631018776629,-0.763598,0.6146969999999999,-0.158417
1631018776639,-0.764818,0.614209,-0.160613
1631018776649,-0.764513,0.613294,-0.161101
1631018776658,-0.764513,0.613233,-0.162016
1631018776668,-0.763659,0.611159,-0.16128399999999998
1631018776677,-0.7634759999999999,0.611098,-0.160308
1631018776687,-0.7628659999999999,0.610549,-0.160796
1631018776697,-0.763659,0.61122,-0.16043
1631018776706,-0.7659159999999999,0.611708,-0.161223
1631018776716,-0.76677,0.612623,-0.162199
1631018776725,-0.765855,0.613111,-0.16287
1631018776735,-0.767258,0.613416,-0.16287
1631018776745,-0.766953,0.613721,-0.163053
1631018776754,-0.765977,0.613294,-0.16348
1631018776764,-0.765489,0.612379,-0.163297
1631018776773,-0.765062,0.612684,-0.163236
1631018776783,-0.764635,0.61244,-0.162504
1631018776793,-0.765245,0.612806,-0.163358
1631018776802,-0.7643909999999999,0.6131719999999999,-0.162077
1631018776812,-0.765184,0.612989,-0.162992
1631018776821,-0.763964,0.613538,-0.162992
1631018776831,-0.7625,0.613416,-0.163541
1631018776841,-0.762134,0.611769,-0.164273
1631018776850,-0.762195,0.611464,-0.163785
1631018776860,-0.762744,0.612074,-0.164822
1631018776869,-0.763537,0.612806,-0.163175
1631018776879,-0.7637809999999999,0.61305,-0.163175
1631018776889,-0.763415,0.612928,-0.162748
1631018776898,-0.762927,0.611769,-0.162321
1631018776908,-0.762134,0.612501,-0.163297
1631018776917,-0.762012,0.612806,-0.163724
1631018776927,-0.762805,0.612684,-0.163663
1631018776937,-0.763659,0.612074,-0.163785
1631018776946,-0.76433,0.6125619999999999,-0.163419
1631018776956,-0.763903,0.613843,-0.163968
1631018776965,-0.763598,0.613416,-0.163602
1631018776975,-0.763354,0.613904,-0.163907
1631018776985,-0.76311,0.613294,-0.16439499999999999
1631018776994,-0.762683,0.6131719999999999,-0.163175
1631018777004,-0.762134,0.6137819999999999,-0.163602
1631018777013,-0.761158,0.613294,-0.163724
1631018777023,-0.7604259999999999,0.612684,-0.161528
1631018777033,-0.760792,0.613721,-0.161406
1631018777042,-0.760304,0.6146969999999999,-0.160308
1631018777052,-0.760548,0.615124,-0.159515
1631018777061,-0.760182,0.6161,-0.159271
1631018777071,-0.76006,0.616466,-0.159332
1631018777081,-0.7604259999999999,0.617625,-0.158295
1631018777090,-0.7607309999999999,0.617259,-0.158173
1631018777100,-0.760975,0.6183569999999999,-0.158417
1631018777109,-0.761768,0.6186619999999999,-0.15677
1631018777119,-0.760975,0.618906,-0.15677
1631018777129,-0.760853,0.618784,-0.155611
1631018777138,-0.760548,0.617991,-0.155001
1631018777148,-0.760365,0.616649,-0.15616
1631018777157,-0.760975,0.6174419999999999,-0.158905
1631018777167,-0.760609,0.617259,-0.161833
1631018777177,-0.762744,0.615856,-0.163602
1631018777186,-0.762134,0.6140869999999999,-0.163541
1631018777196,-0.760914,0.613111,-0.160796
1631018777205,-0.7598159999999999,0.612684,-0.157807
1631018777215,-0.760182,0.613111,-0.15481799999999998
1631018777225,-0.761768,0.613843,-0.155001
1631018777234,-0.7631709999999999,0.61549,-0.156038
1631018777244,-0.765062,0.617198,-0.157746
1631018777253,-0.765184,0.61793,-0.158722
1631018777263,-0.766953,0.617564,-0.158661
1631018777273,-0.765367,0.616588,-0.159515
1631018777282,-0.764574,0.615673,-0.15945399999999998
1631018777292,-0.76372,0.613416,-0.158722
1631018777301,-0.763537,0.613294,-0.158783
1631018777311,-0.763354,0.612379,-0.158356
1631018777321,-0.763049,0.612623,-0.159332
1631018777330,-0.763232,0.612623,-0.160796
1631018777340,-0.7637809999999999,0.61366,-0.161345
1631018777349,-0.762988,0.613599,-0.162077
1631018777359,-0.762012,0.614026,-0.161955
1631018777369,-0.761524,0.612196,-0.16287
1631018777378,-0.762317,0.611464,-0.162809
1631018777388,-0.762805,0.612745,-0.161955
1631018777397,-0.7628659999999999,0.612623,-0.162443
1631018777407,-0.762134,0.612928,-0.162321
1631018777417,-0.7622559999999999,0.612501,-0.164151
1631018777426,-0.76372,0.612135,-0.165554
1631018777436,-0.764147,0.611769,-0.166591
1631018777445,-0.763293,0.612074,-0.16652999999999998
1631018777455,-0.7640859999999999,0.611769,-0.165249
1631018777465,-0.763537,0.61061,-0.164151
1631018777474,-0.7643909999999999,0.61061,-0.16348
1631018777484,-0.764757,0.611098,-0.163297
1631018777493,-0.764452,0.610854,-0.16287
1631018777503,-0.765245,0.612196,-0.164212
1631018777513,-0.765367,0.612501,-0.164639
1631018777522,-0.765245,0.61183,-0.16530999999999998
1631018777532,-0.765062,0.6128669999999999,-0.166103
1631018777541,-0.7659159999999999,0.612196,-0.165859
1631018777551,-0.7656109999999999,0.611525,-0.166713
1631018777561,-0.764452,0.61061,-0.16652999999999998
1631018777570,-0.764208,0.612196,-0.166408
1631018777580,-0.765062,0.611586,-0.166957
1631018777589,-0.7640859999999999,0.612684,-0.16744499999999998
1631018777599,-0.763659,0.61305,-0.167567
1631018777609,-0.763232,0.611891,-0.166713
1631018777618,-0.762805,0.610793,-0.16591999999999998
1631018777628,-0.7628659999999999,0.610671,-0.166896
1631018777637,-0.762622,0.611525,-0.166469
1631018777647,-0.762012,0.6110369999999999,-0.165432
1631018777657,-0.762439,0.6119519999999999,-0.164456
1631018777666,-0.762134,0.613233,-0.165188
1631018777676,-0.761402,0.613538,-0.164822
1631018777685,-0.761829,0.6134769999999999,-0.164517
1631018777695,-0.76189,0.6125619999999999,-0.164883
1631018777705,-0.762439,0.611891,-0.165981
1631018777714,-0.762378,0.6116469999999999,-0.165798
1631018777724,-0.761707,0.611586,-0.166347
1631018777733,-0.762134,0.611159,-0.167018
1631018777743,-0.7619509999999999,0.610244,-0.166896
1631018777753,-0.762195,0.6098169999999999,-0.167323
1631018777762,-0.760487,0.609573,-0.16683499999999998
1631018777772,-0.760853,0.608658,-0.166286
1631018777781,-0.762012,0.61061,-0.16530999999999998
1631018777791,-0.761585,0.610793,-0.163968
1631018777801,-0.762195,0.6125619999999999,-0.162931
1631018777810,-0.762439,0.613294,-0.161406
1631018777820,-0.7628659999999999,0.614758,-0.16067399999999998
1631018777829,-0.764208,0.615551,-0.16104
1631018777839,-0.76433,0.616344,-0.160186
1631018777849,-0.7643909999999999,0.616405,-0.159271
1631018777858,-0.764269,0.616893,-0.1586
1631018777868,-0.762988,0.6174419999999999,-0.15792899999999999
1631018777877,-0.763659,0.618723,-0.156404
1631018777887,-0.763903,0.618418,-0.155306
1631018777897,-0.7634759999999999,0.619638,-0.155794
1631018777906,-0.762439,0.618906,-0.157014
1631018777916,-0.762744,0.619394,-0.15823399999999999
1631018777925,-0.762012,0.616893,-0.158295
1631018777935,-0.76128,0.615063,-0.157441
1631018777945,-0.7604259999999999,0.614636,-0.156099
