timestamp,ax,ay,az
1630067310902,-0.395402,0.911584,-0.123586
1630067310912,-0.39466999999999997,0.913902,-0.122732
1630067310922,-0.394182,0.916037,-0.119865
1630067310931,-0.393877,0.915976,-0.117608
1630067310941,-0.395036,0.91683,-0.115961
1630067310950,-0.39466999999999997,0.916647,-0.11406999999999999
1630067310960,-0.395036,0.91805,-0.113826
1630067310970,-0.39466999999999997,0.919026,-0.114985
1630067310979,-0.394121,0.91927,-0.115961
1630067310989,-0.394487,0.918172,-0.116022
1630067310998,-0.39344999999999997,0.916342,-0.11608299999999999
1630067311008,-0.392108,0.915732,-0.11486299999999999
1630067311018,-0.391803,0.916952,-0.115046
1630067311027,-0.390522,0.916952,-0.115595
1630067311037,-0.388631,0.915061,-0.115656
1630067311046,-0.386862,0.913109,-0.117059
1630067311056,-0.38552,0.9128649999999999,-0.118218
1630067311066,-0.38356799999999996,0.911889,-0.11956
1630067311075,-0.380762,0.913719,-0.121573
1630067311085,-0.378932,0.912316,-0.119804
1630067311094,-0.376797,0.910608,-0.115351
1630067311104,-0.37685799999999997,0.907863,-0.11163
1630067311114,-0.37929799999999997,0.9055449999999999,-0.108397
1630067311123,-0.385032,0.903349,-0.109678
1630067311133,-0.39131499999999997,0.904386,-0.112301
1630067311142,-0.398696,0.906826,-0.114802
1630067311152,-0.403576,0.910364,-0.119133
1630067311162,-0.40443,0.915122,-0.120292
1630067311171,-0.403698,0.9182939999999999,-0.120475
1630067311181,-0.40150199999999997,0.919392,-0.11773
1630067311190,-0.39894,0.918782,-0.114253
1630067311200,-0.397903,0.917867,-0.112789
1630067051824,-0.507215,0.787327,-0.255285
1630067051833,-0.509716,0.787144,-0.254492
1630067051843,-0.512095,0.7896449999999999,-0.254492
1630067051853,-0.514962,0.789706,-0.252418
1630067051862,-0.517585,0.788364,-0.250466
1630067051872,-0.5179509999999999,0.7878149999999999,-0.249307
1630067051881,-0.5188659999999999,0.786778,-0.250344
1630067051891,-0.52094,0.7862899999999999,-0.253638
1630067051901,-0.523258,0.788181,-0.256017
1630067051910,-0.525088,0.790316,-0.256139
1630067051920,-0.52399,0.792634,-0.253638
1630067051929,-0.5219159999999999,0.79605,-0.252906
1630067051939,-0.519903,0.797758,-0.254126
1630067051949,-0.522465,0.801906,-0.254187
1630067051958,-0.526125,0.8069689999999999,-0.254492
1630067051968,-0.531127,0.810385,-0.254126
1630067051977,-0.5364949999999999,0.816851,-0.254736
1630067051987,-0.539118,0.825147,-0.254919
1630067051997,-0.540948,0.8294779999999999,-0.255163
1630067052006,-0.539911,0.832955,-0.255529
1630067052016,-0.540704,0.835944,-0.255712
1630067052025,-0.543327,0.841068,-0.25681
1630067052035,-0.546621,0.846985,-0.25699299999999997
1630067052045,-0.547902,0.844972,-0.257542
1630067052054,-0.5483899999999999,0.840824,-0.25681
1630067052064,-0.544547,0.831735,-0.253821
1630067052073,-0.537959,0.821121,-0.24973399999999998
1630067052083,-0.532408,0.814228,-0.247538
1630067052093,-0.526552,0.81008,-0.24522
1630067052102,-0.5213059999999999,0.8020889999999999,-0.240279
1630067052112,-0.5133759999999999,0.789218,-0.229909
1630067052121,-0.5124,0.782081,-0.226432
1630067052131,-0.517219,0.785253,-0.232044
1630067052141,-0.526308,0.791414,-0.242719
1630067052150,-0.536373,0.796294,-0.253516
1630067052160,-0.5453399999999999,0.799466,-0.261324
1630067052169,-0.552904,0.798002,-0.26809499999999997
1630067052179,-0.560102,0.795745,-0.271023
1630067052189,-0.565836,0.789889,-0.27266999999999997
1630067052198,-0.569435,0.782386,-0.271633
1630067052208,-0.573522,0.773785,-0.270962
1630067052217,-0.574376,0.7646959999999999,-0.269559
1630067052227,-0.577914,0.7576809999999999,-0.271328
1630067052237,-0.581696,0.755607,-0.272792
1630067052246,-0.586942,0.7524959999999999,-0.274866
1630067052256,-0.592737,0.746762,-0.275598
1630067052265,-0.5967629999999999,0.740601,-0.276208
1630067052275,-0.599691,0.731451,-0.275781
1630067052285,-0.600789,0.720471,-0.275049
1630067052294,-0.601948,0.708515,-0.271633
1630067052304,-0.602375,0.701195,-0.267973
1630067052313,-0.605303,0.696254,-0.267058
1630067052323,-0.6089019999999999,0.694912,-0.264069
1630067052333,-0.612806,0.69601,-0.264252
1630067052342,-0.616466,0.700585,-0.263154
1630067052352,-0.620919,0.706075,-0.260531
1630067052361,-0.624823,0.7132729999999999,-0.258945
1630067052371,-0.628727,0.721752,-0.256017
1630067052381,-0.6317159999999999,0.731573,-0.256139
1630067052390,-0.635254,0.746823,-0.255895
1630067052400,-0.640378,0.759877,-0.25729799999999997
1630067052409,-0.643062,0.772077,-0.257481
1630067052419,-0.644099,0.7777499999999999,-0.258701
1630067052429,-0.645624,0.7801899999999999,-0.261751
1630067052438,-0.64599,0.779031,-0.264862
1630067052448,-0.644892,0.775676,-0.264618
1630067052457,-0.643245,0.76982,-0.262544
1630067052467,-0.640073,0.765428,-0.260531
1630067052477,-0.639097,0.761707,-0.26169
1630067052486,-0.637267,0.75884,-0.26352
1630067052496,-0.63684,0.75579,-0.266631
1630067052505,-0.634705,0.751093,-0.269864
1630067052515,-0.631411,0.747555,-0.269986
1630067052525,-0.627568,0.745054,-0.27022999999999997
1630067052534,-0.625616,0.7434069999999999,-0.271816
1630067052544,-0.623054,0.744139,-0.275476
1630067052553,-0.61976,0.7403569999999999,-0.277855
1630067052563,-0.6161,0.7345619999999999,-0.279441
1630067052573,-0.614026,0.73017,-0.28194199999999997
1630067052582,-0.6101219999999999,0.728889,-0.279258
1630067052592,-0.60024,0.72773,-0.272121
1630067052601,-0.591456,0.724619,-0.26596
1630067052611,-0.58865,0.719373,-0.261995
1630067052621,-0.585966,0.7154079999999999,-0.260409
1630067052630,-0.583343,0.7163229999999999,-0.263581
1630067052640,-0.580415,0.717482,-0.267485
1630067052649,-0.578524,0.720044,-0.270169
1630067052659,-0.577243,0.723765,-0.271084
1630067052669,-0.576206,0.7272419999999999,-0.271084
1630067052678,-0.57584,0.734135,-0.27114499999999997
1630067052688,-0.576572,0.741028,-0.269254
1630067052697,-0.577365,0.748348,-0.26839999999999997
1630067052707,-0.57706,0.7555459999999999,-0.267973
1630067052717,-0.575474,0.7625609999999999,-0.268034
1630067052726,-0.57523,0.769088,-0.26900999999999997
1630067052736,-0.576206,0.7768349999999999,-0.26900999999999997
1630067052745,-0.575352,0.781898,-0.265777
1630067052755,-0.57401,0.787632,-0.263764
1630067052765,-0.572912,0.791597,-0.265167
1630067052774,-0.5693739999999999,0.790682,-0.264679
1630067052784,-0.567971,0.784277,-0.26291
1630067052793,-0.568825,0.780312,-0.260104
1630067052803,-0.568398,0.7765299999999999,-0.254919
1630067052813,-0.566202,0.7746999999999999,-0.252113
1630067052822,-0.565348,0.769576,-0.248331
1630067052832,-0.5669339999999999,0.763415,-0.245586
1630067052841,-0.5675439999999999,0.7628659999999999,-0.240035
1630067052851,-0.5666289999999999,0.764208,-0.238754
1630067052861,-0.56852,0.763903,-0.237778
1630067052870,-0.571387,0.763293,-0.236375
1630067052880,-0.573522,0.764147,-0.235704
1630067052889,-0.576267,0.768478,-0.23546
1630067052899,-0.577792,0.771955,-0.235948
1630067052909,-0.579744,0.775676,-0.23863199999999998
1630067052918,-0.581818,0.7792749999999999,-0.24326799999999998
1630067052928,-0.583404,0.781471,-0.245464
1630067052937,-0.584746,0.781959,-0.24705
1630067052947,-0.585234,0.783484,-0.24705
1630067052957,-0.585417,0.784399,-0.246379
1630067052966,-0.587125,0.7829349999999999,-0.24827
1630067052976,-0.588955,0.7814099999999999,-0.251198
1630067052985,-0.589321,0.782264,-0.254187
1630067052995,-0.587857,0.784826,-0.257542
1630067053005,-0.587735,0.787327,-0.262117
1630067053014,-0.584624,0.7875099999999999,-0.264313
1630067053024,-0.581513,0.788303,-0.268278
1630067053033,-0.575901,0.787449,-0.269742
1630067053043,-0.570045,0.785314,-0.266753
1630067053053,-0.5672389999999999,0.7850699999999999,-0.265899
1630067053062,-0.562542,0.784826,-0.266509
1630067053072,-0.559553,0.784582,-0.267851
1630067053081,-0.558089,0.783179,-0.267973
1630067053091,-0.555771,0.780678,-0.267058
1630067053101,-0.552965,0.777689,-0.262117
1630067053110,-0.547536,0.7756149999999999,-0.254126
1630067053120,-0.547414,0.775249,-0.249246
1630067053129,-0.547292,0.7753099999999999,-0.246928
1630067053139,-0.547292,0.776286,-0.245464
1630067053149,-0.5459499999999999,0.779763,-0.24705
1630067053158,-0.549366,0.779702,-0.24705
1630067053168,-0.550464,0.780068,-0.244366
1630067053177,-0.552172,0.780861,-0.24204799999999999
1630067053187,-0.551867,0.782386,-0.242902
1630067053197,-0.553453,0.782874,-0.24601299999999998
1630067053206,-0.557601,0.779946,-0.246196
1630067053216,-0.555893,0.777201,-0.24461
1630067053225,-0.557296,0.7750049999999999,-0.244976
1630067053235,-0.561078,0.776286,-0.24631799999999998
1630067053245,-0.564738,0.780068,-0.24790399999999999
1630067053254,-0.568886,0.785497,-0.255468
1630067053264,-0.571265,0.786656,-0.264923
1630067053273,-0.576755,0.784521,-0.271633
1630067053283,-0.579988,0.777506,-0.274988
1630067053293,-0.580171,0.772565,-0.277672
1630067053302,-0.581818,0.769393,-0.279868
1630067053312,-0.58194,0.762744,-0.279685
1630067053321,-0.58011,0.753838,-0.2806
1630067053331,-0.583221,0.753594,-0.285724
1630067053341,-0.58499,0.756705,-0.28731
1630067053350,-0.5851729999999999,0.761829,-0.287432
1630067053360,-0.585844,0.760975,-0.284138
1630067053369,-0.581086,0.7631709999999999,-0.271877
1630067053379,-0.578219,0.7622559999999999,-0.263581
1630067053389,-0.577975,0.763232,-0.262727
1630067053398,-0.577914,0.765855,-0.262666
1630067053408,-0.57523,0.768783,-0.2623
1630067053417,-0.575047,0.768905,-0.261141
1630067053427,-0.574132,0.766709,-0.260104
1630067053437,-0.574742,0.763598,-0.25681
1630067053446,-0.575169,0.757437,-0.254065
1630067053456,-0.57645,0.75335,-0.24820899999999999
1630067053465,-0.579378,0.750422,-0.246745
1630067053475,-0.581513,0.752618,-0.24479299999999998
1630067053485,-0.583892,0.756217,-0.246684
1630067053494,-0.585539,0.758779,-0.248575
1630067053504,-0.5876129999999999,0.762012,-0.251015
1630067053513,-0.591212,0.761097,-0.251076
1630067053523,-0.592432,0.76189,-0.251869
1630067053533,-0.591395,0.762988,-0.250588
1630067053542,-0.5946279999999999,0.761585,-0.24881899999999998
1630067053552,-0.5964579999999999,0.762195,-0.249002
1630067053561,-0.598044,0.763842,-0.248697
1630067053571,-0.597678,0.7610359999999999,-0.249978
1630067053581,-0.597617,0.7564,-0.255163
1630067053590,-0.598898,0.75701,-0.258945
1630067053600,-0.599569,0.756827,-0.26126299999999997
1630067053609,-0.598959,0.7592059999999999,-0.263215
1630067053619,-0.598288,0.761402,-0.26004299999999997
1630067053629,-0.595909,0.761768,-0.25638299999999997
1630067053638,-0.5937129999999999,0.7643909999999999,-0.253394
1630067053648,-0.591944,0.7671359999999999,-0.253394
1630067053657,-0.590907,0.768783,-0.254858
1630067053667,-0.591456,0.768234,-0.255529
1630067053677,-0.590419,0.769027,-0.25559
1630067053686,-0.58987,0.7686,-0.2562
1630067053696,-0.590175,0.768112,-0.254431
1630067053705,-0.5879179999999999,0.7665259999999999,-0.252296
1630067053715,-0.586515,0.76555,-0.249246
1630067053725,-0.586637,0.763598,-0.247965
1630067053734,-0.587796,0.762622,-0.24820899999999999
1630067053744,-0.5873079999999999,0.7622559999999999,-0.246989
1630067053753,-0.587247,0.7613409999999999,-0.248636
1630067053763,-0.588284,0.761707,-0.248575
1630067053773,-0.588406,0.760609,-0.248697
1630067053782,-0.588772,0.759389,-0.247233
1630067053792,-0.589382,0.761402,-0.248026
1630067053801,-0.58926,0.761097,-0.249612
1630067053811,-0.590907,0.761768,-0.252174
1630067053821,-0.591944,0.7613409999999999,-0.253516
1630067053830,-0.59292,0.760365,-0.254858
1630067053840,-0.592859,0.759938,-0.257115
1630067053849,-0.592676,0.760548,-0.25943299999999997
1630067053859,-0.590541,0.757132,-0.259494
1630067053869,-0.5912729999999999,0.755912,-0.26047
1630067053878,-0.593896,0.755119,-0.261141
1630067053888,-0.594262,0.7543259999999999,-0.26108
1630067053897,-0.593042,0.75396,-0.25760299999999997
1630067053907,-0.5927979999999999,0.755119,-0.25790799999999997
1630067053917,-0.5917,0.7543259999999999,-0.255224
1630067053926,-0.58926,0.75945,-0.253211
1630067053936,-0.5888329999999999,0.763293,-0.252723
1630067053945,-0.58926,0.763842,-0.251808
1630067053955,-0.58743,0.76555,-0.24912399999999998
1630067053965,-0.5870029999999999,0.764513,-0.249795
1630067053974,-0.5856,0.7650009999999999,-0.249307
1630067053984,-0.584929,0.764452,-0.247172
1630067053993,-0.584441,0.7646959999999999,-0.24790399999999999
1630067054003,-0.583465,0.763659,-0.249368
1630067054013,-0.58377,0.761524,-0.248148
1630067054022,-0.586454,0.760365,-0.249246
1630067054032,-0.586576,0.759877,-0.248575
1630067054041,-0.5879179999999999,0.761768,-0.249185
1630067054051,-0.586881,0.76372,-0.251259
1630067054061,-0.587125,0.7613409999999999,-0.252723
1630067054070,-0.585905,0.759572,-0.252906
1630067054080,-0.585905,0.76128,-0.252662
1630067054089,-0.589992,0.762988,-0.255956
1630067054099,-0.5891379999999999,0.765123,-0.25986
1630067054109,-0.587796,0.764025,-0.258884
1630067054118,-0.587674,0.7628659999999999,-0.256017
1630067054128,-0.5876129999999999,0.762012,-0.254919
1630067054137,-0.5882229999999999,0.761768,-0.255346
1630067054147,-0.588162,0.7628659999999999,-0.25821299999999997
1630067054157,-0.588101,0.765794,-0.26034799999999997
1630067054166,-0.588162,0.76738,-0.261751
1630067054176,-0.588162,0.768478,-0.263825
1630067054185,-0.587674,0.769088,-0.26413
1630067054195,-0.586271,0.768844,-0.262544
1630067054205,-0.5851729999999999,0.767624,-0.26065299999999997
1630067054214,-0.581879,0.767685,-0.262605
1630067054224,-0.582245,0.766709,-0.26474
1630067054233,-0.583221,0.765245,-0.266753
1630067054243,-0.584319,0.763415,-0.266387
1630067054253,-0.58255,0.763049,-0.266265
1630067054262,-0.581452,0.76311,-0.265838
1630067054272,-0.580903,0.764574,-0.265594
1630067054281,-0.580232,0.765245,-0.265228
1630067054291,-0.579622,0.765672,-0.26535
1630067054301,-0.579744,0.7656109999999999,-0.264069
1630067054310,-0.578524,0.76433,-0.263215
1630067054320,-0.576755,0.761463,-0.262239
1630067054329,-0.577548,0.761829,-0.264984
1630067054339,-0.579317,0.761707,-0.265777
1630067054349,-0.58011,0.76128,-0.26900999999999997
1630067054358,-0.579256,0.761158,-0.270108
1630067054368,-0.579988,0.758962,-0.265899
1630067054377,-0.579134,0.7585959999999999,-0.260714
1630067054387,-0.578768,0.75945,-0.257542
1630067054397,-0.58133,0.759084,-0.25638299999999997
1630067054406,-0.582306,0.759694,-0.257176
1630067054416,-0.58133,0.762012,-0.259006
1630067054425,-0.581574,0.766648,-0.25864
1630067054435,-0.579744,0.770735,-0.258701
1630067054445,-0.577609,0.775859,-0.25803
1630067054454,-0.576999,0.776103,-0.257542
1630067054464,-0.576511,0.775066,-0.256078
1630067054473,-0.576389,0.77287,-0.252357
1630067054483,-0.576267,0.769393,-0.250832
1630067054493,-0.57828,0.767685,-0.24942899999999998
1630067054502,-0.577182,0.76799,-0.249246
1630067054512,-0.576511,0.769942,-0.247782
1630067054521,-0.575962,0.772199,-0.24888
1630067054531,-0.576328,0.773358,-0.248697
1630067054541,-0.576633,0.773419,-0.24851399999999998
1630067054550,-0.576023,0.772321,-0.24790399999999999
1630067054560,-0.578707,0.770674,-0.249856
1630067054569,-0.580049,0.768722,-0.250649
1630067054579,-0.581086,0.768661,-0.249856
1630067054589,-0.5795,0.767807,-0.248331
1630067054598,-0.579927,0.767319,-0.247965
1630067054608,-0.579256,0.768173,-0.249002
1630067054617,-0.578829,0.769576,-0.250893
1630067054627,-0.580232,0.769698,-0.251808
1630067054637,-0.579744,0.769393,-0.251869
1630067054646,-0.579134,0.769637,-0.251808
1630067054656,-0.579317,0.769149,-0.251015
1630067054665,-0.579195,0.768844,-0.249978
1630067054675,-0.581574,0.770857,-0.25193
1630067054685,-0.57889,0.770308,-0.253089
1630067054694,-0.58011,0.772016,-0.253516
1630067054704,-0.583038,0.774212,-0.254187
1630067054713,-0.580537,0.772138,-0.254248
1630067054723,-0.578768,0.771345,-0.251564
1630067054733,-0.576267,0.775188,-0.249002
1630067054742,-0.573766,0.775432,-0.24705
1630067054752,-0.575413,0.7768349999999999,-0.246684
1630067054761,-0.574193,0.775554,-0.24827
1630067054771,-0.57584,0.774822,-0.247843
1630067054781,-0.57462,0.774639,-0.24766
1630067054790,-0.574681,0.773785,-0.248392
1630067054800,-0.575291,0.774212,-0.24973399999999998
1630067054809,-0.576694,0.775676,-0.249612
1630067054819,-0.576816,0.777506,-0.251442
1630067054829,-0.576877,0.778299,-0.251381
1630067054838,-0.573949,0.778116,-0.249246
1630067054848,-0.571997,0.776469,-0.24790399999999999
1630067054857,-0.570655,0.7771399999999999,-0.250222
1630067054867,-0.569435,0.776347,-0.252296
1630067054877,-0.5684589999999999,0.771406,-0.251198
1630067054886,-0.568581,0.769027,-0.252052
1630067054896,-0.571692,0.769332,-0.255712
1630067054905,-0.573644,0.772687,-0.257786
1630067054915,-0.57462,0.77104,-0.25638299999999997
1630067054925,-0.573644,0.768661,-0.251015
1630067054934,-0.5724239999999999,0.768112,-0.245525
1630067054944,-0.572912,0.77104,-0.241804
1630067054953,-0.573461,0.773053,-0.24296299999999998
1630067054963,-0.573766,0.773785,-0.243634
1630067054973,-0.574742,0.775432,-0.245769
1630067054982,-0.575108,0.776408,-0.248026
1630067054992,-0.57523,0.776957,-0.249673
1630067055001,-0.576694,0.7756149999999999,-0.250466
1630067055011,-0.577731,0.773724,-0.250954
1630067055021,-0.577731,0.770796,-0.251442
1630067055030,-0.577792,0.76799,-0.250344
1630067055040,-0.578768,0.766587,-0.249673
1630067055049,-0.578646,0.765794,-0.250954
1630067055059,-0.580232,0.765245,-0.251808
1630067055069,-0.580232,0.765672,-0.25315
1630067055078,-0.581513,0.766282,-0.254553
1630067055088,-0.580659,0.767014,-0.254309
1630067055097,-0.581818,0.7674409999999999,-0.254736
1630067055107,-0.582794,0.76921,-0.254797
1630067055117,-0.584441,0.770735,-0.253882
1630067055126,-0.583343,0.771528,-0.253211
1630067055136,-0.583404,0.77043,-0.253699
1630067055145,-0.584685,0.769637,-0.253516
1630067055155,-0.584319,0.768295,-0.25437
1630067055165,-0.584197,0.768539,-0.2562
1630067055174,-0.582916,0.769271,-0.257237
1630067055184,-0.581879,0.76921,-0.255773
1630067055193,-0.580781,0.768722,-0.251442
1630067055203,-0.58072,0.768905,-0.2501
1630067055213,-0.581452,0.769454,-0.250771
1630067055222,-0.582245,0.770857,-0.252479
1630067055232,-0.582794,0.771772,-0.255224
1630067055241,-0.582794,0.773297,-0.256566
1630067055251,-0.581086,0.773175,-0.256017
1630067055261,-0.580171,0.77409,-0.256139
1630067055270,-0.579256,0.773846,-0.254858
1630067055280,-0.578524,0.772626,-0.254797
1630067055289,-0.578158,0.772931,-0.253638
1630067055299,-0.578768,0.772077,-0.254065
1630067055309,-0.578768,0.770491,-0.255407
1630067055318,-0.5795,0.770369,-0.256627
1630067055328,-0.579134,0.77043,-0.25699299999999997
1630067055337,-0.577548,0.76799,-0.253577
1630067055347,-0.576084,0.765733,-0.250771
1630067055357,-0.575718,0.7659159999999999,-0.24912399999999998
1630067055366,-0.575474,0.76677,-0.249307
1630067055376,-0.575291,0.767563,-0.250039
1630067055385,-0.575779,0.76738,-0.250649
1630067055395,-0.576389,0.768966,-0.251015
1630067055405,-0.577975,0.769454,-0.251686
1630067055414,-0.578768,0.769088,-0.252601
1630067055424,-0.579866,0.768112,-0.251991
1630067055433,-0.58072,0.767319,-0.25315
1630067055443,-0.579561,0.766709,-0.253272
1630067055453,-0.579195,0.767197,-0.254126
1630067055462,-0.580171,0.766709,-0.255102
1630067055472,-0.58011,0.766282,-0.254858
1630067055481,-0.578768,0.766099,-0.254004
1630067055491,-0.578524,0.76677,-0.254187
1630067055501,-0.579012,0.7668309999999999,-0.253882
1630067055510,-0.578829,0.766953,-0.253211
1630067055520,-0.579195,0.768783,-0.252723
1630067055529,-0.578524,0.770308,-0.252418
1630067055539,-0.576999,0.771223,-0.251747
1630067055549,-0.576877,0.771955,-0.25071
1630067055558,-0.576328,0.772565,-0.249978
1630067055568,-0.575779,0.77348,-0.248636
1630067055577,-0.575962,0.774395,-0.249246
1630067055587,-0.576572,0.7759199999999999,-0.249673
1630067055597,-0.576023,0.776957,-0.250893
1630067055606,-0.57584,0.7774449999999999,-0.251747
1630067055616,-0.576084,0.776774,-0.25071
1630067055625,-0.577426,0.777079,-0.253394
1630067055635,-0.577609,0.776713,-0.25559
1630067055645,-0.575047,0.773602,-0.256139
1630067055654,-0.574071,0.769332,-0.255163
1630067055664,-0.574437,0.769332,-0.255712
1630067055673,-0.576206,0.771467,-0.258396
1630067055683,-0.576694,0.774395,-0.25803
1630067055693,-0.574742,0.774212,-0.255895
1630067055702,-0.572912,0.772565,-0.252662
1630067055712,-0.573156,0.771772,-0.249856
1630067055721,-0.572912,0.772016,-0.248758
1630067055731,-0.572607,0.771772,-0.249917
1630067055741,-0.573217,0.772748,-0.252052
1630067055750,-0.573766,0.773724,-0.254614
1630067055760,-0.574437,0.77409,-0.257786
1630067055769,-0.575291,0.773053,-0.260714
1630067055779,-0.575474,0.771406,-0.260287
1630067055789,-0.574864,0.768966,-0.259677
1630067055798,-0.575657,0.767319,-0.259555
1630067055808,-0.576145,0.765245,-0.259982
1630067055817,-0.577487,0.764635,-0.260836
1630067055827,-0.578463,0.763659,-0.261934
1630067055837,-0.579866,0.764208,-0.262727
1630067055846,-0.58072,0.7637809999999999,-0.26352
1630067055856,-0.581696,0.765245,-0.26474
1630067055865,-0.580598,0.766038,-0.265106
1630067055875,-0.579073,0.766587,-0.26535
1630067055885,-0.578402,0.768661,-0.263703
1630067055894,-0.576328,0.769515,-0.260836
1630067055904,-0.576694,0.768966,-0.25986
1630067055913,-0.57462,0.769332,-0.260714
1630067055923,-0.574742,0.769881,-0.2623
1630067055933,-0.574986,0.76921,-0.264862
1630067055942,-0.574315,0.767258,-0.265838
1630067055952,-0.573339,0.766709,-0.263276
1630067055961,-0.572302,0.765489,-0.260409
1630067055971,-0.573034,0.767014,-0.260226
1630067055981,-0.572241,0.767502,-0.256932
1630067055990,-0.5724239999999999,0.770857,-0.256566
1630067056000,-0.571326,0.77226,-0.257359
1630067056009,-0.5718139999999999,0.774517,-0.257847
1630067056019,-0.573156,0.775859,-0.259494
1630067056029,-0.572912,0.7771399999999999,-0.26095799999999997
1630067056038,-0.572912,0.776347,-0.26126299999999997
1630067056048,-0.573156,0.775249,-0.262178
1630067056057,-0.572973,0.773907,-0.26065299999999997
1630067056067,-0.572546,0.773053,-0.260409
1630067056077,-0.571265,0.770552,-0.260592
1630067056086,-0.5715089999999999,0.769942,-0.259616
1630067056096,-0.571021,0.770735,-0.259372
1630067056105,-0.57157,0.771833,-0.260226
1630067056115,-0.571631,0.772809,-0.26065299999999997
1630067056125,-0.572058,0.774212,-0.26065299999999997
1630067056134,-0.570228,0.774944,-0.26004299999999997
1630067056144,-0.570838,0.7753099999999999,-0.259677
1630067056153,-0.571448,0.774517,-0.259555
1630067056163,-0.572302,0.77409,-0.25973799999999997
1630067056173,-0.572485,0.773419,-0.260714
1630067056182,-0.571936,0.772687,-0.261385
1630067056192,-0.572607,0.77226,-0.262422
1630067056201,-0.571387,0.771955,-0.262056
1630067056211,-0.570655,0.772016,-0.262727
1630067056221,-0.570777,0.770979,-0.262605
1630067056230,-0.570838,0.770247,-0.26156799999999997
1630067056240,-0.57035,0.769698,-0.259494
1630067056249,-0.570655,0.770918,-0.25943299999999997
1630067056259,-0.570106,0.771406,-0.25882299999999997
1630067056269,-0.57096,0.772016,-0.25803
1630067056278,-0.570716,0.772504,-0.257725
1630067056288,-0.5705939999999999,0.773358,-0.25668799999999997
1630067056297,-0.57035,0.772992,-0.256871
1630067056307,-0.570472,0.773907,-0.255651
1630067056317,-0.56974,0.773663,-0.25437
1630067056326,-0.569191,0.773907,-0.251991
1630067056336,-0.5693739999999999,0.773602,-0.251015
1630067056345,-0.571021,0.772504,-0.249795
1630067056355,-0.5727289999999999,0.772016,-0.24881899999999998
1630067056365,-0.573339,0.771467,-0.245891
1630067056374,-0.572241,0.772016,-0.24387799999999998
1630067056384,-0.573095,0.773419,-0.244305
1630067056393,-0.573766,0.774822,-0.244549
1630067056403,-0.575474,0.776774,-0.24540299999999998
1630067056413,-0.57706,0.778116,-0.246989
1630067056422,-0.579134,0.777384,-0.249246
1630067056432,-0.580232,0.7765299999999999,-0.250405
1630067056441,-0.580781,0.777018,-0.251869
1630067056451,-0.579866,0.775066,-0.252357
1630067056461,-0.580781,0.774578,-0.253516
1630067056470,-0.581086,0.772077,-0.254553
1630067056480,-0.578646,0.7671359999999999,-0.252601
1630067056489,-0.579012,0.765062,-0.25193
1630067056499,-0.58011,0.76738,-0.254126
1630067056509,-0.582611,0.771101,-0.255895
1630067056518,-0.581513,0.771894,-0.254492
1630067056528,-0.580171,0.771528,-0.250649
1630067056537,-0.580354,0.772321,-0.24766
1630067056547,-0.580598,0.77348,-0.247843
1630067056557,-0.580354,0.775066,-0.249063
1630067056566,-0.579622,0.7765299999999999,-0.2501
1630067056576,-0.580171,0.777506,-0.251808
1630067056585,-0.579805,0.777079,-0.254126
1630067056595,-0.579012,0.775981,-0.255224
1630067056605,-0.579012,0.775371,-0.255407
1630067056614,-0.577731,0.77287,-0.25437
1630067056624,-0.576511,0.77043,-0.253699
1630067056633,-0.575718,0.767624,-0.254553
1630067056643,-0.575657,0.766587,-0.255529
1630067056653,-0.575657,0.765489,-0.256566
1630067056662,-0.574742,0.766709,-0.25790799999999997
1630067056672,-0.57523,0.767563,-0.259677
1630067056681,-0.575413,0.767685,-0.259677
1630067056691,-0.575718,0.768905,-0.25986
1630067056701,-0.574864,0.769454,-0.259067
1630067056710,-0.574986,0.770064,-0.25864
1630067056720,-0.574071,0.771406,-0.258274
1630067056729,-0.573217,0.769393,-0.25925
1630067056739,-0.574742,0.767014,-0.26108
1630067056749,-0.576328,0.766404,-0.262056
1630067056758,-0.578036,0.766465,-0.2623
1630067056768,-0.578951,0.765733,-0.264618
1630067056777,-0.577792,0.765245,-0.262056
1630067056787,-0.57706,0.765733,-0.25638299999999997
1630067056797,-0.576755,0.76738,-0.252967
1630067056806,-0.57523,0.770308,-0.250832
1630067056816,-0.573339,0.775066,-0.249612
1630067056825,-0.574376,0.778848,-0.24888
1630067056835,-0.574071,0.7811049999999999,-0.249856
1630067056845,-0.574681,0.7820199999999999,-0.250039
1630067056854,-0.57523,0.783118,-0.25193
1630067056864,-0.574986,0.781532,-0.251259
1630067056873,-0.575657,0.778421,-0.251198
1630067056883,-0.576084,0.7753099999999999,-0.251625
1630067056893,-0.576694,0.771772,-0.251076
1630067056902,-0.574254,0.76982,-0.251198
1630067056912,-0.57401,0.768661,-0.252296
1630067056921,-0.573766,0.768905,-0.253333
1630067056931,-0.575962,0.769271,-0.253272
1630067056941,-0.575291,0.768478,-0.253638
1630067056950,-0.575596,0.768112,-0.254004
1630067056960,-0.575718,0.769271,-0.254919
1630067056969,-0.576511,0.768051,-0.254431
1630067056979,-0.577731,0.7677459999999999,-0.255956
1630067056989,-0.579012,0.76677,-0.25729799999999997
1630067056998,-0.5795,0.766953,-0.257359
1630067057008,-0.579561,0.766282,-0.25699299999999997
1630067057017,-0.579195,0.766709,-0.257176
1630067057027,-0.579683,0.767258,-0.256139
1630067057037,-0.579744,0.766404,-0.25498
1630067057046,-0.579988,0.7659159999999999,-0.255102
1630067057056,-0.579988,0.76677,-0.255773
1630067057065,-0.58072,0.767075,-0.25729799999999997
1630067057075,-0.579866,0.767319,-0.257969
1630067057085,-0.579683,0.767197,-0.256444
1630067057094,-0.580354,0.76738,-0.25559
1630067057104,-0.579256,0.768112,-0.255468
1630067057113,-0.579439,0.768905,-0.25559
1630067057123,-0.5795,0.769088,-0.255834
1630067057133,-0.579256,0.770613,-0.256444
1630067057142,-0.580293,0.769881,-0.257237
1630067057152,-0.580598,0.76982,-0.25742
1630067057161,-0.580232,0.770125,-0.257054
1630067057171,-0.580415,0.770674,-0.255773
1630067057181,-0.579744,0.770613,-0.255651
1630067057190,-0.578646,0.771101,-0.255834
1630067057200,-0.577853,0.771467,-0.254126
1630067057209,-0.576999,0.771223,-0.252967
1630067057219,-0.576023,0.771894,-0.252174
1630067057229,-0.575779,0.773297,-0.25254
1630067057238,-0.574742,0.772809,-0.253272
1630067057248,-0.574864,0.773114,-0.252296
1630067057257,-0.574376,0.773663,-0.251442
1630067057267,-0.574681,0.772443,-0.251198
1630067057277,-0.573522,0.772321,-0.251137
1630067057286,-0.574498,0.772138,-0.250405
1630067057296,-0.573583,0.771528,-0.250588
1630067057305,-0.574803,0.772138,-0.250771
1630067057315,-0.576511,0.772565,-0.252113
1630067057325,-0.577975,0.772626,-0.253821
1630067057334,-0.578829,0.77165,-0.254248
1630067057344,-0.578158,0.771894,-0.254065
1630067057353,-0.577548,0.769637,-0.253882
1630067057363,-0.578341,0.768783,-0.252784
1630067057373,-0.578463,0.767502,-0.252784
1630067057382,-0.577121,0.764879,-0.254126
1630067057392,-0.576999,0.764635,-0.256505
1630067057401,-0.579439,0.76738,-0.25803
1630067057411,-0.58072,0.770125,-0.257786
1630067057421,-0.579988,0.769332,-0.255163
1630067057430,-0.577487,0.768722,-0.249978
1630067057440,-0.577853,0.768478,-0.245891
1630067057449,-0.578524,0.769393,-0.24631799999999998
1630067057459,-0.577853,0.773175,-0.24820899999999999
1630067057469,-0.578097,0.774578,-0.250344
1630067057478,-0.578524,0.776286,-0.251625
1630067057488,-0.578402,0.775798,-0.252052
1630067057497,-0.579622,0.7765299999999999,-0.252601
1630067057507,-0.577792,0.775554,-0.251686
1630067057517,-0.57767,0.772382,-0.24949
1630067057526,-0.577243,0.770796,-0.24766
1630067057536,-0.57645,0.769515,-0.247538
1630067057545,-0.576572,0.769088,-0.249551
1630067057555,-0.576206,0.769759,-0.251625
1630067057565,-0.576084,0.771772,-0.253882
1630067057574,-0.576023,0.773236,-0.256322
1630067057584,-0.576999,0.773053,-0.257054
1630067057593,-0.577426,0.772382,-0.25790799999999997
1630067057603,-0.577548,0.771894,-0.25803
1630067057613,-0.577914,0.771589,-0.257054
1630067057622,-0.577182,0.771955,-0.255651
1630067057632,-0.576145,0.770674,-0.255346
1630067057641,-0.574498,0.772016,-0.259067
1630067057651,-0.575291,0.77226,-0.258274
1630067057661,-0.574803,0.773602,-0.260531
1630067057670,-0.572363,0.774517,-0.26108
1630067057680,-0.5702889999999999,0.773419,-0.25760299999999997
1630067057689,-0.569252,0.771467,-0.253394
1630067057699,-0.569618,0.770003,-0.249246
1630067057709,-0.570716,0.769759,-0.248392
1630067057718,-0.571448,0.771894,-0.249246
1630067057728,-0.57218,0.775066,-0.252357
1630067057737,-0.573583,0.7765299999999999,-0.25559
1630067057747,-0.575962,0.777567,-0.257969
1630067057757,-0.576694,0.778299,-0.258884
1630067057766,-0.576938,0.777079,-0.258396
1630067057776,-0.576267,0.775432,-0.25790799999999997
1630067057785,-0.57584,0.774212,-0.256444
1630067057795,-0.576084,0.772138,-0.255529
1630067057805,-0.575596,0.770369,-0.255163
1630067057814,-0.575596,0.769454,-0.256078
1630067057824,-0.575352,0.770247,-0.25681
1630067057833,-0.575352,0.770186,-0.256932
1630067057843,-0.575108,0.770674,-0.257054
1630067057853,-0.575535,0.771589,-0.256505
1630067057862,-0.574559,0.771528,-0.256627
1630067057872,-0.574681,0.772748,-0.255956
1630067057881,-0.575047,0.773236,-0.255163
1630067057891,-0.574437,0.773846,-0.255285
1630067057901,-0.573705,0.774334,-0.256017
1630067057910,-0.574132,0.7746999999999999,-0.2562
1630067057920,-0.573278,0.775188,-0.25638299999999997
1630067057929,-0.572851,0.774029,-0.256078
1630067057939,-0.573095,0.772199,-0.25559
1630067057949,-0.573156,0.77043,-0.256261
1630067057958,-0.57279,0.768478,-0.256139
1630067057968,-0.5727289999999999,0.768356,-0.256444
1630067057977,-0.572363,0.769515,-0.256627
1630067057987,-0.5721189999999999,0.77043,-0.25803
1630067057997,-0.57157,0.771589,-0.258701
1630067058006,-0.571265,0.772199,-0.258396
1630067058016,-0.57096,0.772687,-0.258884
1630067058025,-0.570472,0.772992,-0.259189
1630067058035,-0.570716,0.772504,-0.258152
1630067058045,-0.570228,0.771894,-0.256627
1630067058054,-0.570838,0.77348,-0.25638299999999997
1630067058064,-0.570655,0.771894,-0.256322
1630067058073,-0.571082,0.772809,-0.255102
1630067058083,-0.570167,0.773846,-0.255346
1630067058093,-0.570045,0.773907,-0.255346
1630067058102,-0.570655,0.775127,-0.253699
1630067058112,-0.572058,0.776042,-0.254675
1630067058121,-0.572058,0.7774449999999999,-0.254065
1630067058131,-0.572058,0.7774449999999999,-0.254248
1630067058141,-0.571387,0.777933,-0.254309
1630067058150,-0.571143,0.776652,-0.252662
1630067058160,-0.572363,0.775432,-0.251564
1630067058169,-0.5712039999999999,0.77409,-0.250954
1630067058179,-0.571936,0.774212,-0.250954
1630067058189,-0.5721189999999999,0.775554,-0.251198
1630067058198,-0.572058,0.7759199999999999,-0.251137
1630067058208,-0.5727289999999999,0.777018,-0.252174
1630067058217,-0.5727289999999999,0.776103,-0.251442
1630067058227,-0.5727289999999999,0.775859,-0.250893
1630067058237,-0.573034,0.774639,-0.250649
1630067058246,-0.573705,0.774822,-0.251991
1630067058256,-0.575535,0.773968,-0.25254
1630067058265,-0.576633,0.774334,-0.255041
1630067058275,-0.576267,0.773724,-0.255407
1630067058285,-0.57828,0.773419,-0.25729799999999997
1630067058294,-0.57767,0.772626,-0.25790799999999997
1630067058304,-0.578463,0.77287,-0.25803
1630067058313,-0.577792,0.771223,-0.258579
1630067058323,-0.576084,0.766648,-0.259677
1630067058333,-0.574925,0.7650009999999999,-0.260409
1630067058342,-0.576572,0.766648,-0.260836
1630067058352,-0.57828,0.768783,-0.261202
1630067058361,-0.576084,0.76921,-0.25925
1630067058371,-0.574498,0.768295,-0.253821
1630067058381,-0.5734,0.768112,-0.24827
1630067058390,-0.574132,0.769454,-0.247355
1630067058400,-0.574986,0.773541,-0.249002
1630067058409,-0.575535,0.775554,-0.252296
1630067058419,-0.576206,0.7768349999999999,-0.254431
1630067058429,-0.576328,0.777079,-0.256505
1630067058438,-0.575901,0.777567,-0.25681
1630067058448,-0.575291,0.776103,-0.256444
1630067058457,-0.574254,0.774395,-0.25437
1630067058467,-0.573095,0.770613,-0.25254
1630067058477,-0.5734,0.768844,-0.252723
1630067058486,-0.573583,0.76799,-0.253516
1630067058496,-0.574681,0.767502,-0.255407
1630067058505,-0.574498,0.76799,-0.257359
1630067058515,-0.576084,0.769149,-0.258762
1630067058525,-0.575962,0.769881,-0.25760299999999997
1630067058534,-0.575291,0.771772,-0.256078
1630067058544,-0.57462,0.772992,-0.25681
1630067058553,-0.574986,0.774212,-0.255834
1630067058563,-0.57584,0.7756149999999999,-0.25498
1630067058573,-0.575352,0.777201,-0.254004
1630067058582,-0.5734,0.7750049999999999,-0.252906
1630067058592,-0.573156,0.774761,-0.254797
1630067058601,-0.574132,0.774334,-0.255346
1630067058611,-0.574986,0.772626,-0.255712
1630067058621,-0.574254,0.772443,-0.257176
1630067058630,-0.57401,0.771284,-0.256932
1630067058640,-0.57401,0.769515,-0.253394
1630067058649,-0.574315,0.768661,-0.252052
1630067058659,-0.574254,0.769393,-0.252906
1630067058669,-0.574986,0.770918,-0.253882
1630067058678,-0.576999,0.772321,-0.256078
1630067058688,-0.57767,0.775432,-0.258152
1630067058697,-0.579439,0.775249,-0.259494
1630067058707,-0.578646,0.776591,-0.260592
1630067058717,-0.57767,0.775188,-0.259799
1630067058726,-0.577182,0.772931,-0.257115
1630067058736,-0.577853,0.769942,-0.25498
1630067058745,-0.576633,0.768844,-0.255102
1630067058755,-0.575413,0.766953,-0.253394
1630067058765,-0.577426,0.765855,-0.252967
1630067058774,-0.578158,0.7665259999999999,-0.254248
1630067058784,-0.578585,0.767319,-0.254248
1630067058793,-0.578341,0.767685,-0.253943
1630067058803,-0.578341,0.769637,-0.253943
1630067058813,-0.578402,0.770674,-0.254614
1630067058822,-0.578219,0.770918,-0.253577
1630067058832,-0.577365,0.769881,-0.252235
1630067058841,-0.578036,0.769942,-0.253089
1630067058851,-0.579195,0.768661,-0.253272
1630067058861,-0.580049,0.769454,-0.254614
1630067058870,-0.579988,0.769149,-0.257969
1630067058880,-0.579439,0.769393,-0.259494
1630067058889,-0.580354,0.769515,-0.26108
1630067058899,-0.579134,0.769332,-0.26169
1630067058909,-0.577548,0.767624,-0.261507
1630067058918,-0.576755,0.766709,-0.261385
1630067058928,-0.57584,0.767014,-0.26065299999999997
1630067058937,-0.575901,0.767685,-0.260104
1630067058947,-0.575474,0.769088,-0.261324
1630067058957,-0.575352,0.768783,-0.260592
1630067058966,-0.575108,0.769332,-0.259494
1630067058976,-0.575291,0.770369,-0.259677
1630067058985,-0.573888,0.772138,-0.25986
1630067058995,-0.573705,0.773785,-0.25986
1630067059005,-0.573217,0.773541,-0.25925
1630067059014,-0.5718139999999999,0.773724,-0.258274
1630067059024,-0.571875,0.77348,-0.257115
1630067059033,-0.573095,0.774334,-0.256444
1630067059043,-0.573583,0.774944,-0.258335
1630067059053,-0.574132,0.774212,-0.259799
1630067059062,-0.573888,0.773846,-0.25973799999999997
1630067059072,-0.574498,0.773602,-0.26034799999999997
1630067059081,-0.573949,0.771528,-0.25973799999999997
1630067059091,-0.573583,0.770125,-0.259494
1630067059101,-0.573156,0.768783,-0.25790799999999997
1630067059110,-0.574681,0.768234,-0.258701
1630067059120,-0.575718,0.769515,-0.260287
1630067059129,-0.575108,0.768783,-0.26004299999999997
1630067059139,-0.575474,0.768112,-0.260592
1630067059149,-0.574864,0.768234,-0.259799
1630067059158,-0.577182,0.76738,-0.260104
1630067059168,-0.576938,0.76738,-0.260226
1630067059177,-0.57706,0.767624,-0.259921
1630067059187,-0.578341,0.768783,-0.259616
1630067059197,-0.579683,0.769942,-0.261446
1630067059206,-0.5795,0.770491,-0.263642
1630067059216,-0.580354,0.769454,-0.2623
1630067059225,-0.579744,0.768356,-0.261995
1630067059235,-0.580171,0.765977,-0.260897
1630067059245,-0.579683,0.765062,-0.260592
1630067059254,-0.577426,0.762073,-0.261202
1630067059264,-0.575962,0.758657,-0.26065299999999997
1630067059273,-0.577853,0.761402,-0.262605
1630067059283,-0.578646,0.764818,-0.263032
1630067059293,-0.5795,0.7674409999999999,-0.262361
1630067059302,-0.57889,0.7686,-0.258335
1630067059312,-0.5795,0.769027,-0.254248
1630067059321,-0.579683,0.77104,-0.252235
1630067059331,-0.579012,0.774212,-0.254309
1630067059341,-0.57767,0.776164,-0.255224
1630067059350,-0.578036,0.774761,-0.25681
1630067059360,-0.577914,0.774395,-0.25742
1630067059369,-0.578158,0.773419,-0.259067
1630067059379,-0.577975,0.771223,-0.257969
1630067059389,-0.577548,0.77043,-0.256627
1630067059398,-0.577182,0.768234,-0.255529
1630067059408,-0.576572,0.767258,-0.254065
1630067059417,-0.574986,0.76677,-0.252845
1630067059427,-0.57523,0.767868,-0.254065
1630067059437,-0.575657,0.769698,-0.25699299999999997
1630067059446,-0.576145,0.771528,-0.258152
1630067059456,-0.576694,0.771528,-0.259067
1630067059465,-0.576206,0.77165,-0.258274
1630067059475,-0.575413,0.772504,-0.257786
1630067059485,-0.575901,0.773114,-0.257786
1630067059494,-0.575535,0.774456,-0.256749
1630067059504,-0.575291,0.776042,-0.255834
1630067059513,-0.5724239999999999,0.774639,-0.25638299999999997
1630067059523,-0.571692,0.774456,-0.257481
1630067059533,-0.571692,0.774456,-0.257054
1630067059542,-0.571692,0.77348,-0.258274
1630067059552,-0.571448,0.772931,-0.259006
1630067059561,-0.570228,0.77043,-0.255773
1630067059571,-0.56974,0.768783,-0.252418
1630067059581,-0.570655,0.769637,-0.251442
1630067059590,-0.571326,0.772077,-0.253455
1630067059600,-0.572058,0.7746999999999999,-0.25498
1630067059609,-0.5727289999999999,0.776042,-0.256322
1630067059619,-0.572302,0.777994,-0.256932
1630067059629,-0.5724239999999999,0.7795799999999999,-0.256871
1630067059638,-0.572546,0.7777499999999999,-0.257115
1630067059648,-0.572302,0.775676,-0.25559
1630067059657,-0.571936,0.774151,-0.254553
1630067059667,-0.5718139999999999,0.772504,-0.252967
1630067059677,-0.5715089999999999,0.771833,-0.253211
1630067059686,-0.571997,0.770125,-0.252967
1630067059696,-0.572607,0.77043,-0.253516
1630067059705,-0.573461,0.770796,-0.253272
1630067059715,-0.573217,0.772138,-0.253699
1630067059725,-0.573705,0.773541,-0.254004
1630067059734,-0.574864,0.772992,-0.254248
1630067059744,-0.575352,0.774029,-0.252784
1630067059753,-0.575718,0.773968,-0.252296
1630067059763,-0.57706,0.773785,-0.252296
1630067059773,-0.576694,0.773541,-0.253577
1630067059782,-0.577975,0.77287,-0.25254
1630067059792,-0.577731,0.772504,-0.252357
1630067059801,-0.577914,0.772443,-0.253455
1630067059811,-0.577975,0.772016,-0.253211
1630067059821,-0.578646,0.772992,-0.253394
1630067059830,-0.578158,0.773663,-0.253516
1630067059840,-0.577792,0.772382,-0.252662
1630067059849,-0.578036,0.772199,-0.25193
1630067059859,-0.577609,0.772321,-0.252113
1630067059869,-0.57889,0.772809,-0.252845
1630067059878,-0.580659,0.772077,-0.252235
1630067059888,-0.579866,0.771711,-0.250771
1630067059897,-0.579988,0.772138,-0.250588
1630067059907,-0.580354,0.77287,-0.250588
1630067059917,-0.580171,0.77348,-0.250466
1630067059926,-0.579012,0.773724,-0.25132
1630067059936,-0.578585,0.773846,-0.249612
1630067059945,-0.577182,0.773236,-0.249246
1630067059955,-0.576633,0.773358,-0.248697
1630067059965,-0.576328,0.772565,-0.24820899999999999
1630067059974,-0.575657,0.771284,-0.24729399999999999
1630067059984,-0.576267,0.771223,-0.247965
1630067059993,-0.576633,0.772443,-0.251076
1630067060003,-0.576816,0.772382,-0.251442
1630067060013,-0.576084,0.771284,-0.251564
1630067060022,-0.576999,0.771406,-0.252174
1630067060032,-0.576145,0.771589,-0.252784
1630067060041,-0.576389,0.771528,-0.253943
1630067060051,-0.576084,0.771284,-0.255224
1630067060061,-0.576694,0.771345,-0.256505
1630067060070,-0.577121,0.770247,-0.255834
1630067060080,-0.576389,0.769698,-0.256932
1630067060089,-0.576633,0.76921,-0.256749
1630067060099,-0.576633,0.769454,-0.25760299999999997
1630067060109,-0.576084,0.7665259999999999,-0.25925
1630067060118,-0.574742,0.764513,-0.26169
1630067060128,-0.575718,0.7665259999999999,-0.263642
1630067060137,-0.576206,0.768905,-0.263764
1630067060147,-0.575718,0.769332,-0.263947
1630067060157,-0.574681,0.7686,-0.260104
1630067060166,-0.573705,0.768783,-0.25668799999999997
1630067060176,-0.574864,0.768722,-0.254309
1630067060185,-0.575596,0.771223,-0.254553
1630067060195,-0.574986,0.77348,-0.257054
1630067060205,-0.574376,0.774944,-0.257176
1630067060214,-0.574925,0.775432,-0.259494
1630067060224,-0.575047,0.775432,-0.260775
1630067060233,-0.574925,0.77409,-0.260226
1630067060243,-0.572912,0.772199,-0.257847
1630067060253,-0.573522,0.769454,-0.256505
1630067060262,-0.57218,0.7674409999999999,-0.255773
1630067060272,-0.573461,0.765367,-0.25638299999999997
1630067060281,-0.574315,0.76494,-0.25803
1630067060291,-0.575108,0.765733,-0.260531
1630067060301,-0.57584,0.76738,-0.262056
1630067060310,-0.576755,0.768356,-0.26291
1630067060320,-0.576694,0.769149,-0.262178
1630067060329,-0.576938,0.770186,-0.26126299999999997
1630067060339,-0.577548,0.770003,-0.260775
1630067060349,-0.577548,0.772077,-0.259799
1630067060358,-0.577304,0.773114,-0.25790799999999997
1630067060368,-0.576755,0.77165,-0.25864
1630067060377,-0.576572,0.771406,-0.259494
1630067060387,-0.576572,0.772077,-0.259616
1630067060397,-0.576389,0.770674,-0.260531
1630067060406,-0.575352,0.770369,-0.261629
1630067060416,-0.5727289999999999,0.768966,-0.257786
1630067060425,-0.57279,0.766709,-0.254492
1630067060435,-0.572607,0.7659159999999999,-0.251686
1630067060445,-0.573888,0.767319,-0.251259
1630067060454,-0.574559,0.768844,-0.252601
1630067060464,-0.575047,0.771833,-0.256017
1630067060473,-0.575718,0.774395,-0.25821299999999997
1630067060483,-0.576877,0.776164,-0.259677
1630067060493,-0.578036,0.775798,-0.259616
1630067060502,-0.577548,0.773358,-0.259616
1630067060512,-0.578402,0.771528,-0.25803
1630067060521,-0.577914,0.769759,-0.25729799999999997
1630067060531,-0.577975,0.768417,-0.25668799999999997
1630067060541,-0.578158,0.7671359999999999,-0.256078
1630067060550,-0.578768,0.766465,-0.25638299999999997
1630067060560,-0.577975,0.767929,-0.256322
1630067060569,-0.578768,0.769149,-0.257115
1630067060579,-0.578524,0.769454,-0.256444
1630067060589,-0.579317,0.769454,-0.25699299999999997
1630067060598,-0.579256,0.769942,-0.25729799999999997
1630067060608,-0.57889,0.76982,-0.25559
1630067060617,-0.579744,0.769637,-0.255773
1630067060627,-0.579744,0.768966,-0.255834
1630067060637,-0.579439,0.769027,-0.25559
1630067060646,-0.58011,0.768173,-0.256749
1630067060656,-0.579561,0.767929,-0.256749
1630067060665,-0.579805,0.7686,-0.257847
1630067060675,-0.579622,0.767929,-0.258091
1630067060685,-0.579012,0.767868,-0.258945
1630067060694,-0.579073,0.767807,-0.25851799999999997
1630067060704,-0.578402,0.7674409999999999,-0.259616
1630067060713,-0.578463,0.766587,-0.259616
1630067060723,-0.577731,0.767014,-0.25973799999999997
1630067060733,-0.577487,0.766709,-0.259616
1630067060742,-0.575169,0.766892,-0.258335
1630067060752,-0.575962,0.768356,-0.25821299999999997
1630067060761,-0.575718,0.76921,-0.257481
1630067060771,-0.574864,0.770308,-0.25699299999999997
1630067060781,-0.57523,0.77104,-0.256505
1630067060790,-0.575291,0.772016,-0.2562
1630067060800,-0.575108,0.772931,-0.255285
1630067060809,-0.57584,0.772077,-0.255346
1630067060819,-0.575718,0.772626,-0.254675
1630067060829,-0.575108,0.773663,-0.254858
1630067060838,-0.575596,0.773602,-0.254248
1630067060848,-0.574803,0.773785,-0.254065
1630067060857,-0.574132,0.774029,-0.254248
1630067060867,-0.574071,0.772565,-0.253028
1630067060877,-0.573339,0.771528,-0.252418
1630067060886,-0.573766,0.771894,-0.252906
1630067060896,-0.574864,0.772077,-0.253394
1630067060905,-0.576572,0.771101,-0.25498
1630067060915,-0.57767,0.771711,-0.256261
1630067060925,-0.577731,0.771528,-0.256749
1630067060934,-0.578402,0.772199,-0.257115
1630067060944,-0.578463,0.772382,-0.25729799999999997
1630067060953,-0.578646,0.772016,-0.259311
1630067060963,-0.57767,0.768356,-0.259982
1630067060973,-0.576999,0.764574,-0.259677
1630067060982,-0.57767,0.765428,-0.26095799999999997
1630067060992,-0.578585,0.76738,-0.261751
1630067061001,-0.578585,0.769088,-0.261629
1630067061011,-0.576145,0.767685,-0.25742
1630067061021,-0.57523,0.7665259999999999,-0.251503
1630067061030,-0.576328,0.767075,-0.248453
1630067061040,-0.577304,0.76982,-0.248392
1630067061049,-0.577182,0.773419,-0.250832
1630067061059,-0.578646,0.775188,-0.252906
1630067061069,-0.57889,0.776713,-0.254736
1630067061078,-0.578158,0.776164,-0.256078
1630067061088,-0.579195,0.775798,-0.256078
1630067061097,-0.578463,0.772687,-0.255285
1630067061107,-0.577792,0.769393,-0.253333
1630067061117,-0.576877,0.7668309999999999,-0.25193
1630067061126,-0.576328,0.7659159999999999,-0.252357
1630067061136,-0.576206,0.765672,-0.254492
1630067061145,-0.57645,0.7659159999999999,-0.25638299999999997
1630067061155,-0.576572,0.766709,-0.257359
1630067061165,-0.577182,0.768783,-0.259067
1630067061174,-0.57706,0.769271,-0.25925
1630067061184,-0.57706,0.770064,-0.25882299999999997
1630067061193,-0.576999,0.770735,-0.258091
1630067061203,-0.576023,0.772626,-0.256078
1630067061213,-0.576816,0.773724,-0.255224
1630067061222,-0.57523,0.773846,-0.253821
1630067061232,-0.574498,0.772687,-0.253211
1630067061241,-0.574925,0.773358,-0.256017
1630067061251,-0.575352,0.773175,-0.25559
1630067061261,-0.574498,0.772687,-0.257115
1630067061270,-0.573888,0.770918,-0.257725
1630067061280,-0.573461,0.76921,-0.254126
1630067061289,-0.572546,0.768844,-0.251381
1630067061299,-0.572607,0.768661,-0.2501
1630067061309,-0.573827,0.770369,-0.252052
1630067061318,-0.575718,0.773541,-0.253882
1630067061328,-0.57645,0.774578,-0.256078
1630067061337,-0.577243,0.776408,-0.257725
1630067061347,-0.57767,0.777506,-0.25925
1630067061357,-0.578402,0.776652,-0.258457
1630067061366,-0.577304,0.774578,-0.256627
1630067061376,-0.576694,0.77226,-0.255346
1630067061385,-0.576694,0.770064,-0.254614
1630067061395,-0.57645,0.769027,-0.254492
1630067061405,-0.575962,0.768844,-0.253882
1630067061414,-0.577487,0.76921,-0.255041
1630067061424,-0.576328,0.7686,-0.254309
1630067061433,-0.57645,0.769271,-0.254736
1630067061443,-0.575535,0.770003,-0.25376
1630067061453,-0.575657,0.770735,-0.252906
1630067061462,-0.576328,0.771223,-0.253333
1630067061472,-0.576572,0.771589,-0.253028
1630067061481,-0.576511,0.77104,-0.252662
1630067061491,-0.576999,0.770796,-0.254736
1630067061501,-0.577487,0.770552,-0.255712
1630067061510,-0.578036,0.770369,-0.254614
1630067061520,-0.577914,0.769149,-0.254858
1630067061529,-0.577487,0.769149,-0.255346
1630067061539,-0.576755,0.769881,-0.25498
1630067061549,-0.57645,0.770125,-0.255346
1630067061558,-0.57645,0.76982,-0.25559
1630067061568,-0.57584,0.770186,-0.25559
1630067061577,-0.575962,0.770369,-0.255529
1630067061587,-0.575474,0.77165,-0.254553
1630067061597,-0.574864,0.771406,-0.253455
1630067061606,-0.57401,0.771711,-0.252296
1630067061616,-0.5734,0.772992,-0.251625
1630067061625,-0.574681,0.775249,-0.25132
1630067061635,-0.573339,0.775981,-0.249978
1630067061645,-0.573522,0.776347,-0.250832
1630067061654,-0.573766,0.7759199999999999,-0.250466
1630067061664,-0.574071,0.775859,-0.250466
1630067061673,-0.573766,0.775493,-0.249917
1630067061683,-0.574193,0.775066,-0.249246
1630067061693,-0.574315,0.774883,-0.2501
1630067061702,-0.574193,0.776164,-0.24949
1630067061712,-0.574071,0.775798,-0.248148
1630067061721,-0.57401,0.7759199999999999,-0.249307
1630067061731,-0.573949,0.774822,-0.249368
1630067061741,-0.574864,0.775127,-0.24766
1630067061750,-0.573827,0.773358,-0.248636
1630067061760,-0.575779,0.773907,-0.24827
1630067061769,-0.576816,0.773541,-0.249368
1630067061779,-0.578463,0.773297,-0.250344
1630067061789,-0.577548,0.773236,-0.252113
1630067061798,-0.5795,0.773602,-0.253333
1630067061808,-0.579988,0.773663,-0.254248
1630067061817,-0.580415,0.773724,-0.25437
1630067061827,-0.58011,0.772443,-0.254919
1630067061837,-0.578341,0.768478,-0.255956
1630067061846,-0.576694,0.76494,-0.255712
1630067061856,-0.577426,0.764269,-0.256871
1630067061865,-0.578463,0.765977,-0.257725
1630067061875,-0.579317,0.768295,-0.257115
1630067061885,-0.576999,0.768844,-0.25254
1630067061894,-0.575291,0.768112,-0.246806
1630067061904,-0.575779,0.768844,-0.244122
1630067061913,-0.575718,0.772199,-0.24509799999999998
1630067061923,-0.575901,0.775554,-0.24851399999999998
1630067061933,-0.578463,0.7783599999999999,-0.251198
1630067061942,-0.577609,0.780007,-0.25254
1630067061952,-0.577792,0.7780549999999999,-0.254065
1630067061961,-0.576633,0.776164,-0.254919
1630067061971,-0.576511,0.773541,-0.254187
1630067061981,-0.57523,0.76982,-0.252174
1630067061990,-0.574681,0.767319,-0.251564
1630067062000,-0.57462,0.765977,-0.25254
1630067062009,-0.574193,0.765184,-0.254797
1630067062019,-0.57401,0.765855,-0.25638299999999997
1630067062029,-0.57401,0.767563,-0.256261
1630067062038,-0.573522,0.769088,-0.25638299999999997
1630067062048,-0.573827,0.77104,-0.256627
1630067062057,-0.573766,0.773846,-0.255895
1630067062067,-0.57523,0.774151,-0.255468
1630067062077,-0.574742,0.774822,-0.253455
1630067062086,-0.57584,0.777384,-0.253455
1630067062096,-0.575352,0.7750049999999999,-0.252479
1630067062105,-0.574315,0.773724,-0.252662
1630067062115,-0.573095,0.773358,-0.253516
1630067062125,-0.574376,0.772931,-0.254553
1630067062134,-0.574681,0.77165,-0.25668799999999997
1630067062144,-0.573644,0.770186,-0.255407
1630067062153,-0.573949,0.766892,-0.251015
1630067062163,-0.574803,0.766099,-0.249063
1630067062173,-0.57645,0.7677459999999999,-0.249673
1630067062182,-0.577182,0.768478,-0.252052
1630067062192,-0.579195,0.772199,-0.254248
1630067062201,-0.579805,0.774761,-0.255407
1630067062211,-0.581513,0.775493,-0.255468
1630067062221,-0.582001,0.777384,-0.257054
1630067062230,-0.581879,0.776469,-0.254858
1630067062240,-0.58072,0.774456,-0.252479
1630067062249,-0.579744,0.771955,-0.251381
1630067062259,-0.5795,0.771101,-0.251076
1630067062269,-0.57828,0.769942,-0.250954
1630067062278,-0.577121,0.768722,-0.249917
1630067062288,-0.577365,0.7686,-0.249856
1630067062297,-0.577182,0.770674,-0.250222
1630067062307,-0.576267,0.770735,-0.24942899999999998
1630067062317,-0.576084,0.772321,-0.249063
1630067062326,-0.576694,0.77287,-0.249673
1630067062336,-0.576694,0.77287,-0.250771
1630067062345,-0.576938,0.773419,-0.25071
1630067062355,-0.577975,0.772931,-0.250771
1630067062365,-0.577365,0.772321,-0.250832
1630067062374,-0.576694,0.772504,-0.250344
1630067062384,-0.576633,0.77226,-0.250832
1630067062393,-0.576206,0.771772,-0.251076
1630067062403,-0.57645,0.772687,-0.252052
1630067062413,-0.57645,0.772626,-0.252174
1630067062422,-0.576267,0.771772,-0.25315
1630067062432,-0.575413,0.772321,-0.253943
1630067062441,-0.575779,0.771467,-0.253638
1630067062451,-0.575596,0.772077,-0.25315
1630067062461,-0.575413,0.77104,-0.252601
1630067062470,-0.574132,0.772321,-0.251625
1630067062480,-0.573888,0.773846,-0.252235
1630067062489,-0.573583,0.773541,-0.251869
1630067062499,-0.573095,0.775493,-0.25132
1630067062509,-0.5718139999999999,0.776347,-0.250893
1630067062518,-0.5708989999999999,0.777079,-0.249917
1630067062528,-0.571265,0.777262,-0.248453
1630067062537,-0.571265,0.778543,-0.248453
1630067062547,-0.5699839999999999,0.778604,-0.24851399999999998
1630067062557,-0.569862,0.779519,-0.249368
1630067062566,-0.571021,0.778848,-0.24827
1630067062576,-0.571143,0.7789699999999999,-0.248087
1630067062585,-0.572058,0.778177,-0.248575
1630067062595,-0.571265,0.778604,-0.248392
1630067062605,-0.570411,0.778787,-0.247233
1630067062614,-0.570411,0.778299,-0.247782
1630067062624,-0.570411,0.778421,-0.247538
1630067062633,-0.569496,0.777994,-0.247111
1630067062643,-0.569618,0.778238,-0.24644
1630067062653,-0.568947,0.778848,-0.245525
1630067062662,-0.569618,0.779214,-0.246806
1630067062672,-0.570838,0.7792749999999999,-0.248087
1630067062681,-0.571082,0.780678,-0.249246
1630067062691,-0.571143,0.780739,-0.24888
1630067062701,-0.5702889999999999,0.778726,-0.248453
1630067062710,-0.570228,0.775798,-0.248697
1630067062720,-0.570716,0.7756149999999999,-0.247721
1630067062729,-0.5702889999999999,0.77409,-0.248392
1630067062739,-0.5681539999999999,0.772687,-0.249612
1630067062749,-0.567727,0.772321,-0.250954
1630067062758,-0.569801,0.775493,-0.252174
1630067062768,-0.5712039999999999,0.7765299999999999,-0.251564
1630067062777,-0.5708989999999999,0.7771399999999999,-0.249307
1630067062787,-0.569923,0.7768349999999999,-0.244915
1630067062797,-0.570106,0.777262,-0.240828
1630067062806,-0.571082,0.778421,-0.241316
1630067062816,-0.571326,0.781532,-0.243939
1630067062825,-0.57096,0.782752,-0.24601299999999998
1630067062835,-0.570838,0.7838499999999999,-0.247172
1630067062845,-0.571143,0.783423,-0.24644
1630067062854,-0.571326,0.782264,-0.247355
1630067062864,-0.570167,0.780434,-0.246684
1630067062873,-0.569191,0.7777499999999999,-0.243146
1630067062883,-0.568703,0.775127,-0.241194
1630067062893,-0.568398,0.77348,-0.24156
1630067062902,-0.569496,0.773175,-0.243146
1630067062912,-0.5705939999999999,0.775188,-0.246501
1630067062921,-0.571448,0.777262,-0.247233
1630067062931,-0.5718139999999999,0.778482,-0.24912399999999998
1630067062941,-0.573766,0.779336,-0.249673
1630067062950,-0.574071,0.779214,-0.249612
1630067062960,-0.573766,0.779153,-0.249185
1630067062969,-0.573278,0.779946,-0.247111
1630067062979,-0.573644,0.780129,-0.245952
1630067062989,-0.572241,0.7774449999999999,-0.245281
1630067062998,-0.571997,0.777689,-0.246928
1630067063008,-0.574376,0.776896,-0.248575
1630067063017,-0.574315,0.776408,-0.248697
1630067063027,-0.574132,0.776652,-0.250222
1630067063037,-0.572607,0.773846,-0.24790399999999999
1630067063046,-0.57218,0.77226,-0.244
1630067063056,-0.572302,0.771406,-0.24143799999999999
1630067063065,-0.573278,0.772687,-0.24143799999999999
1630067063075,-0.5734,0.774944,-0.242597
1630067063085,-0.574864,0.777872,-0.244854
1630067063094,-0.576328,0.779214,-0.246806
1630067063104,-0.576877,0.779336,-0.247782
1630067063113,-0.578097,0.7789699999999999,-0.24881899999999998
1630067063123,-0.578524,0.7783599999999999,-0.249185
1630067063133,-0.578646,0.776896,-0.248697
1630067063142,-0.578646,0.775859,-0.248392
1630067063152,-0.578585,0.774334,-0.248148
1630067063161,-0.577609,0.772748,-0.24729399999999999
1630067063171,-0.576389,0.771223,-0.246867
1630067063181,-0.57523,0.770979,-0.247538
1630067063190,-0.575413,0.769637,-0.247172
1630067063200,-0.574864,0.771223,-0.246379
1630067063209,-0.574254,0.771467,-0.246867
1630067063219,-0.574559,0.771833,-0.246501
1630067063229,-0.575108,0.772687,-0.244732
1630067063238,-0.574742,0.772809,-0.24509799999999998
1630067063248,-0.575352,0.773114,-0.244915
1630067063257,-0.576023,0.772138,-0.244732
1630067063267,-0.575962,0.772504,-0.24631799999999998
1630067063277,-0.575901,0.773724,-0.248148
1630067063286,-0.575474,0.773724,-0.248758
1630067063296,-0.575779,0.772992,-0.249673
1630067063305,-0.576084,0.771528,-0.25071
1630067063315,-0.574986,0.772016,-0.251076
1630067063325,-0.573156,0.770918,-0.25071
1630067063334,-0.571631,0.771162,-0.249856
1630067063344,-0.571631,0.772443,-0.248941
1630067063353,-0.570838,0.773785,-0.24820899999999999
1630067063363,-0.570228,0.774944,-0.24766
1630067063373,-0.570716,0.776591,-0.246135
1630067063382,-0.57035,0.777262,-0.24448799999999998
1630067063392,-0.569252,0.778726,-0.24265799999999998
1630067063401,-0.569252,0.781166,-0.241987
1630067063411,-0.569618,0.781471,-0.24015699999999998
1630067063421,-0.569801,0.782447,-0.237778
1630067063430,-0.569801,0.784216,-0.23619199999999999
1630067063440,-0.569801,0.7853749999999999,-0.235521
1630067063449,-0.57035,0.7859849999999999,-0.235826
1630067063459,-0.570472,0.785863,-0.23588699999999999
1630067063469,-0.571936,0.786656,-0.23546
1630067063478,-0.572363,0.785131,-0.23546
1630067063488,-0.572302,0.784643,-0.235765
1630067063497,-0.573034,0.7826299999999999,-0.235521
1630067063507,-0.573156,0.782203,-0.235826
1630067063517,-0.573888,0.7814099999999999,-0.236436
1630067063526,-0.573095,0.782081,-0.23588699999999999
1630067063536,-0.5721189999999999,0.781044,-0.235338
1630067063545,-0.5727289999999999,0.780556,-0.235155
1630067063555,-0.573278,0.779763,-0.234972
1630067063565,-0.573217,0.779336,-0.233935
1630067063574,-0.573888,0.7786649999999999,-0.233752
1630067063584,-0.574803,0.778482,-0.235277
1630067063593,-0.576389,0.778116,-0.236253
1630067063603,-0.576877,0.779214,-0.23771699999999998
1630067063613,-0.577914,0.779336,-0.2379
1630067063622,-0.578402,0.778909,-0.238266
1630067063632,-0.577792,0.779397,-0.23802199999999998
1630067063641,-0.577548,0.778116,-0.238205
1630067063651,-0.576206,0.773602,-0.238998
1630067063661,-0.57645,0.770674,-0.239791
1630067063670,-0.577426,0.771467,-0.241926
1630067063680,-0.579073,0.77409,-0.24204799999999999
1630067063689,-0.578097,0.775493,-0.240523
1630067063699,-0.575779,0.774456,-0.23546
1630067063709,-0.57462,0.773236,-0.23064099999999998
1630067063718,-0.575535,0.775859,-0.22942099999999999
1630067063728,-0.575962,0.779214,-0.231312
1630067063737,-0.576816,0.781593,-0.232898
1630067063747,-0.577365,0.782874,-0.23546
1630067063757,-0.57706,0.783301,-0.237351
1630067063766,-0.577121,0.7838499999999999,-0.238693
1630067063776,-0.577365,0.782874,-0.239059
1630067063785,-0.575474,0.780251,-0.23832699999999998
1630067063795,-0.576084,0.777079,-0.23729
1630067063805,-0.57462,0.7746999999999999,-0.23710699999999998
1630067063814,-0.574925,0.772748,-0.23893699999999998
1630067063824,-0.574803,0.773175,-0.24143799999999999
1630067063833,-0.575474,0.773541,-0.24278
1630067063843,-0.57523,0.774944,-0.244244
1630067063853,-0.574803,0.7753099999999999,-0.243695
1630067063862,-0.575108,0.7762249999999999,-0.243695
1630067063872,-0.574193,0.777872,-0.24217
1630067063881,-0.574498,0.778604,-0.241926
1630067063891,-0.574193,0.780373,-0.241987
1630067063901,-0.574193,0.7807999999999999,-0.23973
1630067063910,-0.572546,0.7792749999999999,-0.23924199999999998
1630067063920,-0.572363,0.7786649999999999,-0.24174299999999999
1630067063929,-0.572912,0.779031,-0.241804
1630067063939,-0.573156,0.777689,-0.24339
1630067063949,-0.573339,0.777384,-0.24601299999999998
1630067063958,-0.571875,0.773724,-0.24479299999999998
1630067063968,-0.573583,0.771711,-0.241926
1630067063977,-0.57401,0.7686,-0.240279
1630067063987,-0.57462,0.76982,-0.240279
1630067063997,-0.575657,0.771772,-0.24204799999999999
1630067064006,-0.576633,0.775249,-0.24357299999999998
1630067064016,-0.576938,0.778604,-0.245952
1630067064025,-0.577853,0.779702,-0.248148
1630067064035,-0.57767,0.780129,-0.25071
1630067064045,-0.578402,0.777384,-0.24949
1630067064054,-0.576389,0.773724,-0.245952
1630067064064,-0.575474,0.773297,-0.244366
1630067064073,-0.574986,0.772809,-0.242902
1630067064083,-0.574681,0.771162,-0.24143799999999999
1630067064093,-0.575535,0.771955,-0.241804
1630067064102,-0.574681,0.771772,-0.243146
1630067064112,-0.575962,0.772748,-0.24326799999999998
1630067064121,-0.575474,0.773724,-0.242414
1630067064131,-0.575657,0.774029,-0.24278
1630067064141,-0.576145,0.775676,-0.242902
1630067064150,-0.576816,0.775981,-0.242597
1630067064160,-0.577304,0.776713,-0.24278
1630067064169,-0.578402,0.776286,-0.24326799999999998
1630067064179,-0.577304,0.775798,-0.24326799999999998
1630067064189,-0.577426,0.774639,-0.242597
1630067064198,-0.577548,0.7746999999999999,-0.242414
1630067064208,-0.577792,0.77409,-0.242414
1630067064217,-0.57706,0.774212,-0.241804
1630067064227,-0.577426,0.77409,-0.24156
1630067064237,-0.57767,0.77409,-0.242414
1630067064246,-0.577548,0.775432,-0.243451
1630067064256,-0.57767,0.776164,-0.24418299999999998
1630067064265,-0.577182,0.776103,-0.244061
1630067064275,-0.576938,0.775432,-0.243451
1630067064285,-0.577182,0.775432,-0.243085
1630067064294,-0.576084,0.776164,-0.24156
1630067064304,-0.576572,0.775493,-0.240523
1630067064313,-0.57584,0.777384,-0.240889
1630067064323,-0.575596,0.777262,-0.241682
1630067064333,-0.573949,0.778238,-0.241316
1630067064342,-0.573949,0.779458,-0.241194
1630067064352,-0.573583,0.780007,-0.239669
1630067064361,-0.573034,0.780007,-0.238693
1630067064371,-0.572668,0.780068,-0.2379
1630067064381,-0.571326,0.779458,-0.238144
1630067064390,-0.571875,0.779092,-0.2379
1630067064400,-0.5734,0.777994,-0.236863
1630067064409,-0.573644,0.777567,-0.237168
1630067064419,-0.573888,0.778238,-0.238571
1630067064429,-0.573644,0.776652,-0.239425
1630067064438,-0.573827,0.776286,-0.240645
1630067064448,-0.573827,0.7762249999999999,-0.241682
1630067064457,-0.574986,0.775676,-0.24143799999999999
1630067064467,-0.57523,0.775066,-0.24174299999999999
1630067064477,-0.576816,0.775371,-0.242292
1630067064486,-0.578158,0.775676,-0.243634
1630067064496,-0.578585,0.775554,-0.244549
1630067064505,-0.578707,0.775493,-0.244915
1630067064515,-0.579744,0.775737,-0.24509799999999998
1630067064525,-0.578524,0.773358,-0.245037
1630067064534,-0.5795,0.771406,-0.24339
1630067064544,-0.578036,0.76921,-0.244671
1630067064553,-0.576145,0.763415,-0.24387799999999998
1630067064563,-0.576328,0.764208,-0.244732
1630067064573,-0.578463,0.76921,-0.24790399999999999
1630067064582,-0.580964,0.772504,-0.249002
1630067064592,-0.581269,0.772687,-0.249307
1630067064601,-0.582367,0.771101,-0.246501
1630067064611,-0.5839529999999999,0.770735,-0.24448799999999998
1630067064621,-0.582977,0.772321,-0.24326799999999998
1630067064630,-0.582428,0.7756149999999999,-0.245952
1630067064640,-0.582672,0.775493,-0.248636
1630067064649,-0.581513,0.774944,-0.249551
1630067064659,-0.581696,0.773846,-0.250954
1630067064669,-0.583038,0.770796,-0.252784
1630067064678,-0.580964,0.769271,-0.250466
1630067064688,-0.578036,0.768722,-0.248331
1630067064697,-0.577914,0.766099,-0.24509799999999998
1630067064707,-0.57767,0.765184,-0.244549
1630067064717,-0.577304,0.766404,-0.246745
1630067064726,-0.577548,0.766465,-0.248026
1630067064736,-0.578951,0.767075,-0.24942899999999998
1630067064745,-0.579866,0.769332,-0.251198
1630067064755,-0.578158,0.770491,-0.248392
1630067064765,-0.577731,0.772443,-0.24790399999999999
1630067064774,-0.578646,0.773968,-0.246562
1630067064784,-0.581452,0.771833,-0.247782
1630067064793,-0.58072,0.772321,-0.244976
1630067064803,-0.576389,0.772077,-0.243207
1630067064813,-0.576511,0.770186,-0.244976
1630067064822,-0.575474,0.772138,-0.248758
1630067064832,-0.57584,0.775798,-0.249673
1630067064841,-0.575291,0.780068,-0.252906
1630067064851,-0.574681,0.780922,-0.248941
1630067064861,-0.574071,0.775798,-0.24204799999999999
1630067064870,-0.572302,0.773724,-0.236131
1630067064880,-0.5696789999999999,0.777323,-0.238144
1630067064889,-0.573339,0.778604,-0.242719
1630067064899,-0.577914,0.779092,-0.246257
1630067064909,-0.581696,0.777994,-0.247782
1630067064918,-0.579744,0.777628,-0.246928
1630067064928,-0.579378,0.777018,-0.245952
1630067064937,-0.578768,0.775737,-0.247416
1630067064947,-0.580171,0.772504,-0.24766
1630067064957,-0.57828,0.770857,-0.246257
1630067064966,-0.577304,0.770308,-0.243146
1630067064976,-0.577487,0.7686,-0.242414
1630067064985,-0.572241,0.772199,-0.24204799999999999
1630067064995,-0.5727289999999999,0.772931,-0.24156
1630067065005,-0.574376,0.773663,-0.243146
1630067065014,-0.574742,0.776042,-0.24326799999999998
1630067065024,-0.573705,0.779031,-0.244976
1630067065033,-0.574132,0.7792749999999999,-0.243756
1630067065043,-0.574315,0.779946,-0.24326799999999998
1630067065053,-0.573095,0.779336,-0.241316
1630067065062,-0.571692,0.7798849999999999,-0.240523
1630067065072,-0.571631,0.778726,-0.239425
1630067065081,-0.574315,0.777933,-0.24387799999999998
1630067065091,-0.576206,0.776896,-0.246501
1630067065101,-0.576267,0.774822,-0.245952
1630067065110,-0.574864,0.772016,-0.243329
1630067065120,-0.572668,0.773053,-0.242231
1630067065129,-0.5712039999999999,0.775066,-0.24174299999999999
1630067065139,-0.571936,0.776652,-0.243512
1630067065149,-0.572607,0.7774449999999999,-0.243634
1630067065158,-0.57157,0.7777499999999999,-0.241804
1630067065168,-0.571875,0.778116,-0.242597
1630067065177,-0.57279,0.7783599999999999,-0.241194
1630067065187,-0.573278,0.7814099999999999,-0.241865
1630067065197,-0.573644,0.779153,-0.246745
1630067065206,-0.573156,0.779153,-0.240523
1630067065216,-0.57279,0.7786649999999999,-0.238144
1630067065225,-0.573827,0.7789699999999999,-0.24095
1630067065235,-0.57157,0.7801899999999999,-0.240645
1630067065245,-0.5699839999999999,0.7801899999999999,-0.24046199999999998
1630067065254,-0.571753,0.780129,-0.242414
1630067065264,-0.575657,0.779214,-0.24156
1630067065273,-0.576694,0.778848,-0.240645
1630067065283,-0.574254,0.777262,-0.240218
1630067065293,-0.573644,0.777872,-0.24095
1630067065302,-0.574376,0.778604,-0.24326799999999998
1630067065312,-0.574498,0.777567,-0.244671
1630067065321,-0.575596,0.777384,-0.24461
1630067065331,-0.576267,0.7780549999999999,-0.245281
1630067065341,-0.575047,0.7765299999999999,-0.245281
1630067065350,-0.573522,0.772687,-0.243756
1630067065360,-0.5734,0.771589,-0.243146
1630067065369,-0.574132,0.772626,-0.242841
1630067065379,-0.572912,0.772626,-0.243756
1630067065389,-0.5724239999999999,0.772504,-0.243207
1630067065398,-0.573583,0.773785,-0.243512
1630067065408,-0.576023,0.776774,-0.246074
1630067065417,-0.580903,0.780556,-0.249307
1630067065427,-0.580232,0.781837,-0.24973399999999998
1630067065437,-0.579073,0.778543,-0.247843
1630067065446,-0.579134,0.7771399999999999,-0.246379
1630067065456,-0.580354,0.777323,-0.24827
1630067065465,-0.580476,0.7753099999999999,-0.249368
1630067065475,-0.577792,0.772565,-0.248941
1630067065485,-0.575474,0.770796,-0.247843
1630067065494,-0.574559,0.768905,-0.245891
1630067065504,-0.57279,0.768173,-0.244122
1630067065513,-0.5708989999999999,0.7665259999999999,-0.240828
1630067065523,-0.569191,0.766709,-0.239669
1630067065533,-0.568276,0.76921,-0.239364
1630067065542,-0.568703,0.774151,-0.239974
1630067065552,-0.570838,0.7774449999999999,-0.241499
1630067065561,-0.573522,0.7792749999999999,-0.24339
1630067065571,-0.572607,0.779458,-0.243512
1630067065581,-0.572851,0.779702,-0.24235299999999999
1630067065590,-0.571936,0.777628,-0.24156
1630067065600,-0.573522,0.776347,-0.24217
1630067065609,-0.577792,0.776774,-0.245586
1630067065619,-0.577975,0.774883,-0.24540299999999998
1630067065629,-0.576145,0.774578,-0.245464
1630067065638,-0.574742,0.777994,-0.245281
1630067065648,-0.573339,0.780068,-0.24357299999999998
1630067065657,-0.573522,0.781654,-0.243634
1630067065667,-0.573888,0.781471,-0.24095
1630067065677,-0.574193,0.779519,-0.237595
1630067065686,-0.577304,0.780007,-0.240401
1630067065696,-0.57706,0.781349,-0.24357299999999998
1630067065705,-0.576633,0.781227,-0.245159
1630067065715,-0.576755,0.780556,-0.246684
1630067065725,-0.577609,0.780922,-0.248636
1630067065734,-0.573644,0.782264,-0.246074
1630067065744,-0.571936,0.781959,-0.245342
1630067065753,-0.571387,0.779824,-0.245342
1630067065763,-0.57035,0.777628,-0.246074
1630067065773,-0.5705939999999999,0.777933,-0.24644
1630067065782,-0.569435,0.778787,-0.246501
1630067065792,-0.569252,0.780434,-0.24705
1630067065801,-0.5681539999999999,0.7811049999999999,-0.246074
1630067065811,-0.56852,0.779946,-0.24662299999999998
1630067065821,-0.5673,0.779946,-0.246501
1630067065830,-0.5669339999999999,0.779519,-0.24583
1630067065840,-0.5660189999999999,0.778543,-0.24522
1630067065849,-0.565226,0.779824,-0.245769
1630067065859,-0.5644939999999999,0.779458,-0.244244
1630067065869,-0.564677,0.779153,-0.243207
1630067065878,-0.565348,0.7792749999999999,-0.24522
1630067065888,-0.565897,0.778482,-0.244671
1630067065897,-0.565775,0.7786649999999999,-0.244305
1630067065907,-0.5654089999999999,0.778177,-0.24418299999999998
1630067065917,-0.56669,0.777201,-0.246257
1630067065926,-0.567361,0.7765299999999999,-0.246928
1630067065936,-0.567727,0.776957,-0.249368
1630067065945,-0.568825,0.775981,-0.249002
1630067065955,-0.56913,0.776164,-0.249368
1630067065965,-0.569191,0.776042,-0.249795
1630067065974,-0.569496,0.777384,-0.24912399999999998
1630067065984,-0.5684589999999999,0.777506,-0.247721
1630067065993,-0.568825,0.778543,-0.246989
1630067066003,-0.56913,0.778787,-0.247416
1630067066013,-0.569252,0.7795799999999999,-0.246806
1630067066022,-0.568886,0.781166,-0.24583
1630067066032,-0.5693739999999999,0.782569,-0.246196
1630067066041,-0.5687639999999999,0.782386,-0.244366
1630067066051,-0.569191,0.784521,-0.244427
1630067066061,-0.5681539999999999,0.785131,-0.242475
1630067066070,-0.568642,0.784826,-0.242719
1630067066080,-0.56852,0.7853749999999999,-0.24278
1630067066089,-0.56913,0.784582,-0.24296299999999998
1630067066099,-0.568276,0.781532,-0.243451
1630067066109,-0.567422,0.779214,-0.242902
1630067066118,-0.567056,0.779092,-0.241682
1630067066128,-0.567117,0.778543,-0.242231
1630067066137,-0.565287,0.779336,-0.24448799999999998
1630067066147,-0.565287,0.7780549999999999,-0.244244
1630067066157,-0.5654089999999999,0.779702,-0.24387799999999998
1630067066166,-0.568642,0.779641,-0.245464
1630067066176,-0.57218,0.780617,-0.24729399999999999
1630067066185,-0.574254,0.779458,-0.24705
1630067066195,-0.574315,0.778421,-0.243024
1630067066205,-0.573766,0.7795799999999999,-0.242231
1630067066214,-0.573766,0.781654,-0.244061
1630067066224,-0.573034,0.783362,-0.24339
1630067066233,-0.5708989999999999,0.785253,-0.243146
1630067066243,-0.569862,0.784521,-0.243024
1630067066253,-0.570106,0.782874,-0.24095
1630067066262,-0.569923,0.780068,-0.241377
1630067066272,-0.5712039999999999,0.7762249999999999,-0.241987
1630067066281,-0.572485,0.77287,-0.24278
1630067066291,-0.574071,0.769759,-0.244854
1630067066301,-0.57645,0.768478,-0.246867
1630067066310,-0.57645,0.767319,-0.247233
1630067066320,-0.574986,0.770552,-0.247965
1630067066329,-0.573583,0.772565,-0.246867
1630067066339,-0.574986,0.775066,-0.246196
1630067066349,-0.575779,0.776408,-0.245342
1630067066358,-0.576084,0.777323,-0.244366
1630067066368,-0.57523,0.778726,-0.242902
1630067066377,-0.577121,0.7807999999999999,-0.24265799999999998
1630067066387,-0.575413,0.782691,-0.24204799999999999
1630067066397,-0.574132,0.7807999999999999,-0.241316
1630067066406,-0.573461,0.7795799999999999,-0.243207
1630067066416,-0.572546,0.779702,-0.246074
1630067066425,-0.571021,0.779763,-0.24790399999999999
1630067066435,-0.568703,0.779336,-0.245159
1630067066445,-0.566568,0.776713,-0.239059
1630067066454,-0.5681539999999999,0.774944,-0.236863
1630067066464,-0.570777,0.776286,-0.237229
1630067066473,-0.571692,0.7786649999999999,-0.240523
1630067066483,-0.56974,0.781776,-0.24387799999999998
1630067066493,-0.5693739999999999,0.7856799999999999,-0.246379
1630067066502,-0.570777,0.786656,-0.24820899999999999
1630067066512,-0.569801,0.787571,-0.247843
1630067066521,-0.569313,0.7865949999999999,-0.247782
1630067066531,-0.568825,0.786656,-0.24479299999999998
1630067066541,-0.566751,0.785802,-0.24387799999999998
1630067066550,-0.566263,0.784338,-0.244427
1630067066560,-0.565897,0.782447,-0.243329
1630067066569,-0.565531,0.781654,-0.241194
1630067066579,-0.564128,0.783118,-0.240218
1630067066589,-0.563823,0.783606,-0.241255
1630067066598,-0.5641889999999999,0.783606,-0.241987
1630067066608,-0.5632739999999999,0.783179,-0.244366
1630067066617,-0.5647989999999999,0.782142,-0.244427
1630067066627,-0.56547,0.781166,-0.244061
1630067066637,-0.565592,0.782142,-0.24357299999999998
1630067066646,-0.565958,0.7811049999999999,-0.242292
1630067066656,-0.565592,0.781227,-0.242292
1630067066665,-0.565165,0.780739,-0.24217
1630067066675,-0.565348,0.779702,-0.243024
1630067066685,-0.565836,0.779214,-0.243817
1630067066694,-0.565958,0.7801899999999999,-0.244061
1630067066704,-0.56547,0.779824,-0.244549
1630067066713,-0.563762,0.781532,-0.243146
1630067066723,-0.5632739999999999,0.781898,-0.243451
1630067066733,-0.563457,0.780983,-0.241682
1630067066742,-0.563762,0.782264,-0.241621
1630067066752,-0.564616,0.782569,-0.24296299999999998
1630067066761,-0.563457,0.7829349999999999,-0.240401
1630067066771,-0.5623589999999999,0.786168,-0.240279
1630067066781,-0.563213,0.7862899999999999,-0.239608
1630067066790,-0.56486,0.787998,-0.23924199999999998
1630067066800,-0.5617489999999999,0.786107,-0.23832699999999998
1630067066809,-0.563091,0.787022,-0.236741
1630067066819,-0.560956,0.789096,-0.235094
1630067066829,-0.558577,0.792939,-0.233935
1630067066838,-0.562542,0.793427,-0.23607
1630067066848,-0.564128,0.7917799999999999,-0.239059
1630067066857,-0.5635789999999999,0.791292,-0.237839
1630067066867,-0.56303,0.790316,-0.238876
1630067066877,-0.5638839999999999,0.7890349999999999,-0.239364
1630067066886,-0.5635789999999999,0.787998,-0.241133
1630067066896,-0.563518,0.786412,-0.241621
1630067066905,-0.561078,0.780922,-0.240706
1630067066915,-0.561871,0.779519,-0.241865
1630067066925,-0.564372,0.782386,-0.243207
1630067066934,-0.565348,0.785314,-0.24479299999999998
1630067066944,-0.56425,0.7844599999999999,-0.243207
1630067066953,-0.563213,0.781288,-0.236558
1630067066963,-0.564738,0.782447,-0.233935
1630067066973,-0.565043,0.784582,-0.234423
1630067066982,-0.5657139999999999,0.7868999999999999,-0.237168
1630067066992,-0.56486,0.788486,-0.238754
1630067067001,-0.563823,0.7872049999999999,-0.239303
1630067067011,-0.564372,0.7875099999999999,-0.23851
1630067067021,-0.564982,0.7856799999999999,-0.23771699999999998
1630067067030,-0.564616,0.784582,-0.237473
1630067067040,-0.563762,0.784033,-0.23588699999999999
1630067067049,-0.564311,0.783179,-0.236863
1630067067059,-0.564616,0.782508,-0.237778
1630067067069,-0.565348,0.781166,-0.238876
1630067067078,-0.5672389999999999,0.781593,-0.240645
1630067067088,-0.56669,0.7826299999999999,-0.241255
1630067067097,-0.566751,0.782691,-0.24143799999999999
1630067067107,-0.5669339999999999,0.782996,-0.241072
1630067067117,-0.566751,0.783911,-0.241011
1630067067126,-0.566995,0.784826,-0.241194
1630067067136,-0.567605,0.7862899999999999,-0.241682
1630067067145,-0.567361,0.788242,-0.24095
1630067067155,-0.56791,0.7890349999999999,-0.239486
1630067067165,-0.5669339999999999,0.7881199999999999,-0.238266
1630067067174,-0.56547,0.784826,-0.239974
1630067067184,-0.5647989999999999,0.7847649999999999,-0.242902
1630067067193,-0.565348,0.785314,-0.243146
1630067067203,-0.56486,0.784094,-0.244549
1630067067213,-0.565226,0.7832399999999999,-0.244
1630067067222,-0.56486,0.781471,-0.240584
1630067067232,-0.564433,0.779763,-0.239486
1630067067241,-0.564555,0.7826299999999999,-0.240218
1630067067251,-0.564738,0.7856799999999999,-0.242841
1630067067261,-0.566385,0.787449,-0.24339
1630067067270,-0.5669339999999999,0.789279,-0.24448799999999998
1630067067280,-0.567422,0.787998,-0.245342
1630067067289,-0.567666,0.7862899999999999,-0.24583
1630067067299,-0.568581,0.785558,-0.244366
1630067067309,-0.568032,0.784582,-0.244854
1630067067318,-0.5669339999999999,0.782874,-0.244854
1630067067328,-0.5673,0.781776,-0.244
1630067067337,-0.5666289999999999,0.7807999999999999,-0.24448799999999998
1630067067347,-0.5666289999999999,0.779824,-0.245342
1630067067357,-0.566873,0.779946,-0.244
1630067067366,-0.5663239999999999,0.779641,-0.243817
1630067067376,-0.566141,0.780312,-0.243695
1630067067385,-0.565165,0.781288,-0.244061
1630067067395,-0.565897,0.7814099999999999,-0.24461
1630067067405,-0.566202,0.781898,-0.245342
1630067067414,-0.567056,0.780861,-0.24583
1630067067424,-0.568337,0.780129,-0.246501
1630067067433,-0.5681539999999999,0.778848,-0.246867
1630067067443,-0.568581,0.777628,-0.246684
1630067067453,-0.569435,0.778604,-0.247172
1630067067462,-0.5696789999999999,0.7795799999999999,-0.247111
1630067067472,-0.569435,0.779214,-0.246989
1630067067481,-0.568215,0.779702,-0.245586
1630067067491,-0.568032,0.779336,-0.245342
1630067067501,-0.5675439999999999,0.780007,-0.24461
1630067067510,-0.566446,0.780434,-0.243024
1630067067520,-0.5660189999999999,0.781959,-0.243207
1630067067529,-0.565836,0.782996,-0.241926
1630067067539,-0.5647989999999999,0.783667,-0.241865
1630067067549,-0.56425,0.783789,-0.24143799999999999
1630067067558,-0.564372,0.784033,-0.240828
1630067067568,-0.564677,0.7832399999999999,-0.240645
1630067067577,-0.5638839999999999,0.784948,-0.240828
1630067067587,-0.564006,0.786534,-0.241499
1630067067597,-0.5647989999999999,0.7859849999999999,-0.24217
1630067067606,-0.56486,0.786534,-0.24357299999999998
1630067067616,-0.565653,0.788242,-0.24522
1630067067625,-0.5644939999999999,0.788486,-0.246257
1630067067635,-0.564616,0.789889,-0.246135
1630067067645,-0.5641889999999999,0.787876,-0.24705
1630067067654,-0.562298,0.7835449999999999,-0.245586
1630067067664,-0.561505,0.781288,-0.243146
1630067067673,-0.5617489999999999,0.781593,-0.244122
1630067067683,-0.562542,0.784216,-0.24522
1630067067693,-0.562115,0.785436,-0.24461
1630067067702,-0.559858,0.7850699999999999,-0.241255
1630067067712,-0.5611389999999999,0.783484,-0.235704
1630067067721,-0.560712,0.7847649999999999,-0.233813
1630067067731,-0.560651,0.787876,-0.234118
1630067067741,-0.5608339999999999,0.789157,-0.235216
1630067067750,-0.562237,0.790316,-0.23607
1630067067760,-0.564555,0.790316,-0.23802199999999998
1630067067769,-0.566568,0.789096,-0.240584
1630067067779,-0.566446,0.789096,-0.24143799999999999
1630067067789,-0.567178,0.7875099999999999,-0.241255
1630067067798,-0.566446,0.785314,-0.242109
1630067067808,-0.565836,0.783118,-0.24217
1630067067817,-0.565897,0.7811049999999999,-0.24296299999999998
1630067067827,-0.56608,0.7807999999999999,-0.245525
1630067067837,-0.565836,0.779946,-0.247416
1630067067846,-0.5663239999999999,0.780373,-0.246989
1630067067856,-0.565836,0.779458,-0.247111
1630067067865,-0.565958,0.779946,-0.246928
1630067067875,-0.566385,0.779946,-0.24705
1630067067885,-0.565531,0.780739,-0.24583
1630067067894,-0.566446,0.782386,-0.245342
1630067067904,-0.5654089999999999,0.7850699999999999,-0.244305
1630067067913,-0.564311,0.785802,-0.24296299999999998
1630067067923,-0.563518,0.7841549999999999,-0.243207
1630067067933,-0.563518,0.7844599999999999,-0.245952
1630067067942,-0.563396,0.784643,-0.246684
1630067067952,-0.563945,0.7844599999999999,-0.248392
1630067067961,-0.563823,0.781959,-0.246867
1630067067971,-0.562786,0.779946,-0.243451
1630067067981,-0.561932,0.779397,-0.24143799999999999
1630067067990,-0.56181,0.780678,-0.241255
1630067068000,-0.563457,0.783667,-0.24326799999999998
1630067068009,-0.564616,0.784216,-0.244366
1630067068019,-0.566995,0.786656,-0.246684
1630067068029,-0.566751,0.787144,-0.248453
1630067068038,-0.5678489999999999,0.786717,-0.248575
1630067068048,-0.566568,0.785253,-0.24766
1630067068057,-0.566751,0.784033,-0.24766
1630067068067,-0.566568,0.782386,-0.247172
1630067068077,-0.565592,0.781471,-0.245952
1630067068086,-0.56547,0.780617,-0.245647
1630067068096,-0.566385,0.779946,-0.246135
1630067068105,-0.5666289999999999,0.7795799999999999,-0.245342
1630067068115,-0.566446,0.779702,-0.245159
1630067068125,-0.5673,0.7801899999999999,-0.245037
1630067068134,-0.5673,0.7804949999999999,-0.24509799999999998
1630067068144,-0.567117,0.781837,-0.245647
1630067068153,-0.567056,0.7814099999999999,-0.245037
1630067068163,-0.566507,0.781837,-0.245281
1630067068173,-0.568032,0.780861,-0.244732
1630067068182,-0.569618,0.779702,-0.24540299999999998
1630067068192,-0.56791,0.779763,-0.24583
1630067068201,-0.568642,0.779458,-0.24601299999999998
1630067068211,-0.56974,0.779824,-0.246074
1630067068221,-0.569801,0.7801899999999999,-0.24601299999999998
1630067068230,-0.568703,0.780251,-0.245891
1630067068240,-0.568886,0.779824,-0.245525
1630067068249,-0.5696789999999999,0.778177,-0.244854
1630067068259,-0.5687639999999999,0.778543,-0.245342
1630067068269,-0.5684589999999999,0.779153,-0.24509799999999998
1630067068278,-0.568032,0.778848,-0.24357299999999998
1630067068288,-0.5669339999999999,0.7795799999999999,-0.24357299999999998
1630067068297,-0.566751,0.780922,-0.24326799999999998
1630067068307,-0.5669339999999999,0.782264,-0.24326799999999998
1630067068317,-0.567178,0.782813,-0.243146
1630067068326,-0.566263,0.783667,-0.243146
1630067068336,-0.566141,0.784094,-0.241987
1630067068345,-0.565775,0.7844599999999999,-0.24156
1630067068355,-0.564677,0.784216,-0.241255
1630067068365,-0.56547,0.7841549999999999,-0.240889
1630067068374,-0.5644939999999999,0.784277,-0.240096
1630067068384,-0.564433,0.783728,-0.240767
1630067068393,-0.564616,0.783789,-0.240584
1630067068403,-0.564006,0.784948,-0.24095
1630067068413,-0.563823,0.786229,-0.240645
1630067068422,-0.564128,0.786656,-0.24095
1630067068432,-0.56425,0.787632,-0.240035
1630067068441,-0.5629689999999999,0.786839,-0.240706
1630067068451,-0.5635789999999999,0.786717,-0.239974
1630067068461,-0.5641889999999999,0.786778,-0.240706
1630067068470,-0.563823,0.786839,-0.241316
1630067068480,-0.564128,0.785619,-0.241987
1630067068489,-0.565287,0.7853749999999999,-0.241499
1630067068499,-0.5654089999999999,0.784643,-0.241926
1630067068509,-0.565226,0.783911,-0.24174299999999999
1630067068518,-0.5657139999999999,0.783667,-0.24235299999999999
1630067068528,-0.565653,0.784521,-0.241987
1630067068537,-0.565165,0.784704,-0.241865
1630067068547,-0.5660189999999999,0.7841549999999999,-0.241804
1630067068557,-0.565592,0.7829349999999999,-0.24156
1630067068566,-0.565165,0.782569,-0.24034
1630067068576,-0.565958,0.783362,-0.240035
1630067068585,-0.5657139999999999,0.783728,-0.241377
1630067068595,-0.567117,0.783057,-0.241804
1630067068605,-0.567788,0.782752,-0.243207
1630067068614,-0.569008,0.782081,-0.24448799999999998
1630067068624,-0.5690689999999999,0.7823249999999999,-0.245891
1630067068633,-0.567605,0.782691,-0.24479299999999998
1630067068643,-0.5681539999999999,0.783606,-0.245952
1630067068653,-0.567666,0.781654,-0.247416
1630067068662,-0.565897,0.7774449999999999,-0.24705
1630067068672,-0.566507,0.773968,-0.246745
1630067068681,-0.567483,0.774517,-0.247416
1630067068691,-0.568581,0.778787,-0.249368
1630067068701,-0.5672389999999999,0.781166,-0.247477
1630067068710,-0.5660189999999999,0.780434,-0.241316
1630067068720,-0.564738,0.779702,-0.235399
1630067068729,-0.56608,0.781837,-0.23485
1630067068739,-0.566507,0.786046,-0.23729
1630067068749,-0.568093,0.7881199999999999,-0.23973
1630067068758,-0.568398,0.788669,-0.24156
1630067068768,-0.568886,0.788364,-0.242597
1630067068777,-0.569618,0.787571,-0.242231
1630067068787,-0.570045,0.785314,-0.241316
1630067068797,-0.569008,0.783362,-0.24046199999999998
1630067068806,-0.568337,0.780068,-0.24034
1630067068816,-0.568642,0.778238,-0.240706
1630067068825,-0.5687639999999999,0.777262,-0.24156
1630067068835,-0.569435,0.7771399999999999,-0.243756
1630067068845,-0.570533,0.777323,-0.245525
1630067068854,-0.5705939999999999,0.778482,-0.24662299999999998
1630067068864,-0.5693739999999999,0.7789699999999999,-0.246196
1630067068873,-0.570106,0.780556,-0.244671
1630067068883,-0.569557,0.781898,-0.243695
1630067068893,-0.5699839999999999,0.782081,-0.242902
1630067068902,-0.569618,0.7832399999999999,-0.242475
1630067068912,-0.568215,0.7835449999999999,-0.240218
1630067068921,-0.567422,0.784277,-0.238571
1630067068931,-0.5663239999999999,0.783179,-0.23924199999999998
1630067068941,-0.566812,0.783179,-0.24217
1630067068950,-0.5687639999999999,0.780617,-0.243024
1630067068960,-0.5681539999999999,0.779458,-0.24601299999999998
1630067068969,-0.568215,0.777567,-0.245769
1630067068979,-0.567361,0.775249,-0.241926
1630067068989,-0.567971,0.774395,-0.239913
1630067068998,-0.5673,0.776408,-0.240218
1630067069008,-0.568886,0.779641,-0.241865
1630067069017,-0.570533,0.781654,-0.243817
1630067069027,-0.5708989999999999,0.783911,-0.24418299999999998
1630067069037,-0.5718139999999999,0.784704,-0.245769
1630067069046,-0.5724239999999999,0.7850699999999999,-0.24601299999999998
1630067069056,-0.57279,0.784582,-0.245586
1630067069065,-0.5718139999999999,0.783362,-0.244549
1630067069075,-0.571265,0.782264,-0.24357299999999998
1630067069085,-0.570655,0.780007,-0.242109
1630067069094,-0.569496,0.779214,-0.241987
1630067069104,-0.568947,0.778787,-0.241072
1630067069113,-0.5684589999999999,0.778543,-0.240096
1630067069123,-0.569862,0.778299,-0.241255
1630067069133,-0.569923,0.778726,-0.24156
1630067069142,-0.570106,0.7798849999999999,-0.241072
1630067069152,-0.570838,0.781288,-0.24015699999999998
1630067069161,-0.570472,0.781532,-0.241011
1630067069171,-0.571631,0.782691,-0.24143799999999999
1630067069181,-0.571265,0.782081,-0.24143799999999999
1630067069190,-0.572668,0.782569,-0.243024
1630067069200,-0.5718139999999999,0.782142,-0.24387799999999998
1630067069209,-0.571021,0.780068,-0.244366
1630067069219,-0.571875,0.779397,-0.243512
1630067069229,-0.57096,0.779214,-0.24326799999999998
1630067069238,-0.570655,0.777872,-0.244549
1630067069248,-0.569862,0.7789699999999999,-0.245281
1630067069257,-0.56974,0.778787,-0.245647
1630067069267,-0.568642,0.778604,-0.24570799999999998
1630067069277,-0.569191,0.777811,-0.24461
1630067069286,-0.56791,0.7780549999999999,-0.24448799999999998
1630067069296,-0.567971,0.7789699999999999,-0.24387799999999998
1630067069305,-0.567056,0.779824,-0.244549
1630067069315,-0.5663239999999999,0.781532,-0.242902
1630067069325,-0.5660189999999999,0.782264,-0.243024
1630067069334,-0.565958,0.7829349999999999,-0.242414
1630067069344,-0.565897,0.782996,-0.242475
1630067069353,-0.565897,0.782752,-0.241682
1630067069363,-0.565897,0.7826299999999999,-0.241987
1630067069373,-0.566446,0.783179,-0.24204799999999999
1630067069382,-0.565897,0.783728,-0.241011
1630067069392,-0.565653,0.7829349999999999,-0.241255
1630067069401,-0.566263,0.782447,-0.242292
1630067069411,-0.566385,0.782813,-0.24217
1630067069421,-0.567422,0.7826299999999999,-0.242292
1630067069430,-0.567727,0.781471,-0.24265799999999998
1630067069440,-0.568032,0.781532,-0.242414
1630067069449,-0.56852,0.781166,-0.243146
1630067069459,-0.568886,0.781471,-0.243329
1630067069469,-0.56913,0.7811049999999999,-0.244
1630067069478,-0.569862,0.781654,-0.24278
1630067069488,-0.570045,0.780739,-0.243695
1630067069497,-0.568886,0.7801899999999999,-0.244122
1630067069507,-0.570167,0.780251,-0.243817
1630067069517,-0.569862,0.780922,-0.243634
1630067069526,-0.5702889999999999,0.780434,-0.243512
1630067069536,-0.571082,0.779702,-0.244
1630067069545,-0.5721189999999999,0.779458,-0.243451
1630067069555,-0.57096,0.7795799999999999,-0.24339
1630067069565,-0.571753,0.7798849999999999,-0.243329
1630067069574,-0.571448,0.778848,-0.243939
1630067069584,-0.571875,0.778604,-0.244915
1630067069593,-0.57157,0.778787,-0.243817
1630067069603,-0.571692,0.778543,-0.243817
1630067069613,-0.571692,0.7783599999999999,-0.24461
1630067069622,-0.570533,0.7786649999999999,-0.244976
1630067069632,-0.570777,0.7789699999999999,-0.245586
1630067069641,-0.57096,0.778848,-0.24601299999999998
1630067069651,-0.570777,0.778543,-0.246867
1630067069661,-0.570777,0.777201,-0.245586
1630067069670,-0.57035,0.776713,-0.245037
1630067069680,-0.570472,0.777506,-0.244976
1630067069689,-0.570167,0.778543,-0.244671
1630067069699,-0.5696789999999999,0.779519,-0.244244
1630067069709,-0.569435,0.778848,-0.244549
1630067069718,-0.568398,0.779519,-0.242597
1630067069728,-0.569435,0.779214,-0.243085
1630067069737,-0.5693739999999999,0.778909,-0.24235299999999999
1630067069747,-0.570167,0.779092,-0.24235299999999999
1630067069757,-0.570167,0.7795799999999999,-0.243817
1630067069766,-0.570716,0.7804949999999999,-0.244915
1630067069776,-0.57157,0.780068,-0.24570799999999998
1630067069785,-0.5718139999999999,0.780068,-0.246745
1630067069795,-0.571143,0.781288,-0.246684
1630067069805,-0.570716,0.780922,-0.246379
1630067069814,-0.570533,0.780068,-0.247965
1630067069824,-0.569801,0.776896,-0.249063
1630067069833,-0.568947,0.772931,-0.249246
1630067069843,-0.569191,0.77348,-0.249978
1630067069853,-0.5708989999999999,0.776957,-0.249795
1630067069862,-0.570106,0.7801899999999999,-0.250039
1630067069872,-0.569313,0.779397,-0.244671
1630067069881,-0.567361,0.778116,-0.238754
1630067069891,-0.568642,0.779336,-0.23607
1630067069901,-0.56913,0.782386,-0.23710699999999998
1630067069910,-0.570167,0.784887,-0.240645
1630067069920,-0.570228,0.786839,-0.242902
1630067069929,-0.570777,0.7872049999999999,-0.244061
1630067069939,-0.570167,0.7859849999999999,-0.244671
1630067069949,-0.570472,0.784826,-0.24479299999999998
1630067069958,-0.57035,0.7817149999999999,-0.243146
1630067069968,-0.56974,0.777994,-0.24296299999999998
1630067069977,-0.5693739999999999,0.775493,-0.242719
1630067069987,-0.569191,0.774456,-0.243634
1630067069997,-0.5693739999999999,0.774639,-0.246135
1630067070006,-0.569435,0.775371,-0.247477
1630067070016,-0.570045,0.7765299999999999,-0.247965
1630067070025,-0.569618,0.777689,-0.247233
1630067070035,-0.569557,0.778604,-0.24759899999999999
1630067070045,-0.570228,0.7798849999999999,-0.247416
1630067070054,-0.570106,0.780922,-0.245647
1630067070064,-0.569008,0.782569,-0.244366
1630067070073,-0.5681539999999999,0.784277,-0.243817
1630067070083,-0.567971,0.784948,-0.24235299999999999
1630067070093,-0.566263,0.783301,-0.242292
1630067070102,-0.565226,0.782264,-0.243756
1630067070112,-0.5654089999999999,0.7829349999999999,-0.24448799999999998
1630067070121,-0.565958,0.781654,-0.246074
1630067070131,-0.566263,0.780129,-0.246806
1630067070141,-0.5663239999999999,0.778116,-0.245952
1630067070150,-0.566385,0.776042,-0.242231
1630067070160,-0.566568,0.775066,-0.241255
1630067070169,-0.566446,0.777384,-0.242109
1630067070179,-0.567971,0.780922,-0.244732
1630067070189,-0.568276,0.7835449999999999,-0.246379
1630067070198,-0.570106,0.784704,-0.24851399999999998
1630067070208,-0.57157,0.786473,-0.250161
1630067070217,-0.572058,0.785741,-0.250222
1630067070227,-0.571448,0.784582,-0.24851399999999998
1630067070237,-0.570533,0.783728,-0.247416
1630067070246,-0.568337,0.7811049999999999,-0.245342
1630067070256,-0.56852,0.777872,-0.246257
1630067070265,-0.56913,0.777201,-0.245464
1630067070275,-0.568032,0.776957,-0.245037
1630067070285,-0.568093,0.7768349999999999,-0.24540299999999998
1630067070294,-0.569008,0.777262,-0.24509799999999998
1630067070304,-0.569496,0.7777499999999999,-0.246135
1630067070313,-0.569801,0.778116,-0.24570799999999998
1630067070323,-0.5705939999999999,0.779458,-0.245342
1630067070333,-0.569923,0.780312,-0.24729399999999999
1630067070342,-0.57035,0.7807999999999999,-0.247233
1630067070352,-0.570228,0.780678,-0.24790399999999999
1630067070361,-0.5718139999999999,0.7795799999999999,-0.247843
1630067070371,-0.571082,0.778604,-0.249002
1630067070381,-0.570533,0.778238,-0.249063
1630067070390,-0.570716,0.776774,-0.248758
1630067070400,-0.56974,0.7777499999999999,-0.249978
1630067070409,-0.569496,0.776713,-0.249978
1630067070419,-0.568398,0.7768349999999999,-0.24942899999999998
1630067070429,-0.5681539999999999,0.7777499999999999,-0.249551
1630067070438,-0.568215,0.778177,-0.248575
1630067070448,-0.5672389999999999,0.777262,-0.24827
1630067070457,-0.566751,0.778116,-0.247782
1630067070467,-0.567056,0.778543,-0.24766
1630067070477,-0.566873,0.780312,-0.24705
1630067070486,-0.566202,0.780861,-0.245647
1630067070496,-0.566263,0.781654,-0.245525
1630067070505,-0.566812,0.781837,-0.244976
1630067070515,-0.56608,0.781288,-0.244671
1630067070525,-0.566812,0.7829349999999999,-0.244366
1630067070534,-0.566263,0.7832399999999999,-0.244976
1630067070544,-0.5663239999999999,0.782508,-0.244854
1630067070553,-0.567422,0.782813,-0.24448799999999998
1630067070563,-0.5675439999999999,0.783118,-0.244732
1630067070573,-0.567117,0.7829349999999999,-0.244122
1630067070582,-0.567971,0.782508,-0.24418299999999998
1630067070592,-0.567727,0.783118,-0.244122
1630067070601,-0.568032,0.782081,-0.244061
1630067070611,-0.568825,0.782386,-0.244732
1630067070621,-0.568276,0.7814099999999999,-0.24448799999999998
1630067070630,-0.56852,0.781471,-0.243756
1630067070640,-0.568886,0.782386,-0.244
1630067070649,-0.5684589999999999,0.781227,-0.24461
1630067070659,-0.569435,0.780739,-0.24387799999999998
1630067070669,-0.568825,0.780739,-0.244244
1630067070678,-0.56913,0.7792749999999999,-0.244732
1630067070688,-0.5702889999999999,0.779336,-0.245281
1630067070697,-0.5705939999999999,0.778543,-0.246257
1630067070707,-0.5705939999999999,0.779092,-0.246989
1630067070717,-0.570228,0.778909,-0.245952
1630067070726,-0.571448,0.778177,-0.24601299999999998
1630067070736,-0.571326,0.777933,-0.245525
1630067070745,-0.571692,0.778604,-0.245281
1630067070755,-0.571753,0.7777499999999999,-0.245464
1630067070765,-0.57157,0.7783599999999999,-0.244976
1630067070774,-0.571387,0.777994,-0.24522
1630067070784,-0.57157,0.7783599999999999,-0.24509799999999998
1630067070793,-0.570533,0.7789699999999999,-0.244549
1630067070803,-0.570533,0.7786649999999999,-0.244976
1630067070813,-0.569923,0.7795799999999999,-0.244305
1630067070822,-0.569496,0.780129,-0.244366
1630067070832,-0.5693739999999999,0.780556,-0.244
1630067070841,-0.570045,0.780861,-0.244427
1630067070851,-0.570106,0.781593,-0.244854
1630067070861,-0.570777,0.782508,-0.246501
1630067070870,-0.570716,0.782996,-0.24766
1630067070880,-0.570228,0.783789,-0.246928
1630067070889,-0.5684589999999999,0.781837,-0.246501
1630067070899,-0.5673,0.779824,-0.244244
1630067070909,-0.568032,0.780922,-0.24583
1630067070918,-0.566568,0.779458,-0.246074
1630067070928,-0.56547,0.775493,-0.24601299999999998
1630067070937,-0.565287,0.776347,-0.24662299999999998
1630067070947,-0.5666289999999999,0.779153,-0.249063
1630067070957,-0.567422,0.781227,-0.249307
1630067070966,-0.566812,0.782386,-0.246867
1630067070976,-0.5660189999999999,0.782569,-0.24156
1630067070985,-0.566568,0.7832399999999999,-0.240218
1630067070995,-0.566873,0.785924,-0.24143799999999999
1630067071005,-0.566751,0.787266,-0.243634
1630067071014,-0.5669339999999999,0.787083,-0.244976
1630067071024,-0.5673,0.786656,-0.24509799999999998
1630067071033,-0.568032,0.784338,-0.24631799999999998
1630067071043,-0.567178,0.782874,-0.246379
1630067071053,-0.566812,0.780312,-0.24448799999999998
1630067071062,-0.566141,0.7777499999999999,-0.242597
1630067071072,-0.564616,0.776408,-0.241072
1630067071081,-0.564372,0.776774,-0.241804
1630067071091,-0.56486,0.7780549999999999,-0.24217
1630067071101,-0.565165,0.7801899999999999,-0.242536
1630067071110,-0.564921,0.781776,-0.243939
1630067071120,-0.565592,0.782386,-0.243024
1630067071129,-0.565653,0.782813,-0.243756
1630067071139,-0.567056,0.783301,-0.24296299999999998
1630067071149,-0.566995,0.784338,-0.242841
1630067071158,-0.566385,0.784704,-0.243207
1630067071168,-0.567422,0.784948,-0.242902
1630067071177,-0.566995,0.784521,-0.242475
1630067071187,-0.565226,0.782142,-0.24174299999999999
1630067071197,-0.564982,0.783118,-0.243817
1630067071206,-0.56486,0.783484,-0.244549
1630067071216,-0.565653,0.783362,-0.245037
1630067071225,-0.5641889999999999,0.782752,-0.245952
1630067071235,-0.562786,0.780861,-0.242597
1630067071245,-0.56303,0.779397,-0.238266
1630067071254,-0.563762,0.778909,-0.237778
1630067071264,-0.565226,0.780739,-0.23973
1630067071273,-0.56547,0.784033,-0.240889
1630067071283,-0.566446,0.787327,-0.24296299999999998
1630067071293,-0.567788,0.789401,-0.244671
1630067071302,-0.568398,0.790438,-0.24540299999999998
1630067071312,-0.5693739999999999,0.790011,-0.244976
1630067071321,-0.569008,0.788181,-0.245159
1630067071331,-0.569313,0.7856799999999999,-0.244671
1630067071341,-0.568276,0.782996,-0.24326799999999998
1630067071350,-0.567788,0.781288,-0.244061
1630067071360,-0.567727,0.779214,-0.244
1630067071369,-0.568093,0.777994,-0.244976
1630067071379,-0.568337,0.7774449999999999,-0.245525
1630067071389,-0.568642,0.778299,-0.245586
1630067071398,-0.568703,0.777567,-0.24540299999999998
1630067071408,-0.5684589999999999,0.778543,-0.244671
1630067071417,-0.570167,0.780373,-0.244976
1630067071427,-0.5699839999999999,0.780617,-0.245891
1630067071437,-0.570533,0.781532,-0.245281
1630067071446,-0.571082,0.7807999999999999,-0.245891
1630067071456,-0.571021,0.779702,-0.245952
1630067071465,-0.571936,0.779336,-0.246196
1630067071475,-0.571143,0.778238,-0.245281
1630067071485,-0.571082,0.777872,-0.245586
1630067071494,-0.570716,0.776652,-0.246928
1630067071504,-0.571692,0.777628,-0.248148
1630067071513,-0.571753,0.775432,-0.24851399999999998
1630067071523,-0.5715089999999999,0.776347,-0.247721
1630067071533,-0.570411,0.777506,-0.248758
1630067071542,-0.5696789999999999,0.7768349999999999,-0.248148
1630067071552,-0.56913,0.776957,-0.24583
1630067071561,-0.56852,0.777506,-0.246379
1630067071571,-0.568581,0.779031,-0.245586
1630067071581,-0.56852,0.779824,-0.24418299999999998
1630067071590,-0.5681539999999999,0.780739,-0.243634
1630067071600,-0.5672389999999999,0.781898,-0.24235299999999999
1630067071609,-0.56791,0.782203,-0.242231
1630067071619,-0.567178,0.783606,-0.243207
1630067071629,-0.565836,0.784216,-0.24217
1630067071638,-0.566507,0.784277,-0.241499
1630067071648,-0.5666289999999999,0.784399,-0.241072
1630067071657,-0.566446,0.784704,-0.240706
1630067071667,-0.566995,0.785497,-0.24095
1630067071677,-0.566812,0.785131,-0.240401
1630067071686,-0.567117,0.784826,-0.239913
1630067071696,-0.567178,0.7844599999999999,-0.240035
1630067071705,-0.567788,0.785741,-0.240279
1630067071715,-0.568032,0.785192,-0.24095
1630067071725,-0.568398,0.784826,-0.24156
1630067071734,-0.568215,0.784704,-0.242475
1630067071744,-0.568093,0.782996,-0.24265799999999998
1630067071753,-0.5687639999999999,0.783057,-0.243085
1630067071763,-0.568398,0.783118,-0.242841
1630067071773,-0.568581,0.782813,-0.243207
1630067071782,-0.56791,0.782386,-0.242841
1630067071792,-0.5681539999999999,0.781654,-0.243024
1630067071801,-0.56791,0.7801899999999999,-0.24387799999999998
1630067071811,-0.567605,0.779946,-0.243085
1630067071821,-0.567178,0.778726,-0.24296299999999998
1630067071830,-0.566263,0.7801899999999999,-0.243146
1630067071840,-0.56669,0.779824,-0.244244
1630067071849,-0.5660189999999999,0.780251,-0.243939
1630067071859,-0.5660189999999999,0.780678,-0.243085
1630067071869,-0.566568,0.779641,-0.24326799999999998
1630067071878,-0.566446,0.779153,-0.242841
1630067071888,-0.5669339999999999,0.779031,-0.243756
1630067071897,-0.567056,0.779214,-0.244366
1630067071907,-0.568581,0.7798849999999999,-0.245891
1630067071917,-0.569313,0.780007,-0.24644
1630067071926,-0.569252,0.780007,-0.246135
1630067071936,-0.568947,0.778543,-0.246806
1630067071945,-0.568276,0.777628,-0.24729399999999999
1630067071955,-0.568398,0.778482,-0.248026
1630067071965,-0.5678489999999999,0.775798,-0.24949
1630067071974,-0.566507,0.773358,-0.248087
1630067071984,-0.566995,0.774517,-0.249246
1630067071993,-0.5699839999999999,0.778299,-0.250283
1630067072003,-0.568337,0.780312,-0.248575
1630067072013,-0.5672389999999999,0.780068,-0.244549
1630067072022,-0.566507,0.778726,-0.239059
1630067072032,-0.568276,0.779946,-0.236619
1630067072041,-0.569557,0.783667,-0.239181
1630067072051,-0.571692,0.786778,-0.242475
1630067072061,-0.571265,0.788059,-0.244
1630067072070,-0.571082,0.7872049999999999,-0.244732
1630067072080,-0.5712039999999999,0.786839,-0.24479299999999998
1630067072089,-0.5708989999999999,0.785802,-0.244854
1630067072099,-0.57096,0.781898,-0.24357299999999998
1630067072109,-0.570655,0.779031,-0.24156
1630067072118,-0.570228,0.776774,-0.24143799999999999
1630067072128,-0.570045,0.775127,-0.242841
1630067072137,-0.569801,0.774822,-0.24418299999999998
1630067072147,-0.5715089999999999,0.775249,-0.246562
1630067072157,-0.571265,0.7759199999999999,-0.24759899999999999
1630067072166,-0.571326,0.776896,-0.24729399999999999
1630067072176,-0.5705939999999999,0.778238,-0.24729399999999999
1630067072185,-0.571692,0.778787,-0.245464
1630067072195,-0.571936,0.7807999999999999,-0.244915
1630067072205,-0.571387,0.782996,-0.244427
1630067072214,-0.571021,0.783972,-0.243207
1630067072224,-0.5699839999999999,0.783118,-0.241987
1630067072233,-0.568093,0.780739,-0.24204799999999999
1630067072243,-0.567788,0.781166,-0.243634
1630067072253,-0.5687639999999999,0.780434,-0.245037
1630067072262,-0.568825,0.7798849999999999,-0.246257
1630067072272,-0.567788,0.777811,-0.246806
1630067072281,-0.565653,0.776103,-0.24461
1630067072291,-0.5654089999999999,0.774517,-0.240401
1630067072301,-0.56669,0.774578,-0.239425
1630067072310,-0.567483,0.7765299999999999,-0.239303
1630067072320,-0.568581,0.7801899999999999,-0.241621
1630067072329,-0.569801,0.783484,-0.244366
1630067072339,-0.571265,0.786107,-0.246745
1630067072349,-0.570411,0.787449,-0.24644
1630067072358,-0.570411,0.786961,-0.245952
1630067072368,-0.570533,0.785009,-0.245159
1630067072377,-0.569862,0.7838499999999999,-0.24278
1630067072387,-0.568886,0.781227,-0.24204799999999999
1630067072397,-0.568947,0.7801899999999999,-0.24204799999999999
1630067072406,-0.568642,0.778787,-0.241499
1630067072416,-0.56913,0.778787,-0.241804
1630067072425,-0.568886,0.778726,-0.242475
1630067072435,-0.5681539999999999,0.7798849999999999,-0.241926
1630067072445,-0.568337,0.780068,-0.24095
1630067072454,-0.569496,0.781593,-0.241194
1630067072464,-0.5690689999999999,0.7820199999999999,-0.240767
1630067072473,-0.5696789999999999,0.782203,-0.241194
1630067072483,-0.57035,0.782264,-0.24095
1630067072493,-0.5702889999999999,0.7823249999999999,-0.242109
1630067072502,-0.570777,0.781593,-0.242536
1630067072512,-0.571082,0.782203,-0.242414
1630067072521,-0.569801,0.7804949999999999,-0.24265799999999998
1630067072531,-0.56974,0.7804949999999999,-0.24326799999999998
1630067072541,-0.56974,0.780007,-0.243817
1630067072550,-0.569923,0.779702,-0.244671
1630067072560,-0.569313,0.7792749999999999,-0.245037
1630067072569,-0.569435,0.778543,-0.24540299999999998
1630067072579,-0.5684589999999999,0.777384,-0.245647
1630067072589,-0.567605,0.778543,-0.245464
1630067072598,-0.568093,0.778604,-0.245037
1630067072608,-0.5675439999999999,0.779763,-0.244122
1630067072617,-0.5669339999999999,0.780312,-0.243939
1630067072627,-0.566385,0.781776,-0.243329
1630067072637,-0.565592,0.782813,-0.241987
1630067072646,-0.565043,0.783606,-0.242109
1630067072656,-0.565958,0.783606,-0.24143799999999999
1630067072665,-0.565653,0.784094,-0.240889
1630067072675,-0.565653,0.784033,-0.241377
1630067072685,-0.566263,0.783972,-0.241072
1630067072694,-0.567727,0.783362,-0.242597
1630067072704,-0.566812,0.783606,-0.242536
1630067072713,-0.5675439999999999,0.7838499999999999,-0.243634
1630067072723,-0.567483,0.783118,-0.24326799999999998
1630067072733,-0.568886,0.7820199999999999,-0.242475
1630067072742,-0.567422,0.7829349999999999,-0.242841
1630067072752,-0.568398,0.782752,-0.244
1630067072761,-0.568886,0.782081,-0.243207
1630067072771,-0.569923,0.781044,-0.244122
1630067072781,-0.5705939999999999,0.7807999999999999,-0.24326799999999998
1630067072790,-0.5699839999999999,0.7801899999999999,-0.24448799999999998
1630067072800,-0.570106,0.779946,-0.24509799999999998
1630067072809,-0.570838,0.780007,-0.244732
1630067072819,-0.570655,0.779092,-0.244732
1630067072829,-0.571143,0.778421,-0.24387799999999998
1630067072838,-0.570777,0.778726,-0.243817
1630067072848,-0.570838,0.778177,-0.243451
1630067072857,-0.5712039999999999,0.778421,-0.244061
1630067072867,-0.571448,0.777872,-0.244244
1630067072877,-0.5721189999999999,0.7780549999999999,-0.244427
1630067072886,-0.570838,0.777811,-0.244122
1630067072896,-0.571387,0.777567,-0.244
1630067072905,-0.57218,0.7771399999999999,-0.243756
1630067072915,-0.571692,0.777567,-0.243085
1630067072925,-0.57157,0.777262,-0.244305
1630067072934,-0.571997,0.777628,-0.245952
1630067072944,-0.5727289999999999,0.777689,-0.246257
1630067072953,-0.572485,0.777689,-0.24583
1630067072963,-0.571936,0.777811,-0.246379
1630067072973,-0.572546,0.779214,-0.246684
1630067072982,-0.570411,0.7774449999999999,-0.248087
1630067072992,-0.569496,0.774334,-0.248697
1630067073001,-0.56913,0.773541,-0.249307
1630067073011,-0.569557,0.776286,-0.24949
1630067073021,-0.570533,0.7780549999999999,-0.249185
1630067073030,-0.568886,0.778116,-0.245281
1630067073040,-0.567422,0.777018,-0.23924199999999998
1630067073049,-0.567361,0.7768349999999999,-0.235155
1630067073059,-0.569191,0.780434,-0.236558
1630067073069,-0.5699839999999999,0.785192,-0.239913
1630067073078,-0.5721189999999999,0.7868999999999999,-0.24265799999999998
1630067073088,-0.572363,0.7884249999999999,-0.24339
1630067073097,-0.571631,0.787327,-0.244549
1630067073107,-0.571448,0.786717,-0.245159
1630067073117,-0.5712039999999999,0.7832399999999999,-0.244366
1630067073126,-0.570411,0.780983,-0.242231
1630067073136,-0.569862,0.777079,-0.240706
1630067073145,-0.568825,0.775188,-0.241133
1630067073155,-0.569862,0.7756149999999999,-0.242475
1630067073165,-0.5699839999999999,0.775859,-0.24326799999999998
1630067073174,-0.569191,0.777323,-0.244671
1630067073184,-0.56974,0.778604,-0.24509799999999998
1630067073193,-0.570655,0.779031,-0.245525
1630067073203,-0.57035,0.780739,-0.24540299999999998
1630067073213,-0.569618,0.781471,-0.244976
1630067073222,-0.5699839999999999,0.782508,-0.244
1630067073232,-0.568886,0.782874,-0.242414
1630067073241,-0.5690689999999999,0.7835449999999999,-0.241804
1630067073251,-0.568215,0.782142,-0.241011
1630067073261,-0.5672389999999999,0.780556,-0.244244
1630067073270,-0.567605,0.780007,-0.244122
1630067073280,-0.567971,0.780312,-0.245586
1630067073289,-0.567483,0.7780549999999999,-0.248026
1630067073299,-0.5660189999999999,0.777506,-0.247111
1630067073309,-0.565165,0.7753099999999999,-0.243207
1630067073318,-0.566202,0.773114,-0.239669
1630067073328,-0.566507,0.774456,-0.23985199999999998
1630067073337,-0.567727,0.779092,-0.241377
1630067073347,-0.56791,0.781776,-0.24387799999999998
1630067073357,-0.570106,0.785192,-0.246257
1630067073366,-0.57096,0.786656,-0.248392
1630067073376,-0.571387,0.786412,-0.24851399999999998
1630067073385,-0.571448,0.785314,-0.246928
1630067073395,-0.571326,0.782996,-0.24583
1630067073405,-0.570533,0.781593,-0.244976
1630067073414,-0.5702889999999999,0.778787,-0.24339
1630067073424,-0.570106,0.777994,-0.243939
1630067073433,-0.569801,0.776957,-0.243634
1630067073443,-0.570716,0.775981,-0.243817
1630067073453,-0.571082,0.7771399999999999,-0.244
1630067073462,-0.571265,0.778177,-0.243756
1630067073472,-0.571265,0.779214,-0.244976
1630067073481,-0.570655,0.780068,-0.244671
1630067073491,-0.571692,0.779641,-0.244244
1630067073501,-0.5718139999999999,0.779641,-0.24387799999999998
1630067073510,-0.571997,0.779336,-0.24387799999999998
1630067073520,-0.572485,0.778482,-0.244244
1630067073529,-0.573217,0.777567,-0.244549
1630067073539,-0.57279,0.776408,-0.245952
1630067073549,-0.573156,0.776408,-0.245586
1630067073558,-0.573217,0.776591,-0.245891
1630067073568,-0.573217,0.775981,-0.246379
1630067073577,-0.572912,0.775432,-0.246806
1630067073587,-0.571692,0.776347,-0.247233
1630067073597,-0.57157,0.7756149999999999,-0.247721
1630067073606,-0.571326,0.775859,-0.246928
1630067073616,-0.5705939999999999,0.775859,-0.24662299999999998
1630067073625,-0.570045,0.776103,-0.24729399999999999
1630067073635,-0.569313,0.777079,-0.24570799999999998
1630067073645,-0.568642,0.778482,-0.244244
1630067073654,-0.5684589999999999,0.779763,-0.24339
1630067073664,-0.567666,0.780922,-0.243085
1630067073673,-0.568093,0.780861,-0.24326799999999998
1630067073683,-0.567666,0.782264,-0.242536
1630067073693,-0.5684589999999999,0.782264,-0.242292
1630067073702,-0.5681539999999999,0.7826299999999999,-0.241682
1630067073712,-0.568947,0.782264,-0.241926
1630067073721,-0.5684589999999999,0.782081,-0.241926
1630067073731,-0.569191,0.781959,-0.242536
1630067073741,-0.569191,0.782447,-0.243146
1630067073750,-0.569618,0.781776,-0.243512
1630067073760,-0.56974,0.7811049999999999,-0.24357299999999998
1630067073769,-0.569801,0.781044,-0.24387799999999998
1630067073779,-0.569801,0.780007,-0.24326799999999998
1630067073789,-0.569557,0.7798849999999999,-0.243817
1630067073798,-0.5699839999999999,0.779946,-0.244
1630067073808,-0.570777,0.7789699999999999,-0.244427
1630067073817,-0.571692,0.779824,-0.244854
1630067073827,-0.571082,0.780312,-0.243695
1630067073837,-0.570533,0.779519,-0.243085
1630067073846,-0.570838,0.780617,-0.242597
1630067073856,-0.57157,0.780373,-0.243024
1630067073865,-0.571143,0.780129,-0.243024
1630067073875,-0.571082,0.779824,-0.24265799999999998
1630067073885,-0.570228,0.779946,-0.24204799999999999
1630067073894,-0.571143,0.7795799999999999,-0.242414
1630067073904,-0.571021,0.778848,-0.24217
1630067073913,-0.571875,0.778238,-0.24326799999999998
1630067073923,-0.572302,0.777689,-0.244671
1630067073933,-0.57218,0.7777499999999999,-0.24509799999999998
1630067073942,-0.572668,0.778116,-0.245342
1630067073952,-0.572363,0.777628,-0.245769
1630067073961,-0.573278,0.778421,-0.245342
1630067073971,-0.572668,0.778177,-0.247782
1630067073981,-0.5712039999999999,0.775676,-0.249673
1630067073990,-0.569801,0.773846,-0.248697
1630067074000,-0.569496,0.775432,-0.249368
1630067074009,-0.57096,0.776652,-0.249368
1630067074019,-0.569618,0.778238,-0.245891
1630067074029,-0.568276,0.7774449999999999,-0.239486
1630067074038,-0.5666289999999999,0.776652,-0.234484
1630067074048,-0.5684589999999999,0.779702,-0.234484
1630067074057,-0.569252,0.783362,-0.238754
1630067074067,-0.571143,0.786229,-0.241987
1630067074077,-0.572668,0.786412,-0.244122
1630067074086,-0.572668,0.786473,-0.245464
1630067074096,-0.572973,0.785314,-0.245891
1630067074105,-0.572546,0.7829349999999999,-0.244976
1630067074115,-0.5712039999999999,0.7792749999999999,-0.243207
1630067074125,-0.570472,0.776347,-0.242109
1630067074134,-0.570167,0.774212,-0.242841
1630067074144,-0.570167,0.773175,-0.24296299999999998
1630067074153,-0.570838,0.773541,-0.244061
1630067074163,-0.571082,0.774395,-0.244854
1630067074173,-0.571448,0.775981,-0.245891
1630067074182,-0.571326,0.777994,-0.245769
1630067074192,-0.57157,0.780129,-0.245342
1630067074201,-0.571265,0.7820199999999999,-0.244854
1630067074211,-0.572302,0.782081,-0.244244
1630067074221,-0.5708989999999999,0.783118,-0.243329
1630067074230,-0.571326,0.7832399999999999,-0.24143799999999999
1630067074240,-0.5696789999999999,0.781166,-0.24217
1630067074249,-0.569923,0.779214,-0.24217
1630067074259,-0.569618,0.7804949999999999,-0.244122
1630067074269,-0.570716,0.779397,-0.245769
1630067074278,-0.5699839999999999,0.777811,-0.248331
1630067074288,-0.568093,0.776164,-0.248026
1630067074297,-0.567971,0.773419,-0.24448799999999998
1630067074307,-0.56913,0.772443,-0.242414
1630067074317,-0.5693739999999999,0.773663,-0.242414
1630067074326,-0.5702889999999999,0.776103,-0.243207
1630067074336,-0.5718139999999999,0.779702,-0.245891
1630067074345,-0.572607,0.782569,-0.248148
1630067074355,-0.573034,0.784338,-0.248575
1630067074365,-0.5734,0.784216,-0.247355
1630067074374,-0.573156,0.783911,-0.24729399999999999
1630067074384,-0.5724239999999999,0.7817149999999999,-0.24583
1630067074393,-0.571448,0.779397,-0.243939
1630067074403,-0.571143,0.777018,-0.24278
1630067074413,-0.570777,0.7762249999999999,-0.24278
1630067074422,-0.570838,0.775188,-0.243329
1630067074432,-0.5712039999999999,0.776103,-0.242902
1630067074441,-0.571936,0.775981,-0.243512
1630067074451,-0.5721189999999999,0.776103,-0.24326799999999998
1630067074461,-0.572546,0.777567,-0.244
1630067074470,-0.573705,0.779214,-0.244427
1630067074480,-0.573949,0.779031,-0.244854
1630067074489,-0.57401,0.779153,-0.243939
1630067074499,-0.573583,0.779031,-0.244244
1630067074509,-0.573888,0.7783599999999999,-0.244244
1630067074518,-0.574559,0.777506,-0.24461
1630067074528,-0.573766,0.777689,-0.244244
1630067074537,-0.573949,0.777323,-0.245037
1630067074547,-0.57279,0.776774,-0.24479299999999998
1630067074557,-0.571936,0.776652,-0.245037
1630067074566,-0.57279,0.777262,-0.244976
1630067074576,-0.571631,0.776408,-0.24540299999999998
1630067074585,-0.570472,0.7774449999999999,-0.24509799999999998
1630067074595,-0.57035,0.777872,-0.244427
1630067074605,-0.570045,0.777994,-0.244
1630067074614,-0.569496,0.777567,-0.244732
1630067074624,-0.568825,0.778482,-0.24387799999999998
1630067074633,-0.568886,0.779397,-0.243634
1630067074643,-0.5687639999999999,0.780556,-0.242414
1630067074653,-0.569008,0.781288,-0.242719
1630067074662,-0.568947,0.780373,-0.241926
1630067074672,-0.569008,0.781166,-0.24235299999999999
1630067074681,-0.568337,0.781288,-0.241316
1630067074691,-0.568093,0.781288,-0.241255
1630067074701,-0.568642,0.780983,-0.241499
1630067074710,-0.569862,0.7811049999999999,-0.241682
1630067074720,-0.570045,0.781471,-0.241865
1630067074729,-0.569801,0.781166,-0.24217
1630067074739,-0.570655,0.780068,-0.241255
1630067074749,-0.570838,0.780129,-0.24217
1630067074758,-0.571387,0.779153,-0.241987
1630067074768,-0.57218,0.779397,-0.24204799999999999
1630067074777,-0.572058,0.779702,-0.242597
1630067074787,-0.572546,0.779946,-0.24265799999999998
1630067074797,-0.573949,0.779153,-0.243634
1630067074806,-0.573461,0.778482,-0.24278
1630067074816,-0.573217,0.777384,-0.24095
1630067074825,-0.5734,0.777811,-0.241499
1630067074835,-0.574193,0.7783599999999999,-0.242414
1630067074845,-0.574132,0.779153,-0.24296299999999998
1630067074854,-0.574193,0.779458,-0.244244
1630067074864,-0.575474,0.7786649999999999,-0.244122
1630067074873,-0.574681,0.777506,-0.244671
1630067074883,-0.57462,0.775493,-0.243756
1630067074893,-0.575413,0.775127,-0.245586
1630067074902,-0.574071,0.773053,-0.246928
1630067074912,-0.573339,0.770186,-0.246928
1630067074921,-0.572912,0.771467,-0.248453
1630067074931,-0.574376,0.774029,-0.24766
1630067074941,-0.575108,0.7746999999999999,-0.246501
1630067074950,-0.573949,0.774639,-0.24326799999999998
1630067074960,-0.573339,0.775737,-0.23985199999999998
1630067074969,-0.573827,0.7780549999999999,-0.237778
1630067074979,-0.574376,0.782264,-0.241682
1630067074989,-0.573766,0.783606,-0.243146
1630067074998,-0.573095,0.783972,-0.24479299999999998
1630067075008,-0.57279,0.7835449999999999,-0.24583
1630067075017,-0.572241,0.781166,-0.24662299999999998
1630067075027,-0.571448,0.778604,-0.245037
1630067075037,-0.570472,0.775737,-0.244061
1630067075046,-0.5702889999999999,0.773846,-0.241072
1630067075056,-0.568032,0.772565,-0.238815
1630067075065,-0.5681539999999999,0.771284,-0.239181
1630067075075,-0.569252,0.774395,-0.241377
1630067075085,-0.570167,0.775798,-0.241255
1630067075094,-0.570838,0.777628,-0.242902
1630067075104,-0.570838,0.7789699999999999,-0.242414
1630067075113,-0.571753,0.780434,-0.242597
1630067075123,-0.572912,0.782386,-0.242902
1630067075133,-0.573278,0.783118,-0.243512
1630067075142,-0.573705,0.7841549999999999,-0.24326799999999998
1630067075152,-0.573461,0.7838499999999999,-0.24217
1630067075161,-0.572912,0.781776,-0.241621
1630067075171,-0.571631,0.781349,-0.24339
1630067075181,-0.572546,0.780312,-0.243207
1630067075190,-0.572241,0.779397,-0.245342
1630067075200,-0.571387,0.7786649999999999,-0.246562
1630067075209,-0.56974,0.776591,-0.24357299999999998
1630067075219,-0.568581,0.774761,-0.239913
1630067075229,-0.569435,0.774822,-0.23924199999999998
1630067075238,-0.569313,0.776957,-0.240706
1630067075248,-0.570045,0.7801899999999999,-0.241804
1630067075257,-0.570167,0.782081,-0.24387799999999998
1630067075267,-0.569618,0.783179,-0.244671
1630067075277,-0.57035,0.7853749999999999,-0.24509799999999998
1630067075286,-0.570106,0.783911,-0.24448799999999998
1630067075296,-0.57035,0.783362,-0.244671
1630067075305,-0.5702889999999999,0.781532,-0.24296299999999998
1630067075315,-0.569496,0.780373,-0.242597
1630067075325,-0.567971,0.778421,-0.241194
1630067075334,-0.569862,0.777323,-0.243024
1630067075344,-0.568825,0.777018,-0.244244
1630067075353,-0.569862,0.776591,-0.244061
1630067075363,-0.57035,0.776774,-0.244061
1630067075373,-0.570838,0.7780549999999999,-0.24387799999999998
1630067075382,-0.5721189999999999,0.778421,-0.24461
1630067075392,-0.572058,0.7786649999999999,-0.24448799999999998
1630067075401,-0.57279,0.779031,-0.244122
1630067075411,-0.57218,0.778909,-0.243817
1630067075421,-0.572668,0.778421,-0.24143799999999999
1630067075430,-0.572973,0.777567,-0.24156
1630067075440,-0.5727289999999999,0.778238,-0.243085
1630067075449,-0.573644,0.777811,-0.242536
1630067075459,-0.574254,0.778787,-0.243695
1630067075469,-0.574498,0.778177,-0.243817
1630067075478,-0.573522,0.779031,-0.24387799999999998
1630067075488,-0.573339,0.778238,-0.24296299999999998
1630067075497,-0.5734,0.778543,-0.243146
1630067075507,-0.573217,0.778116,-0.242841
1630067075517,-0.5721189999999999,0.7777499999999999,-0.242536
1630067075526,-0.571997,0.778116,-0.242109
1630067075536,-0.571692,0.7786649999999999,-0.24204799999999999
1630067075545,-0.571753,0.777994,-0.241804
1630067075555,-0.57279,0.777872,-0.24265799999999998
1630067075565,-0.572058,0.7792749999999999,-0.241621
1630067075574,-0.571936,0.779214,-0.240828
1630067075584,-0.571448,0.780068,-0.240706
1630067075593,-0.570533,0.780983,-0.239486
1630067075603,-0.5705939999999999,0.781898,-0.23893699999999998
1630067075613,-0.5708989999999999,0.781471,-0.238266
1630067075622,-0.570472,0.7814099999999999,-0.236924
1630067075632,-0.57035,0.7820199999999999,-0.23680199999999998
1630067075641,-0.570045,0.782142,-0.236924
1630067075651,-0.569862,0.781349,-0.23619199999999999
1630067075661,-0.57035,0.781776,-0.236985
1630067075670,-0.570716,0.782691,-0.238449
1630067075680,-0.571143,0.781837,-0.239303
1630067075689,-0.571753,0.781532,-0.240523
1630067075699,-0.571997,0.7801899999999999,-0.23954699999999998
1630067075709,-0.570777,0.7780549999999999,-0.23863199999999998
1630067075718,-0.5712039999999999,0.775432,-0.239181
1630067075728,-0.57096,0.775554,-0.238388
1630067075737,-0.57096,0.7753099999999999,-0.240767
1630067075747,-0.570777,0.776713,-0.244671
1630067075757,-0.5715089999999999,0.778238,-0.24540299999999998
1630067075766,-0.57279,0.777262,-0.243329
1630067075776,-0.574254,0.777262,-0.242841
1630067075785,-0.574986,0.779214,-0.242292
1630067075795,-0.574498,0.780678,-0.239913
1630067075805,-0.574193,0.780983,-0.238205
1630067075814,-0.573705,0.782874,-0.23851
1630067075824,-0.572973,0.785009,-0.239608
1630067075833,-0.573278,0.784826,-0.242597
1630067075843,-0.57218,0.782142,-0.243939
1630067075853,-0.573339,0.781349,-0.243329
1630067075862,-0.5718139999999999,0.778604,-0.242597
1630067075872,-0.570655,0.777567,-0.240828
1630067075881,-0.570472,0.776408,-0.240035
1630067075891,-0.568886,0.775737,-0.238449
1630067075901,-0.5687639999999999,0.774334,-0.237595
1630067075910,-0.569618,0.775737,-0.240096
1630067075920,-0.570777,0.777262,-0.242414
1630067075929,-0.571082,0.779519,-0.243695
1630067075939,-0.5702889999999999,0.781837,-0.244305
1630067075949,-0.571692,0.782874,-0.244427
1630067075958,-0.57096,0.7826299999999999,-0.24461
1630067075968,-0.571875,0.782874,-0.24326799999999998
1630067075977,-0.57157,0.784094,-0.243817
1630067075987,-0.570777,0.781654,-0.24326799999999998
1630067075997,-0.569496,0.779763,-0.244305
1630067076006,-0.570472,0.779336,-0.246074
1630067076016,-0.5712039999999999,0.777384,-0.24644
1630067076025,-0.570411,0.777384,-0.24759899999999999
1630067076035,-0.569252,0.777323,-0.247172
1630067076045,-0.568276,0.775371,-0.243146
1630067076054,-0.568703,0.772443,-0.239974
1630067076064,-0.56852,0.774456,-0.238998
1630067076073,-0.569801,0.776408,-0.24095
1630067076083,-0.571692,0.777628,-0.241926
1630067076093,-0.572973,0.779336,-0.244549
1630067076102,-0.574254,0.781288,-0.24540299999999998
1630067076112,-0.574803,0.7823249999999999,-0.24662299999999998
1630067076121,-0.575169,0.781593,-0.246196
1630067076131,-0.574864,0.780251,-0.243939
1630067076141,-0.574376,0.777384,-0.24265799999999998
1630067076150,-0.574254,0.775066,-0.24326799999999998
1630067076160,-0.574254,0.773846,-0.243634
1630067076169,-0.574864,0.772626,-0.244305
1630067076179,-0.575291,0.770979,-0.24387799999999998
1630067076189,-0.575291,0.771345,-0.244549
