timestamp,ax,ay,az
1630067311020,-0.374052,-0.9092049999999999,0.205875
1630067311030,-0.369172,-0.907741,0.210267
1630067311039,-0.366427,-0.907253,0.21337799999999998
1630067311049,-0.363499,-0.907253,0.214537
1630067311058,-0.361181,-0.9079849999999999,0.21490299999999998
1630067311068,-0.35929,-0.9107299999999999,0.214842
1630067311078,-0.35807,-0.911767,0.216428
1630067311087,-0.357887,-0.911279,0.217526
1630067311097,-0.357155,-0.912621,0.218258
1630067311106,-0.35563,-0.911828,0.221186
1630067311116,-0.355752,-0.9110349999999999,0.222711
1630067311126,-0.35678899999999997,-0.912499,0.223382
1630067311135,-0.357338,-0.913841,0.223626
1630067311145,-0.357948,-0.915244,0.224602
1630067311154,-0.359778,-0.916342,0.226066
1630067311164,-0.359412,-0.914756,0.22722499999999998
1630067311174,-0.361913,-0.913841,0.226188
1630067311183,-0.363438,-0.913292,0.22478499999999998
1630067311193,-0.36636599999999997,-0.912987,0.22508999999999998
1630067311202,-0.369172,-0.911523,0.224724
1630067311212,-0.370392,-0.909998,0.223931
1630067311222,-0.368684,-0.911584,0.22075899999999998
1630067311231,-0.36661,-0.911828,0.216367
1630067311241,-0.366244,-0.913414,0.212585
1630067311250,-0.365329,-0.912011,0.20679
1630067311260,-0.364048,-0.912499,0.20496
1630067311270,-0.363194,-0.912926,0.204777
1630067311279,-0.361059,-0.910608,0.208376
1630067311289,-0.358375,-0.9088999999999999,0.213317
1630067311298,-0.354227,-0.907558,0.21953899999999998
1630067311308,-0.351055,-0.907924,0.22447999999999999
1630067311318,-0.348249,-0.909876,0.227896
1630067051824,-0.535397,-0.85583,-0.022143
1630067051833,-0.531249,-0.862174,-0.014213
1630067051843,-0.526796,-0.869006,-0.011163
1630067051853,-0.521062,-0.8784,-0.011712
1630067051862,-0.517158,-0.8845,-0.013663999999999999
1630067051872,-0.515938,-0.882304,-0.013908
1630067051881,-0.512827,-0.882365,-0.013663999999999999
1630067051891,-0.508191,-0.882853,-0.01342
1630067051901,-0.50264,-0.881938,-0.010187
1630067051910,-0.496662,-0.876448,-0.005124
1630067051920,-0.49324599999999996,-0.869311,-0.001464
1630067051929,-0.49080599999999996,-0.864004,0.001586
1630067051939,-0.488732,-0.861259,0.004514
1630067051949,-0.484035,-0.8577819999999999,0.007991
1630067051958,-0.478606,-0.854793,0.013481
1630067051968,-0.475068,-0.8513769999999999,0.017934
1630067051977,-0.47451899999999997,-0.850584,0.022448
1630067051987,-0.477325,-0.855708,0.022814
1630067051997,-0.47946,-0.864736,0.020313
1630067052006,-0.481168,-0.870104,0.017324
1630067052016,-0.484767,-0.8769359999999999,0.017324
1630067052025,-0.488732,-0.88206,0.016958
1630067052035,-0.48989099999999997,-0.885354,0.020739999999999998
1630067052045,-0.490867,-0.885415,0.02196
1630067052054,-0.492392,-0.886025,0.021228
1630067052064,-0.495747,-0.892003,0.021533
1630067052073,-0.500139,-0.898469,0.019093
1630067052083,-0.500078,-0.899994,0.016226
1630067052093,-0.49959,-0.898469,0.013969
1630067052102,-0.49550299999999997,-0.894321,0.013663999999999999
1630067052112,-0.48983,-0.885293,0.013054
1630067052121,-0.487939,-0.877729,0.014579
1630067052131,-0.48678,-0.875594,0.013297999999999999
1630067052141,-0.48257099999999997,-0.87474,0.011895
1630067052150,-0.475983,-0.873215,0.008905999999999999
1630067052160,-0.477081,-0.8705309999999999,0.0075639999999999995
1630067052169,-0.482632,-0.873215,0.00549
1630067052179,-0.48983,-0.875838,0.002806
1630067052189,-0.496784,-0.878278,0.001464
1630067052198,-0.501969,-0.879193,-0.0018909999999999999
1630067052208,-0.505629,-0.881694,-0.0070149999999999995
1630067052217,-0.507337,-0.884012,-0.013297999999999999
1630067052227,-0.507215,-0.885049,-0.020191
1630067052237,-0.507337,-0.8833409999999999,-0.028243
1630067052246,-0.504958,-0.880108,-0.035868
1630067052256,-0.503128,-0.875777,-0.043066
1630067052265,-0.502884,-0.8717509999999999,-0.04819
1630067052275,-0.505202,-0.872117,-0.053863
1630067052285,-0.505385,-0.873703,-0.060146
1630067052294,-0.504958,-0.872178,-0.068198
1630067052304,-0.502457,-0.867176,-0.074908
1630067052313,-0.49837,-0.859246,-0.08295999999999999
1630067052323,-0.49294099999999996,-0.8519869999999999,-0.08967
1630067052333,-0.48678,-0.846131,-0.094489
1630067052342,-0.482205,-0.840824,-0.099735
1630067052352,-0.479826,-0.840336,-0.103883
1630067052361,-0.477935,-0.840336,-0.106933
1630067052371,-0.478362,-0.843142,-0.110288
1630067052381,-0.478728,-0.8492419999999999,-0.111508
1630067052390,-0.480253,-0.857355,-0.11163
1630067052400,-0.481839,-0.867176,-0.111996
1630067052409,-0.483425,-0.875289,-0.111203
1630067052419,-0.48623099999999997,-0.88267,-0.108946
1630067052429,-0.488122,-0.889868,-0.104188
1630067052438,-0.489098,-0.895297,-0.100467
1630067052448,-0.488854,-0.898347,-0.096502
1630067052457,-0.48745099999999997,-0.896822,-0.092232
1630067052467,-0.48836599999999997,-0.89243,-0.090707
1630067052477,-0.487268,-0.8863909999999999,-0.09143899999999999
1630067052486,-0.48348599999999997,-0.881877,-0.092842
1630067052496,-0.481412,-0.87718,-0.094184
1630067052505,-0.47824,-0.874923,-0.09204899999999999
1630067052515,-0.477386,-0.870958,-0.090402
1630067052525,-0.47763,-0.869189,-0.09028
1630067052534,-0.479582,-0.86681,-0.087779
1630067052544,-0.480558,-0.865529,-0.0854
1630067052553,-0.482754,-0.867054,-0.079849
1630067052563,-0.485133,-0.870409,-0.077531
1630067052573,-0.491172,-0.872788,-0.078141
1630067052582,-0.49580799999999997,-0.875899,-0.077348
1630067052592,-0.49702799999999997,-0.873215,-0.076677
1630067052601,-0.500505,-0.868579,-0.077714
1630067052611,-0.502518,-0.868579,-0.080398
1630067052621,-0.500627,-0.870043,-0.07942199999999999
1630067052630,-0.49946799999999997,-0.870043,-0.077043
1630067052640,-0.497211,-0.866566,-0.077714
1630067052649,-0.495015,-0.862174,-0.080703
1630067052659,-0.493917,-0.8553419999999999,-0.081923
1630067052669,-0.494222,-0.8474119999999999,-0.081191
1630067052678,-0.495747,-0.840275,-0.081313
1630067052688,-0.49471,-0.8334429999999999,-0.080215
1630067052697,-0.49593,-0.83265,-0.080398
1630067052707,-0.49593,-0.8346629999999999,-0.078263
1630067052717,-0.49959,-0.838201,-0.077226
1630067052726,-0.50142,-0.845033,-0.075518
1630067052736,-0.503433,-0.852048,-0.072773
1630067052745,-0.503555,-0.856806,-0.068076
1630067052755,-0.505568,-0.8601,-0.062464
1630067052765,-0.50813,-0.865956,-0.05734
1630067052774,-0.509472,-0.874374,-0.052886999999999997
1630067052784,-0.50752,-0.8805959999999999,-0.046665
1630067052793,-0.506849,-0.8839509999999999,-0.03904
1630067052803,-0.505385,-0.883219,-0.034159999999999996
1630067052813,-0.503311,-0.877668,-0.035807
1630067052822,-0.503006,-0.873337,-0.041236
1630067052832,-0.501847,-0.874679,-0.046421
1630067052841,-0.49916299999999997,-0.87535,-0.049471
1630067052851,-0.496967,-0.8708359999999999,-0.054046
1630067052861,-0.495076,-0.870043,-0.058193999999999996
1630067052870,-0.49288,-0.876143,-0.064294
1630067052880,-0.490257,-0.877912,-0.06539199999999999
1630067052889,-0.490684,-0.878888,-0.064355
1630067052899,-0.491843,-0.88084,-0.067588
1630067052909,-0.49227,-0.883585,-0.070821
1630067052918,-0.492758,-0.887855,-0.07137
1630067052928,-0.490379,-0.888709,-0.066978
1630067052937,-0.48867099999999997,-0.889258,-0.061549
1630067052947,-0.487817,-0.890722,-0.055205
1630067052957,-0.486109,-0.893284,-0.046116
1630067052966,-0.485072,-0.893467,-0.038979
1630067052976,-0.482693,-0.8951749999999999,-0.034465
1630067052985,-0.479277,-0.894931,-0.029646
1630067052995,-0.477386,-0.892796,-0.027999
1630067053005,-0.475373,-0.8885259999999999,-0.026900999999999998
1630067053014,-0.474885,-0.884927,-0.02684
1630067053024,-0.475495,-0.88145,-0.024461
1630067053033,-0.474275,-0.877912,-0.020435
1630067053043,-0.476288,-0.874679,-0.016714
1630067053053,-0.476105,-0.870714,-0.010492
1630067053062,-0.47763,-0.867664,-0.00671
1630067053072,-0.4758,-0.865895,-0.003172
1630067053081,-0.476898,-0.867298,-0.0013419999999999999
1630067053091,-0.477996,-0.868274,0.00061
1630067053101,-0.479826,-0.867542,0.002623
1630067053110,-0.48348599999999997,-0.868335,0.001098
1630067053120,-0.48861,-0.8708359999999999,-0.002196
1630067053129,-0.491294,-0.8714459999999999,-0.007076
1630067053139,-0.491477,-0.874862,-0.011163
1630067053149,-0.49105,-0.879315,-0.016042999999999998
1630067053158,-0.49294099999999996,-0.880352,-0.023729
1630067053168,-0.49519799999999997,-0.877058,-0.027816
1630067053177,-0.49672299999999997,-0.875838,-0.032574
1630067053187,-0.500688,-0.8726659999999999,-0.037759
1630067053197,-0.50081,-0.872544,-0.043066
1630067053206,-0.501542,-0.871873,-0.046299
1630067053216,-0.50142,-0.873398,-0.047945999999999996
1630067053225,-0.501725,-0.873947,-0.049898
1630067053235,-0.501603,-0.8729709999999999,-0.05002
1630067053245,-0.499956,-0.870592,-0.050568999999999996
1630067053254,-0.497272,-0.870165,-0.048922
1630067053264,-0.496845,-0.869982,-0.047702
1630067053273,-0.495442,-0.87169,-0.045079
1630067053283,-0.496906,-0.873398,-0.040748
1630067053293,-0.49885799999999997,-0.869616,-0.035502
1630067053302,-0.50081,-0.864126,-0.03538
1630067053312,-0.504897,-0.861808,-0.037027
1630067053321,-0.50447,-0.862601,-0.036722
1630067053331,-0.505568,-0.864004,-0.034709
1630067053341,-0.506788,-0.865956,-0.036173
1630067053350,-0.504226,-0.864736,-0.038796
1630067053360,-0.506117,-0.8583919999999999,-0.038491
1630067053369,-0.510814,-0.8602219999999999,-0.040443
1630067053379,-0.511973,-0.865346,-0.043554
1630067053389,-0.5124609999999999,-0.869494,-0.04209
1630067053398,-0.513742,-0.874008,-0.050203
1630067053408,-0.509167,-0.881572,-0.048007
1630067053417,-0.507581,-0.8836459999999999,-0.051727999999999996
1630067053427,-0.508984,-0.882304,-0.056791
1630067053437,-0.508252,-0.878034,-0.055327
1630067053446,-0.505873,-0.873703,-0.052765
1630067053456,-0.503982,-0.870592,-0.052582
1630067053465,-0.501298,-0.869616,-0.056913
1630067053475,-0.49959,-0.866505,-0.061061
1630067053485,-0.496052,-0.866993,-0.065514
1630067053494,-0.494405,-0.86986,-0.072346
1630067053504,-0.493002,-0.86986,-0.074603
1630067053513,-0.490623,-0.869311,-0.074054
1630067053523,-0.489464,-0.867969,-0.072956
1630067053533,-0.488793,-0.8662,-0.073078
1630067053542,-0.486414,-0.866322,-0.072346
1630067053552,-0.48562099999999997,-0.8644919999999999,-0.073322
1630067053561,-0.484889,-0.865346,-0.070699
1630067053571,-0.48318099999999997,-0.866688,-0.071492
1630067053581,-0.482266,-0.8714459999999999,-0.07198
1630067053590,-0.481778,-0.874069,-0.070089
1630067053600,-0.483059,-0.876997,-0.07094299999999999
1630067053609,-0.480802,-0.8738859999999999,-0.069845
1630067053619,-0.482998,-0.868945,-0.069296
1630067053629,-0.483425,-0.8708359999999999,-0.06801499999999999
1630067053638,-0.484523,-0.871568,-0.066734
1630067053648,-0.485438,-0.871873,-0.063379
1630067053657,-0.48501099999999997,-0.878278,-0.064111
1630067053667,-0.48556,-0.882548,-0.064416
1630067053677,-0.48440099999999997,-0.88206,-0.063257
1630067053686,-0.484157,-0.881694,-0.063379
1630067053696,-0.484645,-0.88145,-0.062647
1630067053705,-0.48556,-0.879803,-0.063501
1630067053715,-0.485499,-0.879437,-0.06417199999999999
1630067053725,-0.48592599999999997,-0.878095,-0.066612
1630067053734,-0.48556,-0.877119,-0.069113
1630067053744,-0.48501099999999997,-0.877973,-0.071065
1630067053753,-0.482754,-0.877424,-0.072651
1630067053763,-0.481473,-0.876692,-0.074115
1630067053773,-0.48092399999999996,-0.87596,-0.076433
1630067053782,-0.480497,-0.874313,-0.07503
1630067053792,-0.480131,-0.873764,-0.07503
1630067053801,-0.481595,-0.875533,-0.07503
1630067053811,-0.478972,-0.876265,-0.074603
1630067053821,-0.47702,-0.8763259999999999,-0.074542
1630067053830,-0.47878899999999996,-0.878034,-0.072163
1630067053840,-0.477752,-0.878644,-0.069296
1630067053849,-0.477935,-0.87718,-0.067588
1630067053859,-0.478545,-0.875899,-0.066124
1630067053869,-0.477935,-0.873398,-0.066429
1630067053878,-0.477508,-0.870653,-0.064843
1630067053888,-0.47641,-0.867603,-0.064233
1630067053897,-0.477691,-0.865651,-0.064111
1630067053907,-0.48061899999999996,-0.867176,-0.06649
1630067053917,-0.484523,-0.86986,-0.070211
1630067053926,-0.48592599999999997,-0.869372,-0.071614
1630067053936,-0.487024,-0.871568,-0.075213
1630067053945,-0.486048,-0.872178,-0.077287
1630067053955,-0.48739,-0.871934,-0.075884
1630067053965,-0.488183,-0.874069,-0.074298
1630067053974,-0.488305,-0.876692,-0.073505
1630067053984,-0.489342,-0.87596,-0.074786
1630067053993,-0.487024,-0.875289,-0.072529
1630067054003,-0.485804,-0.8741909999999999,-0.071858
1630067054013,-0.485438,-0.873947,-0.07155299999999999
1630067054022,-0.484584,-0.87352,-0.070394
1630067054032,-0.482815,-0.872727,-0.07015
1630067054041,-0.482693,-0.8705309999999999,-0.070516
1630067054051,-0.482144,-0.871934,-0.070821
1630067054061,-0.481046,-0.875655,-0.071187
1630067054070,-0.482388,-0.8738859999999999,-0.069357
1630067054080,-0.483608,-0.875045,-0.070211
1630067054089,-0.483852,-0.8744959999999999,-0.069113
1630067054099,-0.483974,-0.869006,-0.066795
1630067054109,-0.48531599999999997,-0.866688,-0.06740499999999999
1630067054118,-0.487634,-0.8726659999999999,-0.066063
1630067054128,-0.490074,-0.87596,-0.065697
1630067054137,-0.492758,-0.876509,-0.06588
1630067054147,-0.49263599999999996,-0.8778509999999999,-0.06709999999999999
1630067054157,-0.493917,-0.879864,-0.068137
1630067054166,-0.492819,-0.88023,-0.069479
1630067054176,-0.494344,-0.877668,-0.068259
1630067054185,-0.494466,-0.8757159999999999,-0.068076
1630067054195,-0.496296,-0.873947,-0.066368
1630067054205,-0.497699,-0.873215,-0.063867
1630067054214,-0.49855299999999997,-0.87352,-0.064965
1630067054224,-0.499834,-0.873459,-0.063562
1630067054233,-0.499529,-0.873032,-0.062769
1630067054243,-0.497394,-0.871507,-0.062647
1630067054253,-0.49489299999999997,-0.870043,-0.063074
1630067054262,-0.496662,-0.866749,-0.063562
1630067054272,-0.498492,-0.863821,-0.062586
1630067054281,-0.499224,-0.8644919999999999,-0.063562
1630067054291,-0.49977299999999997,-0.863394,-0.061366
1630067054301,-0.500505,-0.864309,-0.061366
1630067054310,-0.500078,-0.866444,-0.059047999999999996
1630067054320,-0.500871,-0.86803,-0.057645
1630067054329,-0.50142,-0.868518,-0.056852
1630067054339,-0.503067,-0.870714,-0.05795
1630067054349,-0.502274,-0.8708359999999999,-0.058743
1630067054358,-0.499834,-0.867359,-0.055754
1630067054368,-0.502823,-0.866627,-0.057462
1630067054377,-0.504409,-0.869189,-0.057706
1630067054387,-0.504043,-0.864675,-0.057583999999999996
1630067054397,-0.505019,-0.862845,-0.059047999999999996
1630067054406,-0.503677,-0.865224,-0.060695
1630067054416,-0.503128,-0.868213,-0.062952
1630067054425,-0.503128,-0.868762,-0.066063
1630067054435,-0.503494,-0.869433,-0.068137
1630067054445,-0.502335,-0.868884,-0.067161
1630067054454,-0.501725,-0.867908,-0.06405
1630067054464,-0.500749,-0.866566,-0.058682
1630067054473,-0.499285,-0.865529,-0.053375
1630067054483,-0.498065,-0.866261,-0.050203
1630067054493,-0.497516,-0.867115,-0.049532
1630067054502,-0.49654,-0.868945,-0.049958999999999996
1630067054512,-0.495381,-0.870958,-0.051972
1630067054521,-0.49611299999999997,-0.874435,-0.054473
1630067054531,-0.495686,-0.8748009999999999,-0.056303
1630067054541,-0.496296,-0.874923,-0.054168
1630067054550,-0.495259,-0.874435,-0.051301
1630067054560,-0.493795,-0.8744959999999999,-0.048799999999999996
1630067054569,-0.492697,-0.874618,-0.049104999999999996
1630067054579,-0.493063,-0.872788,-0.048617
1630067054589,-0.49172099999999996,-0.8738859999999999,-0.049593
1630067054598,-0.49263599999999996,-0.872178,-0.050325
1630067054608,-0.492575,-0.871995,-0.05185
1630067054617,-0.492148,-0.870409,-0.052948
1630067054627,-0.490745,-0.871812,-0.052704
1630067054637,-0.489708,-0.8717509999999999,-0.05185
1630067054646,-0.489037,-0.870287,-0.048922
1630067054656,-0.48989099999999997,-0.869616,-0.047824
1630067054665,-0.490074,-0.86925,-0.046909
1630067054675,-0.490684,-0.868396,-0.046543
1630067054685,-0.490562,-0.869067,-0.045871999999999996
1630067054694,-0.490074,-0.870775,-0.04636
1630067054704,-0.490379,-0.871812,-0.045566999999999996
1630067054713,-0.491965,-0.870165,-0.045628
1630067054723,-0.490867,-0.865834,-0.044652
1630067054733,-0.493368,-0.86925,-0.047153
1630067054742,-0.498004,-0.872727,-0.049166
1630067054752,-0.494954,-0.870653,-0.050263999999999996
1630067054761,-0.494222,-0.869433,-0.049166
1630067054771,-0.492209,-0.873947,-0.047153
1630067054781,-0.492148,-0.87352,-0.044591
1630067054790,-0.494405,-0.875899,-0.045871999999999996
1630067054800,-0.496479,-0.874008,-0.048068
1630067054809,-0.496784,-0.872483,-0.04819
1630067054819,-0.496052,-0.873398,-0.049104999999999996
1630067054829,-0.496601,-0.872483,-0.049776
1630067054838,-0.497089,-0.8720559999999999,-0.048983
1630067054848,-0.49763799999999997,-0.871568,-0.050447
1630067054857,-0.498736,-0.871873,-0.048861
1630067054867,-0.498187,-0.872544,-0.047945999999999996
1630067054877,-0.495259,-0.8732759999999999,-0.045689
1630067054886,-0.49471,-0.872239,-0.043066
1630067054896,-0.494283,-0.8702259999999999,-0.039833
1630067054905,-0.49141599999999996,-0.867786,-0.038003
1630067054915,-0.492209,-0.865041,-0.040504
1630067054925,-0.493673,-0.866078,-0.041663
1630067054934,-0.496052,-0.8699209999999999,-0.0427
1630067054944,-0.500139,-0.872605,-0.045384
1630067054953,-0.500444,-0.874923,-0.047885
1630067054963,-0.49885799999999997,-0.876692,-0.052399
1630067054973,-0.497516,-0.881572,-0.054655999999999996
1630067054982,-0.496235,-0.881938,-0.055754
1630067054992,-0.49550299999999997,-0.879254,-0.05551
1630067055001,-0.494527,-0.8748009999999999,-0.0549
1630067055011,-0.492148,-0.871324,-0.051972
1630067055021,-0.49080599999999996,-0.867725,-0.050203
1630067055030,-0.490684,-0.865468,-0.049166
1630067055040,-0.489464,-0.865895,-0.049349
1630067055049,-0.490074,-0.866932,-0.049837
1630067055059,-0.489403,-0.869311,-0.050142
1630067055069,-0.487634,-0.869372,-0.051789
1630067055078,-0.487939,-0.869494,-0.05185
1630067055088,-0.488244,-0.869372,-0.05185
1630067055097,-0.48861,-0.869006,-0.050813
1630067055107,-0.48806099999999997,-0.867603,-0.049837
1630067055117,-0.48861,-0.86803,-0.049654
1630067055126,-0.489098,-0.869738,-0.048373
1630067055136,-0.49019599999999997,-0.87108,-0.050386
1630067055145,-0.492209,-0.874069,-0.050691
1630067055155,-0.492575,-0.875777,-0.051362
1630067055165,-0.491965,-0.876753,-0.052704
1630067055174,-0.493307,-0.873703,-0.053924
1630067055184,-0.492758,-0.86986,-0.055144
1630067055193,-0.493124,-0.870958,-0.058193999999999996
1630067055203,-0.494222,-0.869372,-0.057828
1630067055213,-0.49519799999999997,-0.867298,-0.057645
1630067055222,-0.494832,-0.870348,-0.059352999999999996
1630067055232,-0.494466,-0.872483,-0.059047999999999996
1630067055241,-0.495442,-0.873703,-0.059902
1630067055251,-0.49733299999999997,-0.8735809999999999,-0.06039
1630067055261,-0.496662,-0.871934,-0.060268
1630067055270,-0.498004,-0.872605,-0.059292
1630067055280,-0.498431,-0.8714459999999999,-0.056669
1630067055289,-0.49824799999999997,-0.8720559999999999,-0.054655999999999996
1630067055299,-0.49763799999999997,-0.873398,-0.052765
1630067055309,-0.497516,-0.875655,-0.051545
1630067055318,-0.496906,-0.876204,-0.051667
1630067055328,-0.496845,-0.875777,-0.051667
1630067055337,-0.496906,-0.875655,-0.051911
1630067055347,-0.498065,-0.87474,-0.051911
1630067055357,-0.498675,-0.874252,-0.053314
1630067055366,-0.498309,-0.8729709999999999,-0.054717
1630067055376,-0.495869,-0.873154,-0.055205
1630067055385,-0.494344,-0.872239,-0.05551
1630067055395,-0.493063,-0.870348,-0.056242
1630067055405,-0.492148,-0.869006,-0.056303
1630067055414,-0.492087,-0.867176,-0.056059
1630067055424,-0.49202599999999996,-0.865956,-0.056119999999999996
1630067055433,-0.493124,-0.8651019999999999,-0.056791
1630067055443,-0.492697,-0.866078,-0.056364
1630067055453,-0.493368,-0.866627,-0.057279
1630067055462,-0.49489299999999997,-0.867481,-0.057828
1630067055472,-0.49294099999999996,-0.866566,-0.056424999999999996
1630067055481,-0.491782,-0.867115,-0.055632
1630067055491,-0.49324599999999996,-0.86742,-0.053924
1630067055501,-0.492392,-0.86864,-0.052032999999999996
1630067055510,-0.492697,-0.868762,-0.050935
1630067055520,-0.492209,-0.86925,-0.049898
1630067055529,-0.491843,-0.869677,-0.049776
1630067055539,-0.492514,-0.8699209999999999,-0.049593
1630067055549,-0.493124,-0.870592,-0.050752
1630067055558,-0.494222,-0.871324,-0.050996
1630067055568,-0.493612,-0.869982,-0.050142
1630067055577,-0.492209,-0.870165,-0.049532
1630067055587,-0.493002,-0.869982,-0.049409999999999996
1630067055597,-0.493063,-0.8708359999999999,-0.049898
1630067055606,-0.493612,-0.8711409999999999,-0.050447
1630067055616,-0.494527,-0.87108,-0.049898
1630067055625,-0.495686,-0.8711409999999999,-0.049898
1630067055635,-0.495869,-0.87047,-0.050081
1630067055645,-0.496052,-0.8708359999999999,-0.048373
1630067055654,-0.497089,-0.872178,-0.047092
1630067055664,-0.498614,-0.873459,-0.047214
1630067055673,-0.498797,-0.871568,-0.04697
1630067055683,-0.496601,-0.867542,-0.046421
1630067055693,-0.497272,-0.866139,-0.046421
1630067055702,-0.5002,-0.867786,-0.047885
1630067055712,-0.502762,-0.870897,-0.050263999999999996
1630067055721,-0.502884,-0.871263,-0.050386
1630067055731,-0.502518,-0.872544,-0.051422999999999996
1630067055741,-0.502396,-0.8735809999999999,-0.052216
1630067055750,-0.503372,-0.875655,-0.055937
1630067055760,-0.502518,-0.8751059999999999,-0.055693
1630067055769,-0.501908,-0.8726659999999999,-0.054655999999999996
1630067055779,-0.500871,-0.870165,-0.053314
1630067055789,-0.500078,-0.865346,-0.050996
1630067055798,-0.500078,-0.86254,-0.048556
1630067055808,-0.499529,-0.861869,-0.046848
1630067055817,-0.49837,-0.863943,-0.045689
1630067055827,-0.49763799999999997,-0.865651,-0.04636
1630067055837,-0.49794299999999997,-0.867298,-0.045871999999999996
1630067055846,-0.497821,-0.867176,-0.045689
1630067055856,-0.498126,-0.867298,-0.045871999999999996
1630067055865,-0.49916299999999997,-0.867603,-0.046726
1630067055875,-0.500444,-0.86681,-0.049044
1630067055885,-0.500932,-0.866078,-0.049958999999999996
1630067055894,-0.501481,-0.864431,-0.050447
1630067055904,-0.501115,-0.863638,-0.049837
1630067055913,-0.501786,-0.864248,-0.049288
1630067055923,-0.502457,-0.866261,-0.049837
1630067055933,-0.502152,-0.867176,-0.050447
1630067055942,-0.502457,-0.864004,-0.051362
1630067055952,-0.504104,-0.861259,-0.051057
1630067055961,-0.504165,-0.8614419999999999,-0.052948
1630067055971,-0.506605,-0.859185,-0.053619
1630067055981,-0.507154,-0.857416,-0.054655999999999996
1630067055990,-0.507154,-0.861015,-0.056608
1630067056000,-0.506971,-0.862784,-0.056486
1630067056009,-0.507764,-0.866688,-0.057523
1630067056019,-0.507825,-0.869738,-0.057462
1630067056029,-0.50752,-0.8702259999999999,-0.056181
1630067056038,-0.508191,-0.870714,-0.054839
1630067056048,-0.507337,-0.869311,-0.053009
1630067056057,-0.507398,-0.868152,-0.051972
1630067056067,-0.507337,-0.866261,-0.049532
1630067056077,-0.507947,-0.865651,-0.049349
1630067056086,-0.507154,-0.866688,-0.048251
1630067056096,-0.506849,-0.86864,-0.048251
1630067056105,-0.505568,-0.869555,-0.046116
1630067056115,-0.505751,-0.869738,-0.045323
1630067056125,-0.504897,-0.869494,-0.045262
1630067056134,-0.50508,-0.869433,-0.045262
1630067056144,-0.504592,-0.869189,-0.04514
1630067056153,-0.505568,-0.867542,-0.043798
1630067056163,-0.505202,-0.867054,-0.043615
1630067056173,-0.503799,-0.867603,-0.042761
1630067056182,-0.504165,-0.867237,-0.043737
1630067056192,-0.504287,-0.867359,-0.045811
1630067056201,-0.503677,-0.865895,-0.045871999999999996
1630067056211,-0.504531,-0.8651019999999999,-0.045871999999999996
1630067056221,-0.504165,-0.864065,-0.045384
1630067056230,-0.504653,-0.863821,-0.044102999999999996
1630067056240,-0.504348,-0.86376,-0.044102999999999996
1630067056249,-0.504775,-0.864126,-0.043066
1630067056259,-0.503006,-0.86437,-0.042761
1630067056269,-0.503311,-0.865529,-0.043676
1630067056278,-0.502762,-0.865956,-0.044957
1630067056288,-0.503128,-0.866566,-0.045628
1630067056297,-0.502762,-0.865712,-0.045506
1630067056307,-0.501603,-0.8662,-0.045871999999999996
1630067056317,-0.501847,-0.866383,-0.046604
1630067056326,-0.500566,-0.867115,-0.045933
1630067056336,-0.499956,-0.866749,-0.046604
1630067056345,-0.5002,-0.867725,-0.045994
1630067056355,-0.499041,-0.869677,-0.045994
1630067056365,-0.498614,-0.870958,-0.04697
1630067056374,-0.496845,-0.871263,-0.048312
1630067056384,-0.496906,-0.872239,-0.050386
1630067056393,-0.496601,-0.872239,-0.051422999999999996
1630067056403,-0.49471,-0.873703,-0.052826
1630067056413,-0.492697,-0.873093,-0.05185
1630067056422,-0.49166,-0.872788,-0.051484
1630067056432,-0.49050099999999996,-0.87413,-0.050081
1630067056441,-0.489769,-0.874374,-0.049593
1630067056451,-0.49050099999999996,-0.874618,-0.048251
1630067056461,-0.490745,-0.872605,-0.047640999999999996
1630067056470,-0.489769,-0.873093,-0.046421
1630067056480,-0.490257,-0.871873,-0.045506
1630067056489,-0.490745,-0.87169,-0.045201
1630067056499,-0.490135,-0.872849,-0.045201
1630067056509,-0.489952,-0.872117,-0.045689
1630067056518,-0.48922,-0.86864,-0.045566999999999996
1630067056528,-0.489525,-0.869189,-0.048983
1630067056537,-0.492148,-0.8744959999999999,-0.049898
1630067056547,-0.494771,-0.876997,-0.050142
1630067056557,-0.493673,-0.8769359999999999,-0.050447
1630067056566,-0.493856,-0.877912,-0.051484
1630067056576,-0.493612,-0.880413,-0.054717
1630067056585,-0.493124,-0.88084,-0.055449
1630067056595,-0.492758,-0.87596,-0.053619
1630067056605,-0.493063,-0.872239,-0.052643
1630067056614,-0.49172099999999996,-0.86925,-0.051727999999999996
1630067056624,-0.49111099999999996,-0.86742,-0.051362
1630067056633,-0.49105,-0.866261,-0.049409999999999996
1630067056643,-0.490928,-0.866688,-0.048739
1630067056653,-0.49080599999999996,-0.867969,-0.048434
1630067056662,-0.490135,-0.869372,-0.047092
1630067056672,-0.490745,-0.868884,-0.047763
1630067056681,-0.491538,-0.868518,-0.047214
1630067056691,-0.49227,-0.867176,-0.047092
1630067056701,-0.494649,-0.867237,-0.046787
1630067056710,-0.494771,-0.867176,-0.046909
1630067056720,-0.496235,-0.868213,-0.048007
1630067056729,-0.49672299999999997,-0.868884,-0.049227
1630067056739,-0.498919,-0.869494,-0.050142
1630067056749,-0.49837,-0.8705309999999999,-0.048983
1630067056758,-0.498187,-0.871202,-0.048068
1630067056768,-0.49733299999999997,-0.868457,-0.046848
1630067056777,-0.498614,-0.8662,-0.046299
1630067056787,-0.5002,-0.869799,-0.049104999999999996
1630067056797,-0.49959,-0.869982,-0.050508
1630067056806,-0.500566,-0.867786,-0.051606
1630067056816,-0.500139,-0.869555,-0.052826
1630067056825,-0.499346,-0.871263,-0.057218
1630067056835,-0.498065,-0.8732759999999999,-0.058865
1630067056845,-0.49794299999999997,-0.87291,-0.058865
1630067056854,-0.496784,-0.871568,-0.057279
1630067056864,-0.496662,-0.8699209999999999,-0.056181
1630067056873,-0.496052,-0.869738,-0.055937
1630067056883,-0.49715,-0.86803,-0.056364
1630067056893,-0.49641799999999997,-0.867542,-0.056608
1630067056902,-0.49702799999999997,-0.868396,-0.057583999999999996
1630067056912,-0.498187,-0.870592,-0.058926
1630067056921,-0.49794299999999997,-0.8708359999999999,-0.059536
1630067056931,-0.497821,-0.8720559999999999,-0.058987
1630067056941,-0.496845,-0.871507,-0.057034999999999995
1630067056950,-0.497699,-0.872178,-0.056059
1630067056960,-0.496845,-0.8723609999999999,-0.054046
1630067056969,-0.497394,-0.873154,-0.052765
1630067056979,-0.497516,-0.873642,-0.052948
1630067056989,-0.496479,-0.873947,-0.052277
1630067056998,-0.496967,-0.87352,-0.052399
1630067057008,-0.49641799999999997,-0.8729709999999999,-0.05368
1630067057017,-0.496296,-0.8708359999999999,-0.054412
1630067057027,-0.49702799999999997,-0.870348,-0.055693
1630067057037,-0.496601,-0.869433,-0.055449
1630067057046,-0.49532,-0.868823,-0.055205
1630067057056,-0.495686,-0.868823,-0.055998
1630067057065,-0.49519799999999997,-0.869555,-0.056242
1630067057075,-0.49532,-0.869311,-0.056974
1630067057085,-0.49458799999999997,-0.868213,-0.05795
1630067057094,-0.49519799999999997,-0.868518,-0.058133
1630067057104,-0.495442,-0.867054,-0.056791
1630067057113,-0.493917,-0.866383,-0.056669
1630067057123,-0.49263599999999996,-0.867237,-0.055632
1630067057133,-0.493307,-0.867054,-0.054229
1630067057142,-0.493734,-0.868762,-0.054655999999999996
1630067057152,-0.49294099999999996,-0.868945,-0.053496999999999996
1630067057161,-0.493612,-0.8699209999999999,-0.052032999999999996
1630067057171,-0.49355099999999996,-0.870104,-0.052216
1630067057181,-0.495259,-0.8714459999999999,-0.052521
1630067057190,-0.49580799999999997,-0.8711409999999999,-0.053436
1630067057200,-0.495076,-0.8711409999999999,-0.053924
1630067057209,-0.494954,-0.871324,-0.054351
1630067057219,-0.495381,-0.8711409999999999,-0.054717
1630067057229,-0.495991,-0.871324,-0.0549
1630067057238,-0.496357,-0.871812,-0.054960999999999996
1630067057248,-0.49593,-0.87169,-0.055144
1630067057257,-0.496052,-0.871263,-0.055632
1630067057267,-0.49593,-0.871202,-0.056364
1630067057277,-0.49763799999999997,-0.870958,-0.055327
1630067057286,-0.49763799999999997,-0.870775,-0.054960999999999996
1630067057296,-0.496845,-0.8720559999999999,-0.05429
1630067057305,-0.496662,-0.872849,-0.054534
1630067057315,-0.495625,-0.873154,-0.053496999999999996
1630067057325,-0.49532,-0.873642,-0.052765
1630067057334,-0.494466,-0.8735809999999999,-0.052521
1630067057344,-0.494405,-0.873947,-0.052155
1630067057353,-0.494344,-0.872727,-0.051057
1630067057363,-0.49471,-0.87169,-0.050142
1630067057373,-0.494466,-0.871995,-0.051484
1630067057382,-0.49471,-0.872727,-0.051422999999999996
1630067057392,-0.493307,-0.870287,-0.052704
1630067057401,-0.493978,-0.8726659999999999,-0.053009
1630067057411,-0.491782,-0.870287,-0.05368
1630067057421,-0.49105,-0.863455,-0.052582
1630067057430,-0.491904,-0.861381,-0.051545
1630067057440,-0.493734,-0.867542,-0.053191999999999996
1630067057449,-0.495747,-0.871812,-0.053558
1630067057459,-0.496784,-0.8748009999999999,-0.055449
1630067057469,-0.49641799999999997,-0.878644,-0.058498999999999995
1630067057478,-0.496174,-0.880962,-0.06039
1630067057488,-0.49611299999999997,-0.879864,-0.060146
1630067057497,-0.49611299999999997,-0.8757159999999999,-0.058133
1630067057507,-0.493612,-0.870958,-0.056669
1630067057517,-0.49263599999999996,-0.868884,-0.054717
1630067057526,-0.491294,-0.86681,-0.053619
1630067057536,-0.490745,-0.866566,-0.051301
1630067057545,-0.489769,-0.867969,-0.05185
1630067057555,-0.489098,-0.869555,-0.05307
1630067057565,-0.486902,-0.871019,-0.053009
1630067057574,-0.48678,-0.87047,-0.050873999999999996
1630067057584,-0.487268,-0.868152,-0.048739
1630067057593,-0.48745099999999997,-0.867481,-0.045994
1630067057603,-0.48897599999999997,-0.867542,-0.045201
1630067057613,-0.49050099999999996,-0.867725,-0.044347
1630067057622,-0.4941,-0.869006,-0.043248999999999996
1630067057632,-0.494222,-0.87108,-0.045384
1630067057641,-0.495747,-0.873337,-0.046116
1630067057651,-0.497516,-0.875777,-0.048861
1630067057661,-0.49776,-0.87657,-0.049409999999999996
1630067057670,-0.498065,-0.872727,-0.049044
1630067057680,-0.500932,-0.868091,-0.047763
1630067057689,-0.501115,-0.8702259999999999,-0.049349
1630067057699,-0.500688,-0.868762,-0.049166
1630067057709,-0.502152,-0.86681,-0.049227
1630067057718,-0.500932,-0.868518,-0.05124
1630067057728,-0.500322,-0.871629,-0.05429
1630067057737,-0.500139,-0.874618,-0.057583999999999996
1630067057747,-0.501237,-0.8757159999999999,-0.058377
1630067057757,-0.500932,-0.8744959999999999,-0.057583999999999996
1630067057766,-0.500444,-0.87169,-0.056059
1630067057776,-0.500139,-0.868518,-0.053375
1630067057785,-0.499651,-0.868518,-0.051972
1630067057795,-0.499346,-0.86864,-0.051118
1630067057805,-0.498309,-0.869738,-0.049958999999999996
1630067057814,-0.498675,-0.87108,-0.049104999999999996
1630067057824,-0.498492,-0.873947,-0.049471
1630067057833,-0.497516,-0.874069,-0.048983
1630067057843,-0.497211,-0.874923,-0.048007
1630067057853,-0.498004,-0.874374,-0.047214
1630067057862,-0.49733299999999997,-0.8729709999999999,-0.047153
1630067057872,-0.49733299999999997,-0.8720559999999999,-0.047519
1630067057881,-0.496784,-0.870287,-0.047702
1630067057891,-0.496296,-0.869738,-0.047702
1630067057901,-0.496845,-0.86803,-0.048373
1630067057910,-0.496052,-0.86681,-0.049532
1630067057920,-0.49580799999999997,-0.865529,-0.049715
1630067057929,-0.49654,-0.86559,-0.050203
1630067057939,-0.49641799999999997,-0.865041,-0.049288
1630067057949,-0.497272,-0.865346,-0.049409999999999996
1630067057958,-0.497699,-0.866261,-0.049898
1630067057968,-0.498004,-0.867115,-0.050263999999999996
1630067057977,-0.49855299999999997,-0.867176,-0.050142
1630067057987,-0.49794299999999997,-0.867298,-0.051484
1630067057997,-0.497882,-0.866566,-0.050447
1630067058006,-0.498431,-0.866688,-0.049593
1630067058016,-0.498187,-0.866078,-0.048678
1630067058025,-0.498675,-0.866017,-0.047214
1630067058035,-0.49837,-0.866322,-0.044469
1630067058045,-0.499102,-0.867054,-0.042334
1630067058054,-0.498309,-0.867603,-0.042578
1630067058064,-0.498614,-0.869799,-0.041602
1630067058073,-0.499895,-0.869982,-0.041541
1630067058083,-0.499346,-0.8711409999999999,-0.042334
1630067058093,-0.500383,-0.872117,-0.043798
1630067058102,-0.5002,-0.872788,-0.044896
1630067058112,-0.500078,-0.872788,-0.044712999999999996
1630067058121,-0.49977299999999997,-0.872178,-0.045445
1630067058131,-0.49959,-0.871995,-0.045689
1630067058141,-0.498919,-0.871263,-0.046787
1630067058150,-0.499712,-0.871385,-0.046787
1630067058160,-0.498919,-0.870775,-0.047092
1630067058169,-0.498004,-0.871202,-0.046604
1630067058179,-0.498309,-0.870714,-0.047458
1630067058189,-0.498187,-0.871812,-0.047519
1630067058198,-0.498126,-0.872422,-0.048494999999999996
1630067058208,-0.497211,-0.871934,-0.049898
1630067058217,-0.496601,-0.872178,-0.050386
1630067058227,-0.496235,-0.871812,-0.05002
1630067058237,-0.496479,-0.87169,-0.048251
1630067058246,-0.495259,-0.871934,-0.048007
1630067058256,-0.495076,-0.871263,-0.045994
1630067058265,-0.49489299999999997,-0.871263,-0.046238
1630067058275,-0.494527,-0.870775,-0.047030999999999996
1630067058285,-0.494405,-0.871934,-0.046726
1630067058294,-0.495076,-0.870958,-0.047335999999999996
1630067058304,-0.495442,-0.870714,-0.046726
1630067058313,-0.49550299999999997,-0.871019,-0.046848
1630067058323,-0.495625,-0.870653,-0.046482
1630067058333,-0.496601,-0.871324,-0.04575
1630067058342,-0.49611299999999997,-0.87108,-0.04514
1630067058352,-0.496357,-0.8708359999999999,-0.045689
1630067058361,-0.494466,-0.865346,-0.045933
1630067058371,-0.495686,-0.863638,-0.047030999999999996
1630067058381,-0.498736,-0.866444,-0.049104999999999996
1630067058390,-0.499529,-0.870409,-0.049958999999999996
1630067058400,-0.499407,-0.87169,-0.051301
1630067058409,-0.500139,-0.875167,-0.054778
1630067058419,-0.5002,-0.877485,-0.05795
1630067058429,-0.499346,-0.877973,-0.058682
1630067058438,-0.49959,-0.873459,-0.058255
1630067058448,-0.498736,-0.868884,-0.057279
1630067058457,-0.49702799999999997,-0.865712,-0.055449
1630067058467,-0.496052,-0.864614,-0.052765
1630067058477,-0.494466,-0.86376,-0.050203
1630067058486,-0.49489299999999997,-0.86437,-0.048434
1630067058496,-0.493002,-0.867481,-0.047763
1630067058505,-0.49233099999999996,-0.870653,-0.047458
1630067058515,-0.491904,-0.871629,-0.047397
1630067058525,-0.492514,-0.8702259999999999,-0.045628
1630067058534,-0.493368,-0.869677,-0.045201
1630067058544,-0.493917,-0.870165,-0.044652
1630067058553,-0.49519799999999997,-0.869616,-0.044896
1630067058563,-0.49471,-0.870165,-0.04453
1630067058573,-0.495076,-0.869982,-0.04575
1630067058582,-0.496479,-0.86986,-0.047519
1630067058592,-0.497516,-0.8723609999999999,-0.048861
1630067058601,-0.498736,-0.874069,-0.050386
1630067058611,-0.498736,-0.874679,-0.051179
1630067058621,-0.498065,-0.870592,-0.050813
1630067058630,-0.497882,-0.86742,-0.050996
1630067058640,-0.498126,-0.869372,-0.052521
1630067058649,-0.498065,-0.868945,-0.052032999999999996
1630067058659,-0.498614,-0.866139,-0.051118
1630067058669,-0.49946799999999997,-0.867908,-0.051727999999999996
1630067058678,-0.498004,-0.8717509999999999,-0.053375
1630067058688,-0.499041,-0.874069,-0.054107
1630067058697,-0.498309,-0.8726659999999999,-0.054351
1630067058707,-0.498126,-0.8714459999999999,-0.052399
1630067058717,-0.498736,-0.87047,-0.052094
1630067058726,-0.498187,-0.870592,-0.050568999999999996
1630067058736,-0.498126,-0.8702259999999999,-0.049593
1630067058745,-0.499102,-0.870409,-0.048068
1630067058755,-0.49885799999999997,-0.87108,-0.048129
1630067058765,-0.49672299999999997,-0.871324,-0.049837
1630067058774,-0.496784,-0.872544,-0.050447
1630067058784,-0.496052,-0.873093,-0.051179
1630067058793,-0.496174,-0.872727,-0.053009
1630067058803,-0.496235,-0.87169,-0.053558
1630067058813,-0.49593,-0.869982,-0.054655999999999996
1630067058822,-0.495076,-0.868945,-0.055876
1630067058832,-0.494954,-0.866444,-0.057157
1630067058841,-0.494161,-0.865895,-0.056181
1630067058851,-0.494832,-0.866627,-0.056364
1630067058861,-0.494527,-0.867054,-0.055937
1630067058870,-0.494649,-0.868518,-0.057523
1630067058880,-0.495076,-0.869189,-0.057462
1630067058889,-0.49641799999999997,-0.869616,-0.057034999999999995
1630067058899,-0.49519799999999997,-0.868884,-0.055388
1630067058909,-0.49593,-0.869128,-0.052337999999999996
1630067058918,-0.496357,-0.868091,-0.050691
1630067058928,-0.496906,-0.867908,-0.048861
1630067058937,-0.49794299999999997,-0.86864,-0.047945999999999996
1630067058947,-0.49715,-0.869433,-0.046238
1630067058957,-0.496174,-0.869494,-0.04636
1630067058966,-0.496845,-0.8702259999999999,-0.045566999999999996
1630067058976,-0.49794299999999997,-0.868945,-0.04575
1630067058985,-0.498736,-0.869128,-0.047030999999999996
1630067058995,-0.49959,-0.868762,-0.048494999999999996
1630067059005,-0.499529,-0.869799,-0.049104999999999996
1630067059014,-0.500566,-0.869311,-0.049837
1630067059024,-0.501542,-0.867542,-0.050568999999999996
1630067059033,-0.502335,-0.86803,-0.050508
1630067059043,-0.502762,-0.867542,-0.051484
1630067059053,-0.502274,-0.867603,-0.052643
1630067059062,-0.502335,-0.869128,-0.053924
1630067059072,-0.502457,-0.869494,-0.053314
1630067059081,-0.503372,-0.86986,-0.053558
1630067059091,-0.503921,-0.869067,-0.052643
1630067059101,-0.503494,-0.869372,-0.052521
1630067059110,-0.502945,-0.86864,-0.052399
1630067059120,-0.502823,-0.86864,-0.052582
1630067059129,-0.502335,-0.869006,-0.052337999999999996
1630067059139,-0.501054,-0.868274,-0.054168
1630067059149,-0.501542,-0.868274,-0.053863
1630067059158,-0.50264,-0.868274,-0.052765
1630067059168,-0.502213,-0.867298,-0.052399
1630067059177,-0.500749,-0.867054,-0.052337999999999996
1630067059187,-0.500078,-0.866383,-0.052216
1630067059197,-0.500383,-0.866688,-0.052337999999999996
1630067059206,-0.499956,-0.867664,-0.05246
1630067059216,-0.500017,-0.868762,-0.053191999999999996
1630067059225,-0.499834,-0.868091,-0.052765
1630067059235,-0.500078,-0.867481,-0.053009
1630067059245,-0.501115,-0.866261,-0.053375
1630067059254,-0.501481,-0.867725,-0.053436
1630067059264,-0.500139,-0.86681,-0.054229
1630067059273,-0.500078,-0.866688,-0.05368
1630067059283,-0.49837,-0.868396,-0.054229
1630067059293,-0.497516,-0.865285,-0.054717
1630067059302,-0.497089,-0.860405,-0.052643
1630067059312,-0.499956,-0.86193,-0.053131
1630067059321,-0.500688,-0.86803,-0.056303
1630067059331,-0.501908,-0.869738,-0.055998
1630067059341,-0.502823,-0.8732759999999999,-0.057523
1630067059350,-0.50203,-0.8784,-0.058987
1630067059360,-0.501664,-0.87962,-0.058438
1630067059369,-0.501542,-0.877119,-0.056547
1630067059379,-0.49916299999999997,-0.871568,-0.054655999999999996
1630067059389,-0.49733299999999997,-0.867664,-0.052886999999999997
1630067059398,-0.495564,-0.866322,-0.050752
1630067059408,-0.494283,-0.864919,-0.049104999999999996
1630067059417,-0.493856,-0.865712,-0.049837
1630067059427,-0.49355099999999996,-0.86803,-0.048799999999999996
1630067059437,-0.492148,-0.869677,-0.048251
1630067059446,-0.491172,-0.870592,-0.047335999999999996
1630067059456,-0.490867,-0.870287,-0.046116
1630067059465,-0.490867,-0.870714,-0.045689
1630067059475,-0.49324599999999996,-0.869189,-0.045384
1630067059485,-0.494283,-0.868274,-0.04575
1630067059494,-0.495137,-0.869128,-0.046726
1630067059504,-0.495991,-0.870592,-0.045628
1630067059513,-0.496479,-0.87047,-0.047092
1630067059523,-0.498065,-0.872239,-0.04819
1630067059533,-0.499102,-0.873642,-0.048799999999999996
1630067059542,-0.49824799999999997,-0.874069,-0.048434
1630067059552,-0.497577,-0.869677,-0.046604
1630067059561,-0.498614,-0.867054,-0.045384
1630067059571,-0.500505,-0.870287,-0.04697
1630067059581,-0.500078,-0.86986,-0.04697
1630067059590,-0.500017,-0.868274,-0.046848
1630067059600,-0.499346,-0.87047,-0.049104999999999996
1630067059609,-0.499224,-0.87291,-0.051484
1630067059619,-0.498675,-0.874008,-0.051911
1630067059629,-0.50081,-0.872483,-0.050873999999999996
1630067059638,-0.499712,-0.8711409999999999,-0.049288
1630067059648,-0.499285,-0.869799,-0.047945999999999996
1630067059657,-0.498614,-0.86925,-0.045506
1630067059667,-0.49946799999999997,-0.869494,-0.04453
1630067059677,-0.498004,-0.870409,-0.044712999999999996
1630067059686,-0.497394,-0.871568,-0.04514
1630067059696,-0.497394,-0.872849,-0.045566999999999996
1630067059705,-0.497455,-0.873459,-0.046665
1630067059715,-0.497272,-0.8726659999999999,-0.04697
1630067059725,-0.496845,-0.8732759999999999,-0.046543
1630067059734,-0.496174,-0.872422,-0.046543
1630067059744,-0.495381,-0.871202,-0.047153
1630067059753,-0.49458799999999997,-0.870592,-0.047397
1630067059763,-0.4941,-0.869738,-0.046665
1630067059773,-0.493124,-0.870653,-0.046909
1630067059782,-0.493307,-0.8711409999999999,-0.046543
1630067059792,-0.49355099999999996,-0.8723,-0.047092
1630067059801,-0.493734,-0.871995,-0.047824
1630067059811,-0.492514,-0.871812,-0.048678
1630067059821,-0.491843,-0.871568,-0.048739
1630067059830,-0.493124,-0.871385,-0.04819
1630067059840,-0.492697,-0.871873,-0.047519
1630067059849,-0.49202599999999996,-0.871202,-0.048312
1630067059859,-0.492148,-0.871019,-0.047640999999999996
1630067059869,-0.492514,-0.8711409999999999,-0.046421
1630067059878,-0.49263599999999996,-0.871812,-0.046421
1630067059888,-0.49105,-0.872117,-0.046238
1630067059897,-0.492148,-0.87291,-0.04697
1630067059907,-0.492148,-0.873459,-0.048129
1630067059917,-0.491782,-0.87352,-0.048129
1630067059926,-0.491355,-0.873093,-0.04819
1630067059936,-0.49105,-0.873398,-0.048068
1630067059945,-0.490867,-0.873459,-0.047214
1630067059955,-0.49172099999999996,-0.8723,-0.047092
1630067059965,-0.49111099999999996,-0.871385,-0.046848
1630067059974,-0.491477,-0.871568,-0.046421
1630067059984,-0.49166,-0.871812,-0.04758
1630067059993,-0.492148,-0.8723,-0.047763
1630067060003,-0.491782,-0.872849,-0.048251
1630067060013,-0.493429,-0.872422,-0.05002
1630067060022,-0.493429,-0.870897,-0.049593
1630067060032,-0.494344,-0.87108,-0.048494999999999996
1630067060041,-0.49489299999999997,-0.869433,-0.048494999999999996
1630067060051,-0.49458799999999997,-0.870104,-0.04758
1630067060061,-0.495076,-0.87047,-0.047458
1630067060070,-0.496235,-0.870958,-0.047763
1630067060080,-0.496174,-0.870043,-0.046482
1630067060089,-0.49776,-0.869067,-0.046909
1630067060099,-0.49837,-0.868701,-0.047885
1630067060109,-0.498797,-0.869982,-0.048861
1630067060118,-0.49977299999999997,-0.869128,-0.048922
1630067060128,-0.500749,-0.868945,-0.048312
1630067060137,-0.50142,-0.86925,-0.048556
1630067060147,-0.500444,-0.864309,-0.047763
1630067060157,-0.501054,-0.859368,-0.047214
1630067060166,-0.503921,-0.861015,-0.047092
1630067060176,-0.505324,-0.866993,-0.049044
1630067060185,-0.506239,-0.86742,-0.048799999999999996
1630067060195,-0.50691,-0.871629,-0.051789
1630067060205,-0.507642,-0.875167,-0.053619
1630067060214,-0.50752,-0.876509,-0.055449
1630067060224,-0.507154,-0.874923,-0.054412
1630067060233,-0.505873,-0.870897,-0.053375
1630067060243,-0.505019,-0.86742,-0.051362
1630067060253,-0.50508,-0.864919,-0.049958999999999996
1630067060262,-0.50386,-0.863455,-0.049044
1630067060272,-0.501847,-0.8620519999999999,-0.048312
1630067060281,-0.500871,-0.86376,-0.048251
1630067060291,-0.499834,-0.865529,-0.048068
1630067060301,-0.499529,-0.865773,-0.047458
1630067060310,-0.499224,-0.865956,-0.048251
1630067060320,-0.500017,-0.865224,-0.047214
1630067060329,-0.499712,-0.864065,-0.045689
1630067060339,-0.499956,-0.86437,-0.044225
1630067060349,-0.500078,-0.865407,-0.042822
1630067060358,-0.500749,-0.864736,-0.043493
1630067060368,-0.501176,-0.866566,-0.045323
1630067060377,-0.501298,-0.867237,-0.045018
1630067060387,-0.501969,-0.869128,-0.046909
1630067060397,-0.50264,-0.869799,-0.047945999999999996
1630067060406,-0.501664,-0.866749,-0.048312
1630067060416,-0.502396,-0.863211,-0.047335999999999996
1630067060425,-0.503982,-0.864858,-0.049166
1630067060435,-0.503128,-0.865773,-0.049471
1630067060445,-0.504348,-0.8629669999999999,-0.048799999999999996
1630067060454,-0.504043,-0.865651,-0.050935
1630067060464,-0.503677,-0.870104,-0.053558
1630067060473,-0.50264,-0.872422,-0.05551
1630067060483,-0.503128,-0.8723,-0.055632
1630067060493,-0.503433,-0.86986,-0.055388
1630067060502,-0.503555,-0.867054,-0.052643
1630067060512,-0.502518,-0.865529,-0.049227
1630067060521,-0.502579,-0.864614,-0.04819
1630067060531,-0.503616,-0.865956,-0.047458
1630067060541,-0.502152,-0.867786,-0.048251
1630067060550,-0.50264,-0.8702259999999999,-0.049349
1630067060560,-0.50203,-0.871629,-0.049288
1630067060569,-0.502457,-0.871934,-0.048556
1630067060579,-0.500871,-0.871385,-0.048922
1630067060589,-0.500627,-0.870775,-0.048312
1630067060598,-0.50081,-0.870104,-0.048251
1630067060608,-0.500993,-0.868518,-0.047519
1630067060617,-0.500139,-0.867237,-0.048556
1630067060627,-0.500688,-0.866444,-0.048922
1630067060637,-0.500688,-0.866932,-0.049471
1630067060646,-0.499895,-0.867298,-0.050508
1630067060656,-0.500017,-0.866383,-0.052032999999999996
1630067060665,-0.500322,-0.867054,-0.051727999999999996
1630067060675,-0.500078,-0.866627,-0.051545
1630067060685,-0.500566,-0.866627,-0.051667
1630067060694,-0.500993,-0.865285,-0.05063
1630067060704,-0.500383,-0.865224,-0.050203
1630067060713,-0.500688,-0.864858,-0.048068
1630067060723,-0.500444,-0.864858,-0.048007
1630067060733,-0.501054,-0.864553,-0.047335999999999996
1630067060742,-0.501481,-0.865163,-0.047885
1630067060752,-0.50081,-0.8651019999999999,-0.046787
1630067060761,-0.501603,-0.8651019999999999,-0.046299
1630067060771,-0.501725,-0.865407,-0.047214
1630067060781,-0.501786,-0.865834,-0.046665
1630067060790,-0.502335,-0.865712,-0.047153
1630067060800,-0.502213,-0.865895,-0.046238
1630067060809,-0.503372,-0.866261,-0.046299
1630067060819,-0.503738,-0.867481,-0.04697
1630067060829,-0.503128,-0.867908,-0.047275
1630067060838,-0.503128,-0.868152,-0.047397
1630067060848,-0.504409,-0.867786,-0.047945999999999996
1630067060857,-0.503982,-0.868762,-0.047945999999999996
1630067060867,-0.504897,-0.868274,-0.048068
1630067060877,-0.503738,-0.868518,-0.047763
1630067060886,-0.503799,-0.868213,-0.047153
1630067060896,-0.50264,-0.86864,-0.046299
1630067060905,-0.502457,-0.868274,-0.045994
1630067060915,-0.501908,-0.867847,-0.045506
1630067060925,-0.501481,-0.868579,-0.045689
1630067060934,-0.501542,-0.868518,-0.045811
1630067060944,-0.501847,-0.867481,-0.044712999999999996
1630067060953,-0.502091,-0.866749,-0.044957
1630067060963,-0.503433,-0.866627,-0.045871999999999996
1630067060973,-0.50325,-0.867176,-0.044225
1630067060982,-0.50325,-0.867969,-0.042943999999999996
1630067060992,-0.503006,-0.868335,-0.042456
1630067061001,-0.502274,-0.8644919999999999,-0.042395
1630067061011,-0.50142,-0.8608319999999999,-0.042334
1630067061021,-0.503677,-0.862113,-0.043188
1630067061030,-0.505812,-0.8662,-0.044896
1630067061040,-0.507398,-0.869738,-0.046604
1630067061049,-0.507154,-0.870714,-0.048434
1630067061059,-0.506361,-0.874313,-0.053131
1630067061069,-0.505873,-0.8760209999999999,-0.055754
1630067061078,-0.505812,-0.874557,-0.055144
1630067061088,-0.504714,-0.870104,-0.053436
1630067061097,-0.503494,-0.8651019999999999,-0.052277
1630067061107,-0.500932,-0.861625,-0.049593
1630067061117,-0.500566,-0.859795,-0.047702
1630067061126,-0.500261,-0.859978,-0.045933
1630067061136,-0.499712,-0.862235,-0.046055
1630067061145,-0.498614,-0.865468,-0.044652
1630067061155,-0.497821,-0.867847,-0.044164
1630067061165,-0.496845,-0.868091,-0.042395
1630067061174,-0.497272,-0.867542,-0.04087
1630067061184,-0.500017,-0.866383,-0.039894
1630067061193,-0.500078,-0.865834,-0.038857
1630067061203,-0.50081,-0.865224,-0.039345
1630067061213,-0.501542,-0.865346,-0.040015999999999996
1630067061222,-0.502274,-0.865773,-0.040382
1630067061232,-0.503616,-0.86681,-0.042273
1630067061241,-0.50447,-0.868335,-0.044591
1630067061251,-0.505019,-0.869433,-0.044286
1630067061261,-0.504958,-0.869738,-0.044347
1630067061270,-0.50508,-0.866932,-0.044591
1630067061280,-0.505324,-0.865529,-0.044042
1630067061289,-0.505507,-0.866688,-0.04575
1630067061299,-0.506849,-0.865346,-0.044896
1630067061309,-0.506971,-0.862784,-0.045018
1630067061318,-0.505141,-0.866322,-0.046665
1630067061328,-0.505202,-0.869311,-0.04819
1630067061337,-0.505446,-0.87047,-0.049044
1630067061347,-0.505324,-0.869128,-0.04819
1630067061357,-0.504531,-0.86681,-0.046726
1630067061366,-0.504775,-0.866261,-0.044774
1630067061376,-0.504348,-0.864736,-0.043676
1630067061385,-0.506117,-0.864004,-0.041907
1630067061395,-0.504836,-0.866749,-0.040992
1630067061405,-0.504958,-0.868518,-0.04209
1630067061414,-0.505568,-0.8702259999999999,-0.041602
1630067061424,-0.504714,-0.870958,-0.043188
1630067061433,-0.504531,-0.870958,-0.043066
1630067061443,-0.504836,-0.869738,-0.04331
1630067061453,-0.504043,-0.867908,-0.043493
1630067061462,-0.503311,-0.86681,-0.044286
1630067061472,-0.50325,-0.86681,-0.044164
1630067061481,-0.502884,-0.865041,-0.044407999999999996
1630067061491,-0.502213,-0.8662,-0.044835
1630067061501,-0.50203,-0.865529,-0.044102999999999996
1630067061510,-0.502701,-0.864126,-0.045079
1630067061520,-0.502579,-0.864614,-0.04392
1630067061529,-0.502701,-0.864004,-0.045384
1630067061539,-0.50325,-0.863699,-0.04453
1630067061549,-0.503006,-0.8644919999999999,-0.043981
1630067061558,-0.502884,-0.865163,-0.042578
1630067061568,-0.50325,-0.8662,-0.043248999999999996
1630067061577,-0.501969,-0.866444,-0.041053
1630067061587,-0.503128,-0.865468,-0.040565
1630067061597,-0.502457,-0.8651019999999999,-0.039223
1630067061606,-0.502945,-0.86559,-0.03965
1630067061616,-0.502823,-0.866139,-0.03904
1630067061625,-0.503616,-0.866078,-0.039528
1630067061635,-0.503372,-0.865895,-0.040504
1630067061645,-0.503189,-0.866383,-0.040199
1630067061654,-0.504226,-0.866871,-0.039467
1630067061664,-0.503067,-0.86681,-0.039894
1630067061673,-0.502823,-0.867786,-0.038613
1630067061683,-0.50264,-0.867847,-0.038491
1630067061693,-0.503738,-0.868701,-0.038735
1630067061702,-0.503616,-0.868457,-0.03904
1630067061712,-0.503494,-0.869799,-0.03965
1630067061721,-0.504836,-0.870043,-0.04026
1630067061731,-0.503738,-0.869982,-0.03965
1630067061741,-0.502884,-0.870348,-0.039833
1630067061750,-0.50264,-0.870348,-0.038308
1630067061760,-0.502823,-0.870287,-0.038857
1630067061769,-0.501969,-0.869494,-0.037942
1630067061779,-0.501725,-0.868335,-0.038246999999999996
1630067061789,-0.5002,-0.868396,-0.03843
1630067061798,-0.501359,-0.868762,-0.038979
1630067061808,-0.501359,-0.86742,-0.040015999999999996
1630067061817,-0.501786,-0.866871,-0.039162
1630067061827,-0.501908,-0.865346,-0.039710999999999996
1630067061837,-0.501603,-0.866505,-0.039223
1630067061846,-0.503006,-0.867542,-0.038918
1630067061856,-0.502152,-0.867969,-0.037576
1630067061865,-0.50264,-0.86742,-0.037271
1630067061875,-0.501969,-0.864126,-0.036356
1630067061885,-0.501176,-0.860344,-0.03782
1630067061894,-0.50264,-0.861259,-0.039467
1630067061904,-0.505812,-0.864431,-0.041663
1630067061913,-0.507154,-0.868396,-0.042883
1630067061923,-0.507032,-0.869189,-0.045506
1630067061933,-0.505751,-0.871934,-0.047519
1630067061942,-0.506117,-0.874557,-0.050935
1630067061952,-0.506239,-0.8714459999999999,-0.050873999999999996
1630067061961,-0.50508,-0.866993,-0.048068
1630067061971,-0.50447,-0.862845,-0.046604
1630067061981,-0.503921,-0.861686,-0.044712999999999996
1630067061990,-0.503738,-0.860161,-0.042578
1630067062000,-0.503555,-0.860954,-0.041297
1630067062009,-0.502945,-0.864248,-0.040320999999999996
1630067062019,-0.502396,-0.866444,-0.03904
1630067062029,-0.501298,-0.868091,-0.038918
1630067062038,-0.501298,-0.868396,-0.038003
1630067062048,-0.502945,-0.866688,-0.036782999999999996
1630067062057,-0.502701,-0.864858,-0.035929
1630067062067,-0.503006,-0.863821,-0.03599
1630067062077,-0.503433,-0.863028,-0.036112
1630067062086,-0.503799,-0.863394,-0.036417
1630067062096,-0.50569,-0.864858,-0.038125
1630067062105,-0.507642,-0.866749,-0.039467
1630067062115,-0.50813,-0.867725,-0.041479999999999996
1630067062125,-0.508984,-0.869677,-0.043066
1630067062134,-0.507398,-0.868396,-0.04514
1630067062144,-0.507703,-0.863821,-0.043554
1630067062153,-0.507032,-0.862906,-0.0427
1630067062163,-0.506788,-0.864919,-0.043432
1630067062173,-0.506483,-0.862723,-0.041541
1630067062182,-0.506361,-0.862784,-0.041236
1630067062192,-0.504043,-0.868213,-0.043676
1630067062201,-0.502945,-0.8708359999999999,-0.044164
1630067062211,-0.504653,-0.8708359999999999,-0.044591
1630067062221,-0.503799,-0.867359,-0.043493
1630067062230,-0.503433,-0.866078,-0.041907
1630067062240,-0.50325,-0.865834,-0.041053
1630067062249,-0.503128,-0.865468,-0.040138
1630067062259,-0.50264,-0.865895,-0.040443
1630067062269,-0.502945,-0.866993,-0.041053
1630067062278,-0.501481,-0.868457,-0.040687
1630067062288,-0.500932,-0.869128,-0.040626
1630067062297,-0.502518,-0.870043,-0.041724
1630067062307,-0.499956,-0.869311,-0.042334
1630067062317,-0.500505,-0.868579,-0.040626
1630067062326,-0.501725,-0.867786,-0.040320999999999996
1630067062336,-0.501237,-0.868274,-0.040199
1630067062345,-0.501115,-0.867176,-0.040626
1630067062355,-0.500871,-0.867969,-0.04087
1630067062365,-0.500505,-0.867054,-0.040199
1630067062374,-0.501359,-0.866322,-0.040138
1630067062384,-0.501725,-0.866993,-0.040687
1630067062393,-0.503006,-0.867786,-0.040443
1630067062403,-0.502213,-0.867969,-0.040565
1630067062413,-0.502274,-0.868884,-0.040320999999999996
1630067062422,-0.502274,-0.867664,-0.039406
1630067062432,-0.50264,-0.867786,-0.039955
1630067062441,-0.501725,-0.867237,-0.039406
1630067062451,-0.501542,-0.866749,-0.037087999999999996
1630067062461,-0.501298,-0.865956,-0.036844
1630067062470,-0.502518,-0.8662,-0.036661
1630067062480,-0.502213,-0.867176,-0.036295
1630067062489,-0.503738,-0.866932,-0.036782999999999996
1630067062499,-0.502762,-0.867542,-0.036539
1630067062509,-0.503372,-0.868274,-0.035868
1630067062518,-0.503921,-0.867725,-0.036173
1630067062528,-0.504653,-0.868396,-0.035013999999999997
1630067062537,-0.504287,-0.867481,-0.035623999999999996
1630067062547,-0.503555,-0.868457,-0.034159999999999996
1630067062557,-0.503311,-0.868823,-0.034404
1630067062566,-0.50264,-0.868274,-0.033733
1630067062576,-0.502762,-0.868884,-0.033854999999999996
1630067062585,-0.503067,-0.867908,-0.034465
1630067062595,-0.503006,-0.867725,-0.033245
1630067062605,-0.504531,-0.869311,-0.034038
1630067062614,-0.504348,-0.870104,-0.035563
1630067062624,-0.502701,-0.869799,-0.034282
1630067062633,-0.503311,-0.868762,-0.034404
1630067062643,-0.50386,-0.869982,-0.034404
1630067062653,-0.502396,-0.869189,-0.033184
1630067062662,-0.502152,-0.869738,-0.032818
1630067062672,-0.501054,-0.868396,-0.03233
1630067062681,-0.501237,-0.868518,-0.030134
1630067062691,-0.499712,-0.868152,-0.029463
1630067062701,-0.500261,-0.868457,-0.029768
1630067062710,-0.5002,-0.868396,-0.027755
1630067062720,-0.500505,-0.867908,-0.027816
1630067062729,-0.501176,-0.868518,-0.028791999999999998
1630067062739,-0.501176,-0.869372,-0.02928
1630067062749,-0.501542,-0.867969,-0.029036
1630067062758,-0.500444,-0.869189,-0.030073
1630067062768,-0.500261,-0.869006,-0.028731
1630067062777,-0.497882,-0.863394,-0.027877
1630067062787,-0.49916299999999997,-0.8599169999999999,-0.02684
1630067062797,-0.501542,-0.864919,-0.028914
1630067062806,-0.502091,-0.869311,-0.030439
1630067062816,-0.503494,-0.871629,-0.031537
1630067062825,-0.50447,-0.8757159999999999,-0.035013999999999997
1630067062835,-0.504226,-0.878888,-0.035746
1630067062845,-0.50386,-0.8775459999999999,-0.035746
1630067062854,-0.502823,-0.873703,-0.034465
1630067062864,-0.501359,-0.869433,-0.032695999999999996
1630067062873,-0.499285,-0.866383,-0.032085999999999996
1630067062883,-0.499529,-0.866261,-0.029646
1630067062893,-0.49885799999999997,-0.866139,-0.028975
1630067062902,-0.49763799999999997,-0.866383,-0.030134
1630067062912,-0.49641799999999997,-0.869067,-0.029585
1630067062921,-0.496174,-0.869616,-0.030622
1630067062931,-0.494771,-0.8699209999999999,-0.030560999999999998
1630067062941,-0.493978,-0.868518,-0.027938
1630067062950,-0.494771,-0.867969,-0.027999
1630067062960,-0.496357,-0.8662,-0.026168999999999998
1630067062969,-0.496357,-0.867115,-0.026047
1630067062979,-0.497699,-0.867481,-0.027327999999999998
1630067062989,-0.498309,-0.869006,-0.028304
1630067062998,-0.499651,-0.8708359999999999,-0.029707
1630067063008,-0.501176,-0.873032,-0.029828999999999998
1630067063017,-0.500688,-0.87535,-0.031842
1630067063027,-0.499041,-0.8723,-0.033062
1630067063037,-0.500444,-0.867664,-0.033428
1630067063046,-0.50203,-0.867908,-0.035197
1630067063056,-0.501603,-0.868762,-0.037149
1630067063065,-0.50142,-0.866566,-0.035623999999999996
1630067063075,-0.500139,-0.867176,-0.036356
1630067063085,-0.49898,-0.87108,-0.037881
1630067063094,-0.499651,-0.8732759999999999,-0.038186
1630067063104,-0.499956,-0.873032,-0.038857
1630067063113,-0.498736,-0.87169,-0.038674
1630067063123,-0.499407,-0.870714,-0.037087999999999996
1630067063133,-0.49885799999999997,-0.86925,-0.036295
1630067063142,-0.498492,-0.868823,-0.03599
1630067063152,-0.499102,-0.870165,-0.035502
1630067063161,-0.499346,-0.870897,-0.035563
1630067063171,-0.49959,-0.871629,-0.035807
1630067063181,-0.499102,-0.873032,-0.03599
1630067063190,-0.49898,-0.873337,-0.035929
1630067063200,-0.49977299999999997,-0.873154,-0.035563
1630067063209,-0.499651,-0.872422,-0.036112
1630067063219,-0.499407,-0.871019,-0.037027
1630067063229,-0.499346,-0.868152,-0.03721
1630067063238,-0.499224,-0.868579,-0.037332
1630067063248,-0.498309,-0.867237,-0.037637
1630067063257,-0.498675,-0.86681,-0.039101
1630067063267,-0.498797,-0.86681,-0.039589
1630067063277,-0.497882,-0.866383,-0.040199
1630067063286,-0.49885799999999997,-0.866871,-0.041541
1630067063296,-0.498187,-0.868091,-0.040443
1630067063305,-0.499407,-0.867237,-0.039528
1630067063315,-0.5002,-0.866444,-0.039162
1630067063325,-0.500688,-0.867176,-0.037881
1630067063334,-0.500688,-0.867786,-0.03599
1630067063344,-0.502091,-0.868884,-0.035807
1630067063353,-0.500993,-0.869494,-0.035441
1630067063363,-0.500688,-0.869067,-0.033672
1630067063373,-0.500932,-0.869067,-0.031659
1630067063382,-0.500139,-0.869738,-0.030439
1630067063392,-0.499346,-0.8702259999999999,-0.029768
1630067063401,-0.49898,-0.868945,-0.030255999999999998
1630067063411,-0.498614,-0.869494,-0.029768
1630067063421,-0.499102,-0.8699209999999999,-0.030622
1630067063430,-0.49733299999999997,-0.869494,-0.031293
1630067063440,-0.497272,-0.86986,-0.03172
1630067063449,-0.497272,-0.870714,-0.032757
1630067063459,-0.49611299999999997,-0.872544,-0.033549999999999996
1630067063469,-0.496296,-0.87291,-0.033916
1630067063478,-0.494954,-0.8729709999999999,-0.033489
1630067063488,-0.494771,-0.8732759999999999,-0.03294
1630067063497,-0.495564,-0.8726659999999999,-0.031598
1630067063507,-0.494222,-0.8732759999999999,-0.031476
1630067063517,-0.494649,-0.87474,-0.030439
1630067063526,-0.49294099999999996,-0.875655,-0.029828999999999998
1630067063536,-0.492758,-0.876387,-0.030317
1630067063545,-0.492392,-0.8760209999999999,-0.029951
1630067063555,-0.49105,-0.8763259999999999,-0.02928
1630067063565,-0.49166,-0.876265,-0.028182
1630067063574,-0.491294,-0.87535,-0.027572
1630067063584,-0.490135,-0.87596,-0.027755
1630067063593,-0.490257,-0.8766309999999999,-0.028059999999999998
1630067063603,-0.489403,-0.8763259999999999,-0.027694
1630067063613,-0.488793,-0.875594,-0.029828999999999998
1630067063622,-0.489342,-0.8748009999999999,-0.030744
1630067063632,-0.489708,-0.871934,-0.031537
1630067063641,-0.490318,-0.87169,-0.032635
1630067063651,-0.490379,-0.8720559999999999,-0.032695999999999996
1630067063661,-0.489708,-0.872727,-0.031232
1630067063670,-0.489769,-0.873032,-0.031049
1630067063680,-0.489464,-0.873764,-0.030439
1630067063689,-0.488854,-0.869067,-0.031598
1630067063699,-0.489769,-0.866871,-0.031537
1630067063709,-0.492087,-0.868762,-0.034343
1630067063718,-0.49324599999999996,-0.873093,-0.035563
1630067063728,-0.494832,-0.875777,-0.037149
1630067063737,-0.494039,-0.8784,-0.039223
1630067063747,-0.493429,-0.8818159999999999,-0.042761
1630067063757,-0.493002,-0.881328,-0.043981
1630067063766,-0.493307,-0.878644,-0.043005
1630067063776,-0.493368,-0.8738859999999999,-0.040809
1630067063785,-0.491294,-0.870775,-0.038857
1630067063795,-0.490867,-0.868091,-0.036173
1630067063805,-0.489952,-0.867359,-0.034648
1630067063814,-0.490379,-0.868152,-0.032208
1630067063824,-0.48897599999999997,-0.871568,-0.031903
1630067063833,-0.48983,-0.8741909999999999,-0.031842
1630067063843,-0.48958599999999997,-0.87535,-0.030622
1630067063853,-0.489708,-0.874557,-0.029523999999999998
1630067063862,-0.491294,-0.873337,-0.029402
1630067063872,-0.49080599999999996,-0.871629,-0.028304
1630067063881,-0.49141599999999996,-0.871568,-0.029341
1630067063891,-0.493063,-0.870592,-0.0305
1630067063901,-0.495381,-0.8714459999999999,-0.031964
1630067063910,-0.495381,-0.871507,-0.032818
1630067063920,-0.496601,-0.87291,-0.034282
1630067063929,-0.497394,-0.873154,-0.035075
1630067063939,-0.498675,-0.875167,-0.036966
1630067063949,-0.49824799999999997,-0.87291,-0.039284
1630067063958,-0.49702799999999997,-0.868884,-0.038308
1630067063968,-0.499102,-0.868457,-0.038491
1630067063977,-0.499346,-0.869982,-0.03904
1630067063987,-0.499712,-0.866688,-0.038064
1630067063997,-0.49885799999999997,-0.866993,-0.038674
1630067064006,-0.499041,-0.8708359999999999,-0.04026
1630067064016,-0.499529,-0.873764,-0.043554
1630067064025,-0.5002,-0.873703,-0.042517
1630067064035,-0.499651,-0.871629,-0.0427
1630067064045,-0.500322,-0.8702259999999999,-0.040565
1630067064054,-0.5002,-0.869982,-0.037087999999999996
1630067064064,-0.500139,-0.869677,-0.034709
1630067064073,-0.500078,-0.868457,-0.035013999999999997
1630067064083,-0.499285,-0.870165,-0.037637
1630067064093,-0.49824799999999997,-0.871568,-0.040199
1630067064102,-0.497821,-0.873215,-0.040748
1630067064112,-0.496906,-0.8751059999999999,-0.042334
1630067064121,-0.496967,-0.875228,-0.042578
1630067064131,-0.496235,-0.873337,-0.043493
1630067064141,-0.49654,-0.8720559999999999,-0.043188
1630067064150,-0.495259,-0.8717509999999999,-0.042638999999999996
1630067064160,-0.495442,-0.8708359999999999,-0.04209
1630067064169,-0.494832,-0.87108,-0.042334
1630067064179,-0.492758,-0.869738,-0.041846
1630067064189,-0.494222,-0.8705309999999999,-0.040687
1630067064198,-0.493856,-0.870897,-0.040138
1630067064208,-0.49324599999999996,-0.870897,-0.040320999999999996
1630067064217,-0.493002,-0.870409,-0.040138
1630067064227,-0.493185,-0.871385,-0.038979
1630067064237,-0.49263599999999996,-0.872178,-0.038491
1630067064246,-0.493124,-0.873093,-0.037515
1630067064256,-0.492758,-0.873398,-0.036722
1630067064265,-0.49227,-0.873032,-0.036722
1630067064275,-0.491904,-0.8735809999999999,-0.035563
1630067064285,-0.493002,-0.872544,-0.03538
1630067064294,-0.492514,-0.872544,-0.03599
1630067064304,-0.493368,-0.871568,-0.035075
1630067064313,-0.49458799999999997,-0.871202,-0.03599
1630067064323,-0.494527,-0.87169,-0.035318999999999996
1630067064333,-0.49355099999999996,-0.872483,-0.036051
1630067064342,-0.494039,-0.874069,-0.036966
1630067064352,-0.494954,-0.87474,-0.036295
1630067064361,-0.494466,-0.874923,-0.036234
1630067064371,-0.495076,-0.8738859999999999,-0.036478
1630067064381,-0.494283,-0.873703,-0.036356
1630067064390,-0.49324599999999996,-0.8748009999999999,-0.036966
1630067064400,-0.49324599999999996,-0.87596,-0.036844
1630067064409,-0.492819,-0.875594,-0.036844
1630067064419,-0.492575,-0.874618,-0.038125
1630067064429,-0.491233,-0.8744959999999999,-0.037271
1630067064438,-0.491294,-0.8760209999999999,-0.03843
1630067064448,-0.48922,-0.875838,-0.038918
1630067064457,-0.489769,-0.874984,-0.039223
1630067064467,-0.488488,-0.8732759999999999,-0.038613
1630067064477,-0.488,-0.871507,-0.037942
1630067064486,-0.48739,-0.8714459999999999,-0.036966
1630067064496,-0.487695,-0.874008,-0.035929
1630067064505,-0.487268,-0.87596,-0.03599
1630067064515,-0.487817,-0.877485,-0.036782999999999996
1630067064525,-0.487268,-0.875899,-0.036356
1630067064534,-0.48867099999999997,-0.875777,-0.0366
1630067064544,-0.48922,-0.875899,-0.03782
1630067064553,-0.489464,-0.87535,-0.039833
1630067064563,-0.488732,-0.873459,-0.040504
1630067064573,-0.490013,-0.874862,-0.043432
1630067064582,-0.487024,-0.874008,-0.044835
1630067064592,-0.48531599999999997,-0.867298,-0.044957
1630067064601,-0.486048,-0.8632719999999999,-0.04392
1630067064611,-0.488549,-0.867054,-0.043371
1630067064621,-0.49166,-0.873703,-0.045506
1630067064630,-0.494344,-0.8754109999999999,-0.047214
1630067064640,-0.493978,-0.877363,-0.049471
1630067064649,-0.494466,-0.881999,-0.051179
1630067064659,-0.494039,-0.8815109999999999,-0.049409999999999996
1630067064669,-0.49355099999999996,-0.87901,-0.04697
1630067064678,-0.49349,-0.87413,-0.044652
1630067064688,-0.492392,-0.870958,-0.043432
1630067064697,-0.491965,-0.869616,-0.041846
1630067064707,-0.492575,-0.869616,-0.042638999999999996
1630067064717,-0.492087,-0.869738,-0.041053
1630067064726,-0.48897599999999997,-0.8708359999999999,-0.040748
1630067064736,-0.489342,-0.872544,-0.04331
1630067064745,-0.490379,-0.87413,-0.043371
1630067064755,-0.490074,-0.872849,-0.044286
1630067064765,-0.491904,-0.871568,-0.045994
1630067064774,-0.493124,-0.869494,-0.047153
1630067064784,-0.494039,-0.86864,-0.047458
1630067064793,-0.493673,-0.869738,-0.047214
1630067064803,-0.49288,-0.870653,-0.04758
1630067064813,-0.4941,-0.8714459999999999,-0.045871999999999996
1630067064822,-0.494649,-0.8748009999999999,-0.04819
1630067064832,-0.494771,-0.878034,-0.047458
1630067064841,-0.493612,-0.878278,-0.045018
1630067064851,-0.492148,-0.874008,-0.042943999999999996
1630067064861,-0.49324599999999996,-0.871324,-0.0427
1630067064870,-0.493978,-0.872178,-0.044652
1630067064880,-0.49519799999999997,-0.867664,-0.042578
1630067064889,-0.495259,-0.864431,-0.043493
1630067064899,-0.491904,-0.86864,-0.044896
1630067064909,-0.490013,-0.87474,-0.045628
1630067064918,-0.49111099999999996,-0.8751059999999999,-0.044347
1630067064928,-0.492453,-0.873825,-0.043554
1630067064937,-0.49702799999999997,-0.872544,-0.04331
1630067064947,-0.497699,-0.873093,-0.042151
1630067064957,-0.495747,-0.876509,-0.039223
1630067064966,-0.493429,-0.878827,-0.037637
1630067064976,-0.494039,-0.87901,-0.035441
1630067064985,-0.493978,-0.877058,-0.035868
1630067064995,-0.492453,-0.876448,-0.035563
1630067065005,-0.49288,-0.8772409999999999,-0.036844
1630067065014,-0.493185,-0.877058,-0.03843
1630067065024,-0.490135,-0.8763259999999999,-0.037698
1630067065033,-0.491904,-0.871995,-0.040138
1630067065043,-0.490989,-0.868457,-0.040138
1630067065053,-0.491904,-0.867786,-0.040077
1630067065062,-0.491538,-0.868213,-0.040138
1630067065072,-0.49324599999999996,-0.86864,-0.040015999999999996
1630067065081,-0.49202599999999996,-0.8708359999999999,-0.04209
1630067065091,-0.492148,-0.8723609999999999,-0.043005
1630067065101,-0.49172099999999996,-0.8738859999999999,-0.042029
1630067065110,-0.491538,-0.87291,-0.041053
1630067065120,-0.49519799999999997,-0.873642,-0.040748
1630067065129,-0.49489299999999997,-0.872788,-0.040992
1630067065139,-0.495259,-0.8732759999999999,-0.041297
1630067065149,-0.493795,-0.873825,-0.040504
1630067065158,-0.49166,-0.872605,-0.037087999999999996
1630067065168,-0.490684,-0.873215,-0.035502
1630067065177,-0.49166,-0.873154,-0.034709
1630067065187,-0.49263599999999996,-0.873337,-0.035929
1630067065197,-0.490135,-0.872849,-0.036722
1630067065206,-0.48983,-0.8723,-0.036661
1630067065216,-0.490989,-0.872422,-0.036051
1630067065225,-0.493063,-0.87352,-0.036173
1630067065235,-0.495381,-0.8741909999999999,-0.042943999999999996
1630067065245,-0.49172099999999996,-0.872422,-0.036539
1630067065254,-0.491965,-0.871507,-0.037332
1630067065264,-0.491355,-0.872483,-0.039528
1630067065273,-0.489464,-0.875594,-0.04026
1630067065283,-0.48836599999999997,-0.8784,-0.038369
1630067065293,-0.491355,-0.874984,-0.03965
1630067065302,-0.49324599999999996,-0.874923,-0.039162
1630067065312,-0.49349,-0.874008,-0.039528
1630067065321,-0.49263599999999996,-0.875045,-0.038246999999999996
1630067065331,-0.49111099999999996,-0.87474,-0.037271
1630067065341,-0.491538,-0.875472,-0.036539
1630067065350,-0.490562,-0.875472,-0.036782999999999996
1630067065360,-0.491172,-0.87535,-0.036844
1630067065369,-0.492148,-0.876387,-0.037637
1630067065379,-0.49166,-0.8751059999999999,-0.038369
1630067065389,-0.489037,-0.871934,-0.03965
1630067065398,-0.48836599999999997,-0.870897,-0.040199
1630067065408,-0.487817,-0.873642,-0.041358
1630067065417,-0.487085,-0.8723609999999999,-0.042151
1630067065427,-0.485987,-0.869494,-0.041174999999999996
1630067065437,-0.488183,-0.870592,-0.041297
1630067065446,-0.490318,-0.874435,-0.043493
1630067065456,-0.492575,-0.877607,-0.043737
1630067065465,-0.493063,-0.8805959999999999,-0.044652
1630067065475,-0.49324599999999996,-0.881084,-0.045018
1630067065485,-0.493978,-0.879864,-0.045566999999999996
1630067065494,-0.493917,-0.880352,-0.045506
1630067065504,-0.49105,-0.87901,-0.044286
1630067065513,-0.489098,-0.875045,-0.042456
1630067065523,-0.487695,-0.872544,-0.043554
1630067065533,-0.487207,-0.871263,-0.043981
1630067065542,-0.48592599999999997,-0.870653,-0.045018
1630067065552,-0.48409599999999997,-0.870592,-0.04514
1630067065561,-0.482815,-0.867359,-0.045323
1630067065571,-0.482144,-0.867298,-0.045811
1630067065581,-0.48348599999999997,-0.867237,-0.045262
1630067065590,-0.48623099999999997,-0.869982,-0.045323
1630067065600,-0.487329,-0.8720559999999999,-0.045506
1630067065609,-0.487634,-0.872605,-0.045566999999999996
1630067065619,-0.487817,-0.8738859999999999,-0.044102999999999996
1630067065629,-0.48678,-0.8738859999999999,-0.04331
1630067065638,-0.487268,-0.8741909999999999,-0.043737
1630067065648,-0.489464,-0.87779,-0.044407999999999996
1630067065657,-0.48867099999999997,-0.87779,-0.045018
1630067065667,-0.48775599999999997,-0.87108,-0.040626
1630067065677,-0.48861,-0.873032,-0.038979
1630067065686,-0.487512,-0.876692,-0.038186
1630067065696,-0.485682,-0.8748009999999999,-0.036478
1630067065705,-0.488,-0.8763259999999999,-0.040015999999999996
1630067065715,-0.488183,-0.878888,-0.043188
1630067065725,-0.490379,-0.877424,-0.044591
1630067065734,-0.491599,-0.873703,-0.044591
1630067065744,-0.49227,-0.872117,-0.044042
1630067065753,-0.492453,-0.872178,-0.042822
1630067065763,-0.4941,-0.87108,-0.041297
1630067065773,-0.493002,-0.873764,-0.03782
1630067065782,-0.492392,-0.874618,-0.033733
1630067065792,-0.493917,-0.877302,-0.033184
1630067065801,-0.494832,-0.878278,-0.035136
1630067065811,-0.495137,-0.878522,-0.033854999999999996
1630067065821,-0.496235,-0.877485,-0.032818
1630067065830,-0.497882,-0.877729,-0.03294
1630067065840,-0.498126,-0.877973,-0.033367
1630067065849,-0.499102,-0.876814,-0.035868
1630067065859,-0.498309,-0.8735809999999999,-0.036234
1630067065869,-0.498614,-0.872178,-0.037271
1630067065878,-0.49837,-0.871568,-0.037454
1630067065888,-0.498187,-0.870104,-0.038003
1630067065897,-0.49794299999999997,-0.868274,-0.038125
1630067065907,-0.49733299999999997,-0.868945,-0.03782
1630067065917,-0.498126,-0.869372,-0.039284
1630067065926,-0.498065,-0.868884,-0.039528
1630067065936,-0.497089,-0.867908,-0.03843
1630067065945,-0.496845,-0.867542,-0.03843
1630067065955,-0.496845,-0.867603,-0.03782
1630067065965,-0.497272,-0.866932,-0.0366
1630067065974,-0.496357,-0.865956,-0.035441
1630067065984,-0.49776,-0.866871,-0.036051
1630067065993,-0.49672299999999997,-0.867481,-0.034465
1630067066003,-0.497211,-0.869799,-0.034465
1630067066013,-0.49654,-0.870958,-0.032695999999999996
1630067066022,-0.496174,-0.87169,-0.03111
1630067066032,-0.495259,-0.872239,-0.031232
1630067066041,-0.496662,-0.871812,-0.031293
1630067066051,-0.496601,-0.870653,-0.031476
1630067066061,-0.495686,-0.870653,-0.031964
1630067066070,-0.49519799999999997,-0.8708359999999999,-0.03233
1630067066080,-0.495076,-0.869494,-0.03233
1630067066089,-0.495991,-0.872544,-0.033184
1630067066099,-0.49532,-0.875167,-0.032452
1630067066109,-0.495076,-0.8741909999999999,-0.03233
1630067066118,-0.495137,-0.872788,-0.032757
1630067066128,-0.495869,-0.872483,-0.032818
1630067066137,-0.49593,-0.873215,-0.033245
1630067066147,-0.494954,-0.8723609999999999,-0.032818
1630067066157,-0.494954,-0.8726659999999999,-0.033001
1630067066166,-0.494039,-0.874313,-0.033916
1630067066176,-0.492758,-0.870714,-0.03233
1630067066185,-0.49288,-0.865895,-0.030866
1630067066195,-0.494771,-0.868762,-0.031049
1630067066205,-0.496296,-0.8748009999999999,-0.035318999999999996
1630067066214,-0.499712,-0.877729,-0.038125
1630067066224,-0.502884,-0.878522,-0.041602
1630067066233,-0.500871,-0.8805959999999999,-0.042029
1630067066243,-0.49946799999999997,-0.879803,-0.040748
1630067066253,-0.498675,-0.878583,-0.039101
1630067066262,-0.496052,-0.875045,-0.036051
1630067066272,-0.492514,-0.873154,-0.032695999999999996
1630067066281,-0.491477,-0.8723609999999999,-0.030927
1630067066291,-0.489525,-0.870043,-0.03172
1630067066301,-0.489037,-0.868396,-0.033001
1630067066310,-0.489464,-0.868884,-0.036112
1630067066320,-0.490318,-0.866871,-0.037454
1630067066329,-0.492392,-0.86559,-0.040015999999999996
1630067066339,-0.492697,-0.865041,-0.040015999999999996
1630067066349,-0.49294099999999996,-0.8651019999999999,-0.039406
1630067066358,-0.490989,-0.867847,-0.038369
1630067066368,-0.490562,-0.870348,-0.035868
1630067066377,-0.492209,-0.8708359999999999,-0.035929
1630067066387,-0.49294099999999996,-0.8729709999999999,-0.036966
1630067066397,-0.49489299999999997,-0.873703,-0.03721
1630067066406,-0.496601,-0.87413,-0.038125
1630067066416,-0.497882,-0.874435,-0.03843
1630067066425,-0.496296,-0.874923,-0.038857
1630067066435,-0.496784,-0.872239,-0.039345
1630067066445,-0.496601,-0.86559,-0.036722
1630067066454,-0.495259,-0.8662,-0.036417
1630067066464,-0.49471,-0.869128,-0.036417
1630067066473,-0.49532,-0.867542,-0.033794
1630067066483,-0.496052,-0.869128,-0.036417
1630067066493,-0.49763799999999997,-0.8735809999999999,-0.039589
1630067066502,-0.500444,-0.873703,-0.040931
1630067066512,-0.501054,-0.869799,-0.040504
1630067066521,-0.500139,-0.870348,-0.037637
1630067066531,-0.499346,-0.870653,-0.032513
1630067066541,-0.50142,-0.870165,-0.032513
1630067066550,-0.502762,-0.8705309999999999,-0.030987999999999998
1630067066560,-0.501725,-0.87291,-0.028121
1630067066569,-0.501969,-0.873825,-0.02623
1630067066579,-0.501481,-0.874069,-0.028059999999999998
1630067066589,-0.501176,-0.87352,-0.028853
1630067066598,-0.499956,-0.874374,-0.029523999999999998
1630067066608,-0.499346,-0.8748009999999999,-0.028059999999999998
1630067066617,-0.49885799999999997,-0.8744959999999999,-0.027632999999999998
1630067066627,-0.498797,-0.872727,-0.026718
1630067066637,-0.49794299999999997,-0.871202,-0.026718
1630067066646,-0.498065,-0.869433,-0.028059999999999998
1630067066656,-0.498492,-0.867359,-0.027632999999999998
1630067066665,-0.49702799999999997,-0.866444,-0.027938
1630067066675,-0.49733299999999997,-0.86681,-0.028791999999999998
1630067066685,-0.498004,-0.86864,-0.029768
1630067066694,-0.498065,-0.86986,-0.030255999999999998
1630067066704,-0.497699,-0.86864,-0.029646
1630067066713,-0.498065,-0.869372,-0.030866
1630067066723,-0.498004,-0.867542,-0.029585
1630067066733,-0.498736,-0.867847,-0.029341
1630067066742,-0.498004,-0.868701,-0.026962
1630067066752,-0.49763799999999997,-0.868884,-0.024217
1630067066761,-0.497821,-0.869494,-0.023485
1630067066771,-0.49641799999999997,-0.870104,-0.023119
1630067066781,-0.49763799999999997,-0.8720559999999999,-0.022692
1630067066790,-0.49855299999999997,-0.8723609999999999,-0.024156
1630067066800,-0.496235,-0.8708359999999999,-0.021716
1630067066809,-0.49654,-0.8711409999999999,-0.022082
1630067066819,-0.49580799999999997,-0.87291,-0.020923
1630067066829,-0.497882,-0.874008,-0.022692
1630067066838,-0.496479,-0.872544,-0.024156
1630067066848,-0.496174,-0.871385,-0.023851
1630067066857,-0.49471,-0.87291,-0.022509
1630067066867,-0.492697,-0.873459,-0.019093
1630067066877,-0.49471,-0.875472,-0.019947
1630067066886,-0.49733299999999997,-0.874252,-0.022509
1630067066896,-0.495442,-0.873337,-0.020801
1630067066905,-0.495869,-0.8729709999999999,-0.020191
1630067066915,-0.495564,-0.873642,-0.018788
1630067066925,-0.496235,-0.873642,-0.018788
1630067066934,-0.49519799999999997,-0.873947,-0.019642
1630067066944,-0.49324599999999996,-0.8702259999999999,-0.019764
1630067066953,-0.493795,-0.86742,-0.021045
1630067066963,-0.49776,-0.871202,-0.023667999999999998
1630067066973,-0.49916299999999997,-0.872849,-0.024339
1630067066982,-0.499102,-0.872605,-0.02623
1630067066992,-0.49837,-0.8751059999999999,-0.029523999999999998
1630067067001,-0.497821,-0.879742,-0.031842
1630067067011,-0.496906,-0.87901,-0.031842
1630067067021,-0.497699,-0.874557,-0.030927
1630067067030,-0.496479,-0.870775,-0.02928
1630067067040,-0.49458799999999997,-0.868884,-0.027694
1630067067049,-0.493429,-0.869067,-0.027267
1630067067059,-0.492575,-0.8711409999999999,-0.025925
1630067067069,-0.492819,-0.872605,-0.026413
1630067067078,-0.490379,-0.872605,-0.02684
1630067067088,-0.490013,-0.87169,-0.025376
1630067067097,-0.488427,-0.87108,-0.025742
1630067067107,-0.489159,-0.870653,-0.025986
1630067067117,-0.490074,-0.870592,-0.026779
1630067067126,-0.490745,-0.869006,-0.025498
1630067067136,-0.490989,-0.869799,-0.025071
1630067067145,-0.49172099999999996,-0.870958,-0.025863999999999998
1630067067155,-0.49166,-0.872483,-0.025376
1630067067165,-0.492453,-0.873764,-0.025498
1630067067174,-0.493124,-0.8748009999999999,-0.025559
1630067067184,-0.495076,-0.876875,-0.028182
1630067067193,-0.496296,-0.877668,-0.027327999999999998
1630067067203,-0.49580799999999997,-0.877668,-0.027389
1630067067213,-0.494405,-0.872422,-0.028304
1630067067222,-0.495015,-0.867237,-0.027389
1630067067232,-0.495015,-0.86925,-0.029523999999999998
1630067067241,-0.496296,-0.86864,-0.028914
1630067067251,-0.496967,-0.868274,-0.030255999999999998
1630067067261,-0.497272,-0.87291,-0.03233
1630067067270,-0.495991,-0.8748009999999999,-0.034038
1630067067280,-0.496784,-0.873337,-0.033062
1630067067289,-0.496906,-0.8720559999999999,-0.031293
1630067067299,-0.497821,-0.87291,-0.030134
1630067067309,-0.498431,-0.873764,-0.030012
1630067067318,-0.499285,-0.873764,-0.029523999999999998
1630067067328,-0.49885799999999997,-0.873459,-0.028914
1630067067337,-0.49855299999999997,-0.873703,-0.02928
1630067067347,-0.49855299999999997,-0.8744959999999999,-0.029646
1630067067357,-0.498065,-0.875289,-0.030255999999999998
1630067067366,-0.49837,-0.873642,-0.031964
1630067067376,-0.496784,-0.873032,-0.031354
1630067067385,-0.49733299999999997,-0.872727,-0.031842
1630067067395,-0.49763799999999997,-0.871568,-0.034282
1630067067405,-0.49702799999999997,-0.871263,-0.033428
1630067067414,-0.49593,-0.869494,-0.032757
1630067067424,-0.495625,-0.868579,-0.031476
1630067067433,-0.495381,-0.868823,-0.031964
1630067067443,-0.495076,-0.868579,-0.032635
1630067067453,-0.495137,-0.868884,-0.032390999999999996
1630067067462,-0.496784,-0.869738,-0.032635
1630067067472,-0.49654,-0.869128,-0.032818
1630067067481,-0.496601,-0.869128,-0.03294
1630067067491,-0.496357,-0.870043,-0.033123
1630067067501,-0.49593,-0.871202,-0.031659
1630067067510,-0.496296,-0.871568,-0.032452
1630067067520,-0.49654,-0.871812,-0.03172
1630067067529,-0.495686,-0.871568,-0.032513
1630067067539,-0.49580799999999997,-0.871202,-0.032574
1630067067549,-0.495564,-0.870348,-0.032452
1630067067558,-0.495625,-0.870958,-0.033184
1630067067568,-0.495015,-0.870104,-0.032818
1630067067577,-0.495625,-0.869189,-0.032513
1630067067587,-0.495869,-0.8702259999999999,-0.033123
1630067067597,-0.49550299999999997,-0.8711409999999999,-0.033611
1630067067606,-0.495686,-0.870592,-0.033549999999999996
1630067067616,-0.495686,-0.870653,-0.03294
1630067067625,-0.495991,-0.871324,-0.031537
1630067067635,-0.496906,-0.870775,-0.030560999999999998
1630067067645,-0.49702799999999997,-0.870958,-0.030073
1630067067654,-0.498065,-0.870714,-0.02928
1630067067664,-0.497821,-0.8723,-0.026291
1630067067673,-0.49824799999999997,-0.873764,-0.02501
1630067067683,-0.497455,-0.873642,-0.024644
1630067067693,-0.49702799999999997,-0.872605,-0.02562
1630067067702,-0.49654,-0.8708359999999999,-0.02623
1630067067712,-0.497455,-0.870958,-0.027206
1630067067721,-0.49898,-0.874252,-0.02867
1630067067731,-0.499651,-0.875228,-0.029219
1630067067741,-0.499712,-0.876143,-0.03111
1630067067750,-0.498187,-0.878705,-0.032818
1630067067760,-0.496601,-0.880352,-0.033672
1630067067769,-0.495747,-0.8790709999999999,-0.032574
1630067067779,-0.493917,-0.876875,-0.031964
1630067067789,-0.493978,-0.8748009999999999,-0.03111
1630067067798,-0.49263599999999996,-0.872727,-0.030622
1630067067808,-0.491843,-0.872605,-0.028791999999999998
1630067067817,-0.491233,-0.87169,-0.027511
1630067067827,-0.490318,-0.871934,-0.027389
1630067067837,-0.490135,-0.8711409999999999,-0.025498
1630067067846,-0.487878,-0.87108,-0.024827
1630067067856,-0.486902,-0.86986,-0.023667999999999998
1630067067865,-0.488,-0.8699209999999999,-0.022448
1630067067875,-0.48897599999999997,-0.868884,-0.022509
1630067067885,-0.490562,-0.869067,-0.022509
1630067067894,-0.491904,-0.869982,-0.023607
1630067067904,-0.49288,-0.87047,-0.025498
1630067067913,-0.494771,-0.8708359999999999,-0.02623
1630067067923,-0.494405,-0.872544,-0.028609
1630067067933,-0.49580799999999997,-0.8738859999999999,-0.028731
1630067067942,-0.49715,-0.874557,-0.030622
1630067067952,-0.497394,-0.875228,-0.031354
1630067067961,-0.496479,-0.8705309999999999,-0.03233
1630067067971,-0.496357,-0.8662,-0.03172
1630067067981,-0.498065,-0.867786,-0.033367
1630067067990,-0.498797,-0.866322,-0.034648
1630067068000,-0.500322,-0.865468,-0.034892
1630067068009,-0.499224,-0.869433,-0.037576
1630067068019,-0.498675,-0.8708359999999999,-0.038491
1630067068029,-0.49946799999999997,-0.871324,-0.038674
1630067068038,-0.500078,-0.871507,-0.037332
1630067068048,-0.499285,-0.871568,-0.035318999999999996
1630067068057,-0.5002,-0.8708359999999999,-0.034282
1630067068067,-0.500444,-0.870714,-0.033916
1630067068077,-0.500322,-0.870897,-0.032635
1630067068086,-0.500566,-0.8720559999999999,-0.032390999999999996
1630067068096,-0.499529,-0.873154,-0.032513
1630067068105,-0.49837,-0.872239,-0.031964
1630067068115,-0.498614,-0.8735809999999999,-0.03172
1630067068125,-0.498736,-0.873032,-0.03172
1630067068134,-0.499041,-0.8723,-0.032147
1630067068144,-0.497516,-0.8717509999999999,-0.034159999999999996
1630067068153,-0.497516,-0.871324,-0.036112
1630067068163,-0.49837,-0.869738,-0.035685
1630067068173,-0.497699,-0.87108,-0.035623999999999996
1630067068182,-0.49776,-0.868945,-0.035136
1630067068192,-0.498004,-0.868884,-0.036356
1630067068201,-0.498919,-0.868152,-0.036295
1630067068211,-0.498675,-0.86986,-0.036539
1630067068221,-0.49916299999999997,-0.869555,-0.037149
1630067068230,-0.497516,-0.869311,-0.036782999999999996
1630067068240,-0.498675,-0.869311,-0.036722
1630067068249,-0.497272,-0.869677,-0.035868
1630067068259,-0.49580799999999997,-0.870165,-0.034831
1630067068269,-0.49593,-0.869433,-0.032879
1630067068278,-0.495442,-0.869372,-0.033306
1630067068288,-0.495686,-0.868884,-0.033306
1630067068297,-0.496296,-0.868762,-0.032635
1630067068307,-0.49641799999999997,-0.869372,-0.033549999999999996
1630067068317,-0.495625,-0.869189,-0.032818
1630067068326,-0.495137,-0.868945,-0.033001
1630067068336,-0.49611299999999997,-0.869433,-0.033001
1630067068345,-0.496052,-0.86986,-0.033428
1630067068355,-0.495686,-0.870348,-0.032208
1630067068365,-0.496967,-0.870714,-0.031903
1630067068374,-0.497516,-0.8714459999999999,-0.032085999999999996
1630067068384,-0.497516,-0.871568,-0.032208
1630067068393,-0.497211,-0.871507,-0.03233
1630067068403,-0.497699,-0.873459,-0.033062
1630067068413,-0.498309,-0.873337,-0.032208
1630067068422,-0.496967,-0.872849,-0.03172
1630067068432,-0.496967,-0.87291,-0.031049
1630067068441,-0.49733299999999997,-0.872605,-0.031171
1630067068451,-0.49715,-0.871873,-0.02867
1630067068461,-0.496601,-0.871629,-0.028059999999999998
1630067068470,-0.496357,-0.872117,-0.029096999999999998
1630067068480,-0.496479,-0.871812,-0.027999
1630067068489,-0.49519799999999997,-0.87169,-0.028059999999999998
1630067068499,-0.496601,-0.871202,-0.027327999999999998
1630067068509,-0.49715,-0.871934,-0.028791999999999998
1630067068518,-0.497394,-0.872727,-0.029036
1630067068528,-0.497577,-0.872422,-0.02989
1630067068537,-0.498614,-0.87291,-0.0305
1630067068547,-0.49855299999999997,-0.872727,-0.03111
1630067068557,-0.497394,-0.871385,-0.030683
1630067068566,-0.497455,-0.871873,-0.030560999999999998
1630067068576,-0.498126,-0.871019,-0.031598
1630067068585,-0.496784,-0.870958,-0.031171
1630067068595,-0.497516,-0.870104,-0.03172
1630067068605,-0.49702799999999997,-0.8699209999999999,-0.031232
1630067068614,-0.495686,-0.8702259999999999,-0.032879
1630067068624,-0.497272,-0.869982,-0.033001
1630067068633,-0.497882,-0.86986,-0.033549999999999996
1630067068643,-0.498492,-0.868823,-0.034404
1630067068653,-0.498797,-0.86742,-0.034159999999999996
1630067068662,-0.499346,-0.867176,-0.033367
1630067068672,-0.49824799999999997,-0.867298,-0.032208
1630067068681,-0.499224,-0.868396,-0.030683
1630067068691,-0.499102,-0.869494,-0.030866
1630067068701,-0.498065,-0.866383,-0.030560999999999998
1630067068710,-0.499224,-0.86559,-0.031781
1630067068720,-0.501603,-0.867054,-0.033306
1630067068729,-0.50325,-0.871995,-0.034587
1630067068739,-0.504348,-0.873337,-0.034648
1630067068749,-0.503433,-0.875838,-0.036722
1630067068758,-0.502518,-0.880108,-0.040687
1630067068768,-0.501786,-0.880657,-0.041602
1630067068777,-0.501237,-0.877302,-0.040138
1630067068787,-0.500993,-0.871568,-0.038551999999999996
1630067068797,-0.49824799999999997,-0.867725,-0.037149
1630067068806,-0.495442,-0.86559,-0.036051
1630067068816,-0.49611299999999997,-0.864858,-0.035623999999999996
1630067068825,-0.494222,-0.866383,-0.033916
1630067068835,-0.493856,-0.869372,-0.033367
1630067068845,-0.493185,-0.870958,-0.032208
1630067068854,-0.49355099999999996,-0.871507,-0.030744
1630067068864,-0.491904,-0.871202,-0.029768
1630067068873,-0.49202599999999996,-0.869982,-0.02928
1630067068883,-0.493307,-0.868579,-0.029585
1630067068893,-0.49458799999999997,-0.868091,-0.029463
1630067068902,-0.495076,-0.867908,-0.030439
1630067068912,-0.495869,-0.869067,-0.032269
1630067068921,-0.496845,-0.870409,-0.034159999999999996
1630067068931,-0.498492,-0.8720559999999999,-0.035746
1630067068941,-0.49916299999999997,-0.8726659999999999,-0.037271
1630067068950,-0.49959,-0.8735809999999999,-0.037942
1630067068960,-0.49824799999999997,-0.873093,-0.038918
1630067068969,-0.497821,-0.869616,-0.037576
1630067068979,-0.498309,-0.86498,-0.037027
1630067068989,-0.499041,-0.86681,-0.038369
1630067068998,-0.49946799999999997,-0.867237,-0.038369
1630067069008,-0.5002,-0.865224,-0.037881
1630067069017,-0.499956,-0.868091,-0.039772
1630067069027,-0.49916299999999997,-0.8714459999999999,-0.041358
1630067069037,-0.499529,-0.872849,-0.040077
1630067069046,-0.49898,-0.8723,-0.038369
1630067069056,-0.499346,-0.8714459999999999,-0.03721
1630067069065,-0.499041,-0.870775,-0.036356
1630067069075,-0.49916299999999997,-0.870714,-0.035136
1630067069085,-0.501176,-0.871385,-0.03538
1630067069094,-0.501176,-0.87108,-0.035318999999999996
1630067069104,-0.499712,-0.871995,-0.035563
1630067069113,-0.499224,-0.872727,-0.035075
1630067069123,-0.49885799999999997,-0.87352,-0.035807
1630067069133,-0.49837,-0.87352,-0.036173
1630067069142,-0.497577,-0.8723,-0.035563
1630067069152,-0.496906,-0.871812,-0.036234
1630067069161,-0.49702799999999997,-0.8717509999999999,-0.037454
1630067069171,-0.496662,-0.870409,-0.038369
1630067069181,-0.49715,-0.868518,-0.038491
1630067069190,-0.496845,-0.869189,-0.038796
1630067069200,-0.49593,-0.868701,-0.038064
1630067069209,-0.495137,-0.868152,-0.038491
1630067069219,-0.49702799999999997,-0.869128,-0.037332
1630067069229,-0.496296,-0.869494,-0.037515
1630067069238,-0.496845,-0.868823,-0.036966
1630067069248,-0.497577,-0.8699209999999999,-0.036478
1630067069257,-0.49794299999999997,-0.870287,-0.037027
1630067069267,-0.496845,-0.870104,-0.03538
1630067069277,-0.497455,-0.869677,-0.033977
1630067069286,-0.49776,-0.869494,-0.034648
1630067069296,-0.497882,-0.869006,-0.033854999999999996
1630067069305,-0.49763799999999997,-0.868335,-0.034099
1630067069315,-0.49794299999999997,-0.868091,-0.034038
1630067069325,-0.499102,-0.867969,-0.034282
1630067069334,-0.499041,-0.868091,-0.035258
1630067069344,-0.498675,-0.868518,-0.035258
1630067069353,-0.49959,-0.868274,-0.036782999999999996
1630067069363,-0.49959,-0.868518,-0.035807
1630067069373,-0.500871,-0.868762,-0.036539
1630067069382,-0.500932,-0.869738,-0.036356
1630067069392,-0.500505,-0.871019,-0.035868
1630067069401,-0.502518,-0.87169,-0.037087999999999996
1630067069411,-0.501969,-0.871263,-0.035807
1630067069421,-0.501786,-0.8714459999999999,-0.035807
1630067069430,-0.501176,-0.871629,-0.035258
1630067069440,-0.500566,-0.8714459999999999,-0.03477
1630067069449,-0.499895,-0.87108,-0.034038
1630067069459,-0.499956,-0.871019,-0.034038
1630067069469,-0.500078,-0.870165,-0.034709
1630067069478,-0.499956,-0.870775,-0.034343
1630067069488,-0.498919,-0.870714,-0.033672
1630067069497,-0.49824799999999997,-0.86986,-0.032818
1630067069507,-0.498736,-0.8702259999999999,-0.033489
1630067069517,-0.49855299999999997,-0.870348,-0.035013999999999997
1630067069526,-0.498492,-0.8702259999999999,-0.035075
1630067069536,-0.49776,-0.870653,-0.035075
1630067069545,-0.498065,-0.869555,-0.035318999999999996
1630067069555,-0.498431,-0.8699209999999999,-0.035502
1630067069565,-0.499834,-0.869006,-0.036112
1630067069574,-0.499102,-0.869616,-0.036295
1630067069584,-0.499285,-0.870592,-0.037027
1630067069593,-0.49885799999999997,-0.869799,-0.036295
1630067069603,-0.49837,-0.870165,-0.037027
1630067069613,-0.499834,-0.869494,-0.037515
1630067069622,-0.49977299999999997,-0.869311,-0.037759
1630067069632,-0.500017,-0.868152,-0.037332
1630067069641,-0.499895,-0.868396,-0.03721
1630067069651,-0.49916299999999997,-0.868579,-0.038064
1630067069661,-0.49946799999999997,-0.867664,-0.038003
1630067069670,-0.499529,-0.867054,-0.037515
1630067069680,-0.500383,-0.867664,-0.037576
1630067069689,-0.500261,-0.868213,-0.037149
1630067069699,-0.502457,-0.869494,-0.037271
1630067069709,-0.501847,-0.868945,-0.038491
1630067069718,-0.501603,-0.868762,-0.039710999999999996
1630067069728,-0.501054,-0.868335,-0.039223
1630067069737,-0.503006,-0.868945,-0.038979
1630067069747,-0.501969,-0.869067,-0.037942
1630067069757,-0.50203,-0.868762,-0.038308
1630067069766,-0.501176,-0.869128,-0.037698
1630067069776,-0.501115,-0.869128,-0.038491
1630067069785,-0.500505,-0.868762,-0.038551999999999996
1630067069795,-0.500871,-0.868823,-0.038796
1630067069805,-0.5002,-0.866932,-0.038674
1630067069814,-0.501359,-0.866871,-0.038186
1630067069824,-0.502091,-0.866932,-0.037271
1630067069833,-0.501237,-0.867908,-0.035258
1630067069843,-0.50081,-0.868335,-0.033672
1630067069853,-0.50142,-0.870348,-0.03294
1630067069862,-0.500017,-0.868335,-0.032513
1630067069872,-0.499895,-0.8644919999999999,-0.033611
1630067069881,-0.501176,-0.864309,-0.033549999999999996
1630067069891,-0.503189,-0.869677,-0.03599
1630067069901,-0.504104,-0.872605,-0.03599
1630067069910,-0.504531,-0.87352,-0.037393
1630067069920,-0.503738,-0.87657,-0.040443
1630067069929,-0.502823,-0.8784,-0.043798
1630067069939,-0.502091,-0.8769359999999999,-0.045018
1630067069949,-0.501908,-0.871873,-0.043066
1630067069958,-0.499956,-0.86742,-0.041358
1630067069968,-0.498736,-0.864065,-0.039101
1630067069977,-0.496906,-0.8629669999999999,-0.036051
1630067069987,-0.496174,-0.8635769999999999,-0.034709
1630067069997,-0.495259,-0.866322,-0.034465
1630067070006,-0.495686,-0.867847,-0.033489
1630067070016,-0.494771,-0.870348,-0.03294
1630067070025,-0.494466,-0.870409,-0.032452
1630067070035,-0.494344,-0.869555,-0.030683
1630067070045,-0.49580799999999997,-0.868152,-0.02989
1630067070054,-0.495625,-0.867664,-0.029646
1630067070064,-0.496601,-0.867786,-0.030134
1630067070073,-0.49763799999999997,-0.868396,-0.032757
1630067070083,-0.498797,-0.869189,-0.034465
1630067070093,-0.499895,-0.869616,-0.036295
1630067070102,-0.50142,-0.870714,-0.038125
1630067070112,-0.501786,-0.870348,-0.037698
1630067070121,-0.502396,-0.871995,-0.039101
1630067070131,-0.501542,-0.8708359999999999,-0.038064
1630067070141,-0.500444,-0.866566,-0.037759
1630067070150,-0.500932,-0.864858,-0.035868
1630067070160,-0.500871,-0.867298,-0.036722
1630067070169,-0.501908,-0.86559,-0.035623999999999996
1630067070179,-0.502152,-0.866261,-0.036722
1630067070189,-0.50081,-0.870592,-0.038613
1630067070198,-0.500871,-0.873093,-0.039345
1630067070208,-0.50081,-0.87291,-0.038551999999999996
1630067070217,-0.501359,-0.871934,-0.036722
1630067070227,-0.502335,-0.870958,-0.035623999999999996
1630067070237,-0.502152,-0.870104,-0.034038
1630067070246,-0.501969,-0.869311,-0.033306
1630067070256,-0.503311,-0.869433,-0.033123
1630067070265,-0.503372,-0.869982,-0.033428
1630067070275,-0.502762,-0.8711409999999999,-0.034038
1630067070285,-0.501481,-0.872788,-0.034648
1630067070294,-0.501664,-0.872849,-0.035929
1630067070304,-0.500566,-0.8723609999999999,-0.036173
1630067070313,-0.500932,-0.8702259999999999,-0.035623999999999996
1630067070323,-0.500566,-0.869555,-0.036722
1630067070333,-0.499712,-0.867908,-0.037881
1630067070342,-0.499956,-0.866566,-0.037942
1630067070352,-0.499529,-0.8662,-0.038857
1630067070361,-0.500078,-0.866749,-0.039955
1630067070371,-0.49898,-0.865224,-0.039101
1630067070381,-0.500139,-0.865956,-0.038246999999999996
1630067070390,-0.501481,-0.8662,-0.038674
1630067070400,-0.501786,-0.867298,-0.038796
1630067070409,-0.501542,-0.867725,-0.037881
1630067070419,-0.501786,-0.867481,-0.037454
1630067070429,-0.502335,-0.867969,-0.036782999999999996
1630067070438,-0.501786,-0.868396,-0.036295
1630067070448,-0.502274,-0.86803,-0.036417
1630067070457,-0.501908,-0.86681,-0.035502
1630067070467,-0.50203,-0.867359,-0.034343
1630067070477,-0.502152,-0.867664,-0.035441
1630067070486,-0.502274,-0.866932,-0.035013999999999997
1630067070496,-0.502884,-0.867176,-0.035868
1630067070505,-0.502884,-0.867359,-0.036356
1630067070515,-0.501847,-0.865956,-0.035807
1630067070525,-0.502274,-0.866383,-0.036295
1630067070534,-0.502152,-0.867969,-0.036478
1630067070544,-0.502274,-0.868274,-0.036112
1630067070553,-0.502701,-0.868091,-0.035929
1630067070563,-0.501603,-0.869555,-0.036722
1630067070573,-0.502335,-0.86986,-0.034465
1630067070582,-0.501847,-0.870714,-0.034465
1630067070592,-0.501298,-0.871629,-0.033611
1630067070601,-0.50081,-0.872178,-0.033123
1630067070611,-0.501298,-0.871812,-0.033123
1630067070621,-0.500139,-0.8717509999999999,-0.033916
1630067070630,-0.500444,-0.871324,-0.033672
1630067070640,-0.500322,-0.870287,-0.033306
1630067070649,-0.499834,-0.869128,-0.034159999999999996
1630067070659,-0.49959,-0.868579,-0.033794
1630067070669,-0.498919,-0.868762,-0.033854999999999996
1630067070678,-0.499834,-0.869189,-0.034526
1630067070688,-0.499102,-0.869555,-0.034099
1630067070697,-0.499529,-0.870348,-0.033977
1630067070707,-0.499224,-0.86986,-0.034099
1630067070717,-0.499346,-0.8699209999999999,-0.033672
1630067070726,-0.49776,-0.869372,-0.034526
1630067070736,-0.500017,-0.869128,-0.035013999999999997
1630067070745,-0.499102,-0.867908,-0.035258
1630067070755,-0.49977299999999997,-0.869128,-0.035868
1630067070765,-0.498614,-0.868762,-0.036173
1630067070774,-0.49916299999999997,-0.86864,-0.036234
1630067070784,-0.499285,-0.869189,-0.0366
1630067070793,-0.499285,-0.868884,-0.03782
1630067070803,-0.49916299999999997,-0.868335,-0.037454
1630067070813,-0.500017,-0.868335,-0.037881
1630067070822,-0.499895,-0.868884,-0.037881
1630067070832,-0.501176,-0.868701,-0.037942
1630067070841,-0.499224,-0.86803,-0.037942
1630067070851,-0.499102,-0.868396,-0.036417
1630067070861,-0.498919,-0.868152,-0.03599
1630067070870,-0.499346,-0.86803,-0.035197
1630067070880,-0.499224,-0.86864,-0.035136
1630067070889,-0.5002,-0.868823,-0.03477
1630067070899,-0.50142,-0.869311,-0.033854999999999996
1630067070909,-0.502762,-0.869433,-0.033733
1630067070918,-0.50264,-0.8720559999999999,-0.033733
1630067070928,-0.502884,-0.870775,-0.033916
1630067070937,-0.501847,-0.870104,-0.035013999999999997
1630067070947,-0.502884,-0.870897,-0.034038
1630067070957,-0.502701,-0.870592,-0.034465
1630067070966,-0.501115,-0.865895,-0.034831
1630067070976,-0.501786,-0.861503,-0.033733
1630067070985,-0.504714,-0.866627,-0.035623999999999996
1630067070995,-0.505507,-0.87047,-0.036173
1630067071005,-0.50569,-0.871568,-0.035929
1630067071014,-0.50508,-0.874557,-0.03782
1630067071024,-0.50447,-0.8781559999999999,-0.03904
1630067071033,-0.503982,-0.8778509999999999,-0.037576
1630067071043,-0.503494,-0.8735809999999999,-0.035623999999999996
1630067071053,-0.502091,-0.869738,-0.033916
1630067071062,-0.500566,-0.867908,-0.032390999999999996
1630067071072,-0.499651,-0.867054,-0.031659
1630067071081,-0.49824799999999997,-0.866322,-0.031476
1630067071091,-0.498309,-0.866383,-0.03111
1630067071101,-0.495747,-0.867359,-0.031354
1630067071110,-0.495076,-0.868457,-0.030560999999999998
1630067071120,-0.494527,-0.868579,-0.02989
1630067071129,-0.493612,-0.866932,-0.029768
1630067071139,-0.494527,-0.867054,-0.029585
1630067071149,-0.494222,-0.867176,-0.02928
1630067071158,-0.49532,-0.865895,-0.02867
1630067071168,-0.496479,-0.867664,-0.028731
1630067071177,-0.497516,-0.868335,-0.030195
1630067071187,-0.49776,-0.86986,-0.030927
1630067071197,-0.49885799999999997,-0.870897,-0.032085999999999996
1630067071206,-0.500078,-0.8723609999999999,-0.032085999999999996
1630067071216,-0.501054,-0.87413,-0.032695999999999996
1630067071225,-0.498675,-0.871873,-0.031598
1630067071235,-0.49776,-0.866688,-0.030195
1630067071245,-0.498736,-0.867237,-0.029707
1630067071254,-0.498736,-0.86986,-0.029646
1630067071264,-0.499407,-0.868091,-0.02867
1630067071273,-0.49898,-0.868396,-0.030195
1630067071283,-0.499956,-0.872117,-0.031842
1630067071293,-0.499407,-0.87474,-0.034282
1630067071302,-0.499834,-0.8744959999999999,-0.035623999999999996
1630067071312,-0.500932,-0.872422,-0.035197
1630067071321,-0.500261,-0.8699209999999999,-0.033854999999999996
1630067071331,-0.500688,-0.868945,-0.033245
1630067071341,-0.500505,-0.869189,-0.031232
1630067071350,-0.501115,-0.870165,-0.03111
1630067071360,-0.501176,-0.870775,-0.031232
1630067071369,-0.500932,-0.872727,-0.032390999999999996
1630067071379,-0.500688,-0.874008,-0.032269
1630067071389,-0.500505,-0.873825,-0.032574
1630067071398,-0.500322,-0.873337,-0.032695999999999996
1630067071408,-0.502091,-0.872849,-0.032085999999999996
1630067071417,-0.501237,-0.87169,-0.032818
1630067071427,-0.501481,-0.869494,-0.034038
1630067071437,-0.501603,-0.86864,-0.034709
1630067071446,-0.500444,-0.867969,-0.035441
1630067071456,-0.500932,-0.866993,-0.037271
1630067071465,-0.500688,-0.866383,-0.03782
1630067071475,-0.501237,-0.866505,-0.038308
1630067071485,-0.501786,-0.866444,-0.03904
1630067071494,-0.500871,-0.866322,-0.039772
1630067071504,-0.501359,-0.866993,-0.039894
1630067071513,-0.501481,-0.867298,-0.039894
1630067071523,-0.500078,-0.867542,-0.039345
1630067071533,-0.500566,-0.866627,-0.03721
1630067071542,-0.501054,-0.8662,-0.036905
1630067071552,-0.500078,-0.866261,-0.036234
1630067071561,-0.499529,-0.865895,-0.03477
1630067071571,-0.500505,-0.866139,-0.034465
1630067071581,-0.500322,-0.865834,-0.033306
1630067071590,-0.500078,-0.867115,-0.033794
1630067071600,-0.501115,-0.867786,-0.034221
1630067071609,-0.500688,-0.868213,-0.033977
1630067071619,-0.501237,-0.868762,-0.034648
1630067071629,-0.501054,-0.869677,-0.035318999999999996
1630067071638,-0.500749,-0.869372,-0.034526
1630067071648,-0.501542,-0.86925,-0.034709
1630067071657,-0.501969,-0.868396,-0.033428
1630067071667,-0.501115,-0.869555,-0.033611
1630067071677,-0.500993,-0.870653,-0.033733
1630067071686,-0.50081,-0.87108,-0.032695999999999996
1630067071696,-0.500505,-0.871263,-0.033001
1630067071705,-0.500932,-0.870775,-0.033062
1630067071715,-0.500322,-0.872422,-0.032695999999999996
1630067071725,-0.499346,-0.872788,-0.031903
1630067071734,-0.49977299999999997,-0.873032,-0.030622
1630067071744,-0.499102,-0.8732759999999999,-0.029768
1630067071753,-0.498614,-0.873032,-0.028975
1630067071763,-0.49885799999999997,-0.872117,-0.028609
1630067071773,-0.49794299999999997,-0.8711409999999999,-0.028243
1630067071782,-0.497272,-0.8702259999999999,-0.027938
1630067071792,-0.498126,-0.869677,-0.027632999999999998
1630067071801,-0.498004,-0.86925,-0.027572
1630067071811,-0.49855299999999997,-0.869677,-0.028121
1630067071821,-0.49824799999999997,-0.870653,-0.028304
1630067071830,-0.499285,-0.869555,-0.028975
1630067071840,-0.5002,-0.869006,-0.030560999999999998
1630067071849,-0.500749,-0.870409,-0.031537
1630067071859,-0.500688,-0.869189,-0.033245
1630067071869,-0.500566,-0.867786,-0.033733
1630067071878,-0.500993,-0.867603,-0.034282
1630067071888,-0.501725,-0.865895,-0.034892
1630067071897,-0.502091,-0.866383,-0.034892
1630067071907,-0.501237,-0.866139,-0.034526
1630067071917,-0.501359,-0.866505,-0.035318999999999996
1630067071926,-0.501603,-0.866444,-0.036417
1630067071936,-0.502518,-0.865956,-0.0366
1630067071945,-0.503128,-0.865224,-0.035807
1630067071955,-0.503433,-0.865529,-0.03538
1630067071965,-0.503372,-0.866505,-0.035013999999999997
1630067071974,-0.503677,-0.867176,-0.034099
1630067071984,-0.50325,-0.867054,-0.033062
1630067071993,-0.503494,-0.866627,-0.031964
1630067072003,-0.503311,-0.865041,-0.032452
1630067072013,-0.501542,-0.8620519999999999,-0.031903
1630067072022,-0.503433,-0.861259,-0.032390999999999996
1630067072032,-0.506056,-0.8662,-0.033733
1630067072041,-0.50752,-0.870653,-0.03477
1630067072051,-0.507215,-0.87291,-0.037637
1630067072061,-0.506544,-0.8763259999999999,-0.039772
1630067072070,-0.506178,-0.877973,-0.041846
1630067072080,-0.505446,-0.876997,-0.041358
1630067072089,-0.504958,-0.8723609999999999,-0.04026
1630067072099,-0.503433,-0.867542,-0.037576
1630067072109,-0.500383,-0.865468,-0.03538
1630067072118,-0.499834,-0.864919,-0.033306
1630067072128,-0.499346,-0.864858,-0.033123
1630067072137,-0.499224,-0.866688,-0.031964
1630067072147,-0.49794299999999997,-0.869616,-0.031537
1630067072157,-0.495991,-0.8714459999999999,-0.030622
1630067072166,-0.495137,-0.87108,-0.030012
1630067072176,-0.496174,-0.869738,-0.029036
1630067072185,-0.496235,-0.867664,-0.028853
1630067072195,-0.497821,-0.867176,-0.029828999999999998
1630067072205,-0.498492,-0.865346,-0.031171
1630067072214,-0.498919,-0.866993,-0.031903
1630067072224,-0.500017,-0.868274,-0.034587
1630067072233,-0.499956,-0.869494,-0.035075
1630067072243,-0.50203,-0.869189,-0.036478
1630067072253,-0.502884,-0.870104,-0.037027
1630067072262,-0.503189,-0.871324,-0.038551999999999996
1630067072272,-0.501664,-0.869799,-0.038674
1630067072281,-0.502274,-0.864126,-0.037637
1630067072291,-0.503128,-0.8638819999999999,-0.036417
1630067072301,-0.503372,-0.866017,-0.036478
1630067072310,-0.502518,-0.864614,-0.034892
1630067072320,-0.502152,-0.865224,-0.035563
1630067072329,-0.501542,-0.869555,-0.038857
1630067072339,-0.502091,-0.873825,-0.04026
1630067072349,-0.502091,-0.873032,-0.039406
1630067072358,-0.501603,-0.870775,-0.03721
1630067072368,-0.502457,-0.868457,-0.035197
1630067072377,-0.500871,-0.868335,-0.033489
1630067072387,-0.501298,-0.86742,-0.032635
1630067072397,-0.501725,-0.868152,-0.030987999999999998
1630067072406,-0.500566,-0.869616,-0.031171
1630067072416,-0.500078,-0.8717509999999999,-0.030987999999999998
1630067072425,-0.499346,-0.873459,-0.032085999999999996
1630067072435,-0.5002,-0.874008,-0.031964
1630067072445,-0.500993,-0.8735809999999999,-0.032695999999999996
1630067072454,-0.49959,-0.8723609999999999,-0.03233
1630067072464,-0.499651,-0.87169,-0.032757
1630067072473,-0.498614,-0.870348,-0.032635
1630067072483,-0.49824799999999997,-0.869067,-0.032818
1630067072493,-0.49794299999999997,-0.867969,-0.032879
1630067072502,-0.498797,-0.867725,-0.032818
1630067072512,-0.498614,-0.867725,-0.034343
1630067072521,-0.498797,-0.86742,-0.035868
1630067072531,-0.498614,-0.868213,-0.035563
1630067072541,-0.499346,-0.868274,-0.035685
1630067072550,-0.499224,-0.868884,-0.034831
1630067072560,-0.498492,-0.869189,-0.034221
1630067072569,-0.498919,-0.869494,-0.033489
1630067072579,-0.49946799999999997,-0.869128,-0.032208
1630067072589,-0.49916299999999997,-0.868579,-0.031415
1630067072598,-0.499041,-0.867786,-0.031476
1630067072608,-0.499224,-0.86742,-0.032269
1630067072617,-0.49977299999999997,-0.867359,-0.031537
1630067072627,-0.500627,-0.867664,-0.032085999999999996
1630067072637,-0.500139,-0.867969,-0.03172
1630067072646,-0.501054,-0.867908,-0.032818
1630067072656,-0.501786,-0.869372,-0.033245
1630067072665,-0.502701,-0.868884,-0.034465
1630067072675,-0.502274,-0.868945,-0.033184
1630067072685,-0.502274,-0.869311,-0.033489
1630067072694,-0.502335,-0.86925,-0.035013999999999997
1630067072704,-0.502945,-0.870165,-0.034343
1630067072713,-0.503311,-0.870043,-0.034038
1630067072723,-0.503311,-0.870348,-0.034953
1630067072733,-0.502335,-0.870714,-0.034648
1630067072742,-0.502396,-0.870592,-0.034221
1630067072752,-0.501542,-0.869799,-0.032452
1630067072761,-0.501298,-0.869799,-0.03233
1630067072771,-0.501298,-0.87047,-0.031842
1630067072781,-0.500566,-0.8702259999999999,-0.032390999999999996
1630067072790,-0.500932,-0.869616,-0.032635
1630067072800,-0.500688,-0.870104,-0.031842
1630067072809,-0.500078,-0.8705309999999999,-0.032574
1630067072819,-0.500078,-0.869311,-0.03294
1630067072829,-0.500261,-0.869372,-0.033184
1630067072838,-0.49977299999999997,-0.868701,-0.033733
1630067072848,-0.500627,-0.869067,-0.034526
1630067072857,-0.501481,-0.868945,-0.034343
1630067072867,-0.501359,-0.868823,-0.035318999999999996
1630067072877,-0.50081,-0.869067,-0.036478
1630067072886,-0.501176,-0.868762,-0.0366
1630067072896,-0.502457,-0.868396,-0.038308
1630067072905,-0.501908,-0.868274,-0.038674
1630067072915,-0.50081,-0.867786,-0.038246999999999996
1630067072925,-0.501237,-0.866627,-0.037698
1630067072934,-0.501603,-0.867298,-0.037942
1630067072944,-0.500627,-0.86559,-0.037759
1630067072953,-0.500993,-0.866078,-0.038491
1630067072963,-0.501054,-0.8662,-0.038735
1630067072973,-0.502823,-0.866017,-0.039162
1630067072982,-0.50264,-0.865834,-0.039528
1630067072992,-0.502457,-0.866444,-0.039467
1630067073001,-0.503311,-0.866505,-0.038064
1630067073011,-0.503494,-0.867115,-0.036722
1630067073021,-0.503433,-0.8662,-0.034892
1630067073030,-0.501603,-0.862723,-0.034892
1630067073040,-0.501298,-0.860588,-0.033489
1630067073049,-0.503555,-0.862784,-0.033611
1630067073059,-0.506178,-0.868518,-0.03538
1630067073069,-0.506422,-0.872544,-0.036661
1630067073078,-0.507093,-0.875838,-0.038735
1630067073088,-0.505324,-0.879254,-0.042029
1630067073097,-0.50569,-0.8787659999999999,-0.043248999999999996
1630067073107,-0.504714,-0.87474,-0.041419
1630067073117,-0.503433,-0.869677,-0.038613
1630067073126,-0.501481,-0.866505,-0.037027
1630067073136,-0.499224,-0.86437,-0.033733
1630067073145,-0.49898,-0.863394,-0.032635
1630067073155,-0.498492,-0.865651,-0.031476
1630067073165,-0.496479,-0.868335,-0.030866
1630067073174,-0.49593,-0.8714459999999999,-0.030987999999999998
1630067073184,-0.495686,-0.8723609999999999,-0.0305
1630067073193,-0.49611299999999997,-0.871263,-0.029646
1630067073203,-0.496174,-0.8699209999999999,-0.02928
1630067073213,-0.49702799999999997,-0.869311,-0.029036
1630067073222,-0.497089,-0.867725,-0.02928
1630067073232,-0.498614,-0.866871,-0.030987999999999998
1630067073241,-0.499346,-0.867176,-0.032147
1630067073251,-0.500444,-0.866993,-0.034343
1630067073261,-0.501054,-0.867908,-0.035685
1630067073270,-0.50203,-0.867786,-0.036234
1630067073280,-0.502884,-0.870958,-0.038308
1630067073289,-0.502396,-0.870165,-0.038857
1630067073299,-0.502579,-0.865956,-0.036722
1630067073309,-0.502701,-0.863821,-0.036905
1630067073318,-0.503494,-0.866078,-0.036782999999999996
1630067073328,-0.503982,-0.866688,-0.03538
1630067073337,-0.503372,-0.863333,-0.03477
1630067073347,-0.503494,-0.867115,-0.035807
1630067073357,-0.502762,-0.8720559999999999,-0.037332
1630067073366,-0.502396,-0.8732759999999999,-0.038857
1630067073376,-0.502091,-0.871812,-0.038613
1630067073385,-0.502579,-0.869616,-0.036661
1630067073395,-0.502274,-0.867176,-0.035685
1630067073405,-0.502762,-0.865956,-0.034404
1630067073414,-0.502396,-0.865834,-0.033549999999999996
1630067073424,-0.503311,-0.86742,-0.033611
1630067073433,-0.502701,-0.869982,-0.033672
1630067073443,-0.503128,-0.871568,-0.033794
1630067073453,-0.502091,-0.873093,-0.034892
1630067073462,-0.502396,-0.873337,-0.035075
1630067073472,-0.502457,-0.873642,-0.034953
1630067073481,-0.502457,-0.871263,-0.034526
1630067073491,-0.501969,-0.8702259999999999,-0.034831
1630067073501,-0.501176,-0.868396,-0.035868
1630067073510,-0.500993,-0.867481,-0.037149
1630067073520,-0.500688,-0.867298,-0.037149
1630067073529,-0.501176,-0.86681,-0.037332
1630067073539,-0.500505,-0.865468,-0.038186
1630067073549,-0.5002,-0.866444,-0.039284
1630067073558,-0.501603,-0.865834,-0.039223
1630067073568,-0.500932,-0.867298,-0.039589
1630067073577,-0.501725,-0.867542,-0.038918
1630067073587,-0.501664,-0.866749,-0.039528
1630067073597,-0.501847,-0.865773,-0.03782
1630067073606,-0.501054,-0.866444,-0.03721
1630067073616,-0.501359,-0.865468,-0.036478
1630067073625,-0.501664,-0.865712,-0.035197
1630067073635,-0.502091,-0.865834,-0.035318999999999996
1630067073645,-0.502396,-0.866566,-0.035258
1630067073654,-0.502213,-0.86742,-0.035868
1630067073664,-0.503006,-0.866322,-0.03538
1630067073673,-0.503189,-0.866261,-0.036051
1630067073683,-0.50325,-0.867359,-0.03721
1630067073693,-0.50325,-0.867542,-0.037454
1630067073702,-0.503738,-0.86803,-0.036905
1630067073712,-0.503677,-0.86803,-0.0366
1630067073721,-0.50386,-0.868396,-0.036417
1630067073731,-0.50386,-0.867725,-0.037149
1630067073741,-0.503372,-0.869616,-0.035685
1630067073750,-0.504104,-0.869494,-0.035441
1630067073760,-0.503616,-0.8699209999999999,-0.035197
1630067073769,-0.50325,-0.869799,-0.034953
1630067073779,-0.502152,-0.868701,-0.034343
1630067073789,-0.502518,-0.869006,-0.032757
1630067073798,-0.50203,-0.868945,-0.031598
1630067073808,-0.501298,-0.869067,-0.032147
1630067073817,-0.501237,-0.869067,-0.031903
1630067073827,-0.501359,-0.870043,-0.031659
1630067073837,-0.500749,-0.86925,-0.032513
1630067073846,-0.501969,-0.869006,-0.032025
1630067073856,-0.501969,-0.868701,-0.033062
1630067073865,-0.502823,-0.869433,-0.034099
1630067073875,-0.502518,-0.868274,-0.034831
1630067073885,-0.501786,-0.868518,-0.035623999999999996
1630067073894,-0.502457,-0.867786,-0.036966
1630067073904,-0.501908,-0.866871,-0.036722
1630067073913,-0.501908,-0.867298,-0.037087999999999996
1630067073923,-0.501603,-0.867115,-0.036478
1630067073933,-0.501664,-0.867176,-0.0366
1630067073942,-0.501237,-0.867603,-0.036417
1630067073952,-0.501298,-0.867115,-0.036234
1630067073961,-0.502823,-0.866627,-0.03599
1630067073971,-0.502579,-0.865834,-0.036295
1630067073981,-0.502701,-0.866932,-0.036417
1630067073990,-0.502762,-0.866932,-0.034587
1630067074000,-0.502823,-0.867542,-0.034831
1630067074009,-0.502457,-0.86681,-0.032695999999999996
1630067074019,-0.502213,-0.863394,-0.03172
1630067074029,-0.502152,-0.8605269999999999,-0.031964
1630067074038,-0.504409,-0.862418,-0.033367
1630067074048,-0.505995,-0.867481,-0.034648
1630067074057,-0.507764,-0.8711409999999999,-0.036112
1630067074067,-0.507459,-0.87474,-0.038918
1630067074077,-0.5063,-0.876875,-0.042212
1630067074086,-0.505934,-0.877729,-0.043066
1630067074096,-0.50569,-0.8735809999999999,-0.042638999999999996
1630067074105,-0.504592,-0.869311,-0.040626
1630067074115,-0.504104,-0.864919,-0.037942
1630067074125,-0.501664,-0.862784,-0.036966
1630067074134,-0.500566,-0.862235,-0.033916
1630067074144,-0.500139,-0.863516,-0.032818
1630067074153,-0.49898,-0.865956,-0.031598
1630067074163,-0.498309,-0.870043,-0.030560999999999998
1630067074173,-0.498431,-0.871812,-0.030439
1630067074182,-0.497394,-0.87047,-0.030012
1630067074192,-0.498431,-0.869738,-0.029523999999999998
1630067074201,-0.497577,-0.868762,-0.030439
1630067074211,-0.49837,-0.866932,-0.031598
1630067074221,-0.500444,-0.86681,-0.032757
1630067074230,-0.50081,-0.866261,-0.033916
1630067074240,-0.500505,-0.865834,-0.035502
1630067074249,-0.503006,-0.866444,-0.037576
1630067074259,-0.504531,-0.86681,-0.038674
1630067074269,-0.505019,-0.869616,-0.039162
1630067074278,-0.504775,-0.86986,-0.041053
1630067074288,-0.504531,-0.866078,-0.038918
1630067074297,-0.504592,-0.8644919999999999,-0.038674
1630067074307,-0.50569,-0.866383,-0.038003
1630067074317,-0.50569,-0.866078,-0.037637
1630067074326,-0.506666,-0.863821,-0.035929
1630067074336,-0.504836,-0.865834,-0.034709
1630067074345,-0.504836,-0.8705309999999999,-0.037576
1630067074355,-0.50386,-0.871873,-0.038918
1630067074365,-0.503494,-0.870287,-0.038918
1630067074374,-0.504592,-0.868701,-0.039284
1630067074384,-0.503982,-0.8662,-0.0366
1630067074393,-0.503006,-0.866017,-0.035929
1630067074403,-0.504165,-0.865529,-0.034709
1630067074413,-0.505141,-0.866383,-0.035013999999999997
1630067074422,-0.504104,-0.867847,-0.036234
1630067074432,-0.503921,-0.869433,-0.037576
1630067074441,-0.503494,-0.8711409999999999,-0.037576
1630067074451,-0.50386,-0.8723609999999999,-0.038551999999999996
1630067074461,-0.503189,-0.870714,-0.038491
1630067074470,-0.50264,-0.869494,-0.038186
1630067074480,-0.503433,-0.868335,-0.038308
1630067074489,-0.500688,-0.867847,-0.038369
1630067074499,-0.5002,-0.866505,-0.038125
1630067074509,-0.500383,-0.86559,-0.037942
1630067074518,-0.499834,-0.865529,-0.038369
1630067074528,-0.500566,-0.866871,-0.038246999999999996
1630067074537,-0.499651,-0.867176,-0.038308
1630067074547,-0.500444,-0.866566,-0.037087999999999996
1630067074557,-0.50142,-0.866688,-0.037149
1630067074566,-0.501908,-0.867054,-0.036844
1630067074576,-0.501969,-0.866871,-0.037698
1630067074585,-0.502213,-0.868091,-0.035868
1630067074595,-0.50203,-0.868579,-0.037332
1630067074605,-0.501786,-0.867847,-0.036417
1630067074614,-0.501725,-0.867359,-0.035807
1630067074624,-0.50203,-0.867359,-0.035807
1630067074633,-0.502335,-0.866871,-0.035502
1630067074643,-0.502762,-0.866383,-0.034831
1630067074653,-0.502884,-0.866749,-0.035075
1630067074662,-0.503067,-0.867481,-0.03477
1630067074672,-0.501847,-0.868152,-0.034526
1630067074681,-0.502762,-0.867542,-0.035013999999999997
1630067074691,-0.502396,-0.869067,-0.035441
1630067074701,-0.502762,-0.868884,-0.035868
1630067074710,-0.50264,-0.868823,-0.035623999999999996
1630067074720,-0.502762,-0.869982,-0.035807
1630067074729,-0.503006,-0.8702259999999999,-0.035623999999999996
1630067074739,-0.502213,-0.869494,-0.035746
1630067074749,-0.501664,-0.869616,-0.036295
1630067074758,-0.502274,-0.869799,-0.035136
1630067074768,-0.502701,-0.869677,-0.035502
1630067074777,-0.502457,-0.870043,-0.035746
1630067074787,-0.502091,-0.870775,-0.035623999999999996
1630067074797,-0.501054,-0.870104,-0.03538
1630067074806,-0.50081,-0.868884,-0.035502
1630067074816,-0.5002,-0.869372,-0.035807
1630067074825,-0.500871,-0.869677,-0.036782999999999996
1630067074835,-0.500505,-0.869128,-0.036112
1630067074845,-0.49959,-0.86803,-0.036478
1630067074854,-0.499285,-0.868579,-0.037027
1630067074864,-0.499529,-0.868884,-0.036722
1630067074873,-0.49946799999999997,-0.869006,-0.037332
1630067074883,-0.498919,-0.868457,-0.037271
1630067074893,-0.500261,-0.86803,-0.03721
1630067074902,-0.501847,-0.868274,-0.03721
1630067074912,-0.500749,-0.868396,-0.037454
1630067074921,-0.500322,-0.867237,-0.037698
1630067074931,-0.500932,-0.868152,-0.037576
1630067074941,-0.499712,-0.867359,-0.038735
1630067074950,-0.498614,-0.862479,-0.038491
1630067074960,-0.499834,-0.8586969999999999,-0.036782999999999996
1630067074969,-0.501969,-0.86376,-0.03904
1630067074979,-0.503067,-0.86925,-0.040809
1630067074989,-0.504592,-0.870165,-0.042334
1630067074998,-0.50386,-0.8726659999999999,-0.043188
1630067075008,-0.504165,-0.876814,-0.043493
1630067075017,-0.504653,-0.8763259999999999,-0.043066
1630067075027,-0.504104,-0.873337,-0.040931
1630067075037,-0.502274,-0.869372,-0.038003
1630067075046,-0.501664,-0.865834,-0.035746
1630067075056,-0.500444,-0.864248,-0.035075
1630067075065,-0.500139,-0.865285,-0.034159999999999996
1630067075075,-0.499407,-0.865712,-0.035563
1630067075085,-0.498492,-0.869128,-0.035563
1630067075094,-0.497699,-0.870165,-0.035258
1630067075104,-0.496662,-0.870592,-0.034892
1630067075113,-0.497882,-0.869433,-0.034587
1630067075123,-0.49776,-0.868884,-0.033367
1630067075133,-0.49885799999999997,-0.867542,-0.033306
1630067075142,-0.49855299999999997,-0.868152,-0.034465
1630067075152,-0.497821,-0.868335,-0.035136
1630067075161,-0.499407,-0.869311,-0.036844
1630067075171,-0.499224,-0.868884,-0.036844
1630067075181,-0.500566,-0.870348,-0.037027
1630067075190,-0.500627,-0.8720559999999999,-0.037149
1630067075200,-0.499956,-0.872422,-0.037332
1630067075209,-0.49977299999999997,-0.868335,-0.035685
1630067075219,-0.500017,-0.868396,-0.035563
1630067075229,-0.5002,-0.870287,-0.035502
1630067075238,-0.500688,-0.869372,-0.034892
1630067075248,-0.500871,-0.867359,-0.033794
1630067075257,-0.499895,-0.87047,-0.035807
1630067075267,-0.499651,-0.872422,-0.036356
1630067075277,-0.50081,-0.873398,-0.037881
1630067075286,-0.50142,-0.8723,-0.038064
1630067075296,-0.500993,-0.869494,-0.036844
1630067075305,-0.501237,-0.866749,-0.035258
1630067075315,-0.50081,-0.866078,-0.034404
1630067075325,-0.502213,-0.867908,-0.03538
1630067075334,-0.501725,-0.868335,-0.03538
1630067075344,-0.502457,-0.870592,-0.035502
1630067075353,-0.504104,-0.872239,-0.037271
1630067075363,-0.503128,-0.872544,-0.037881
1630067075373,-0.503494,-0.871995,-0.036295
1630067075382,-0.50264,-0.870592,-0.037149
1630067075392,-0.501237,-0.869311,-0.036782999999999996
1630067075401,-0.50203,-0.869555,-0.037454
1630067075411,-0.500505,-0.86925,-0.036112
1630067075421,-0.501054,-0.868579,-0.037576
1630067075430,-0.500627,-0.867969,-0.036782999999999996
1630067075440,-0.499956,-0.867359,-0.036844
1630067075449,-0.49959,-0.868396,-0.036966
1630067075459,-0.498675,-0.868945,-0.037698
1630067075469,-0.49824799999999997,-0.869128,-0.038246999999999996
1630067075478,-0.498492,-0.868945,-0.03904
1630067075488,-0.49837,-0.868579,-0.03904
1630067075497,-0.49837,-0.867359,-0.037149
1630067075507,-0.498126,-0.867664,-0.037393
1630067075517,-0.49824799999999997,-0.867786,-0.037332
1630067075526,-0.49824799999999997,-0.867908,-0.036782999999999996
1630067075536,-0.49776,-0.869067,-0.035807
1630067075545,-0.49763799999999997,-0.868823,-0.035258
1630067075555,-0.49733299999999997,-0.8699209999999999,-0.034709
1630067075565,-0.498492,-0.869372,-0.033733
1630067075574,-0.49776,-0.870348,-0.034526
1630067075584,-0.498309,-0.870592,-0.033611
1630067075593,-0.49855299999999997,-0.871873,-0.034099
1630067075603,-0.498736,-0.871385,-0.035563
1630067075613,-0.49946799999999997,-0.87169,-0.036112
1630067075622,-0.499712,-0.871019,-0.035929
1630067075632,-0.498126,-0.871507,-0.036051
1630067075641,-0.49837,-0.870104,-0.03538
1630067075651,-0.498004,-0.87047,-0.037027
1630067075661,-0.498004,-0.869677,-0.036782999999999996
1630067075670,-0.496967,-0.870104,-0.036844
1630067075680,-0.497089,-0.870165,-0.036722
1630067075689,-0.496967,-0.8711409999999999,-0.036173
1630067075699,-0.496357,-0.871324,-0.034709
1630067075709,-0.497211,-0.871324,-0.033123
