timestamp,ax,ay,az
1631021159152,-0.192516,0.745664,0.641842
1631021159161,-0.19215,0.746579,0.6402559999999999
1631021159171,-0.191296,0.747311,0.641415
1631021159181,-0.191845,0.74786,0.6417809999999999
1631021159190,-0.19093,0.746945,0.640683
1631021159200,-0.191296,0.746701,0.640622
1631021159209,-0.191967,0.745542,0.639158
1631021159219,-0.192211,0.74481,0.63928
1631021159229,-0.190991,0.744383,0.639219
1631021159238,-0.191357,0.744444,0.638182
1631021159248,-0.19117399999999998,0.745054,0.637633
1631021159257,-0.192028,0.7434069999999999,0.637633
1631021159267,-0.191845,0.744017,0.638609
1631021159277,-0.191601,0.743895,0.639158
1631021159286,-0.191845,0.7442,0.639158
1631021159296,-0.192211,0.74481,0.63989
1631021159305,-0.19215,0.744261,0.640439
1631021159315,-0.192455,0.745054,0.64233
1631021159325,-0.193065,0.744627,0.642452
1631021159334,-0.193126,0.745237,0.64233
1631021159344,-0.192028,0.746091,0.643855
1631021159353,-0.19337,0.747677,0.6448309999999999
1631021159363,-0.192455,0.746945,0.643794
1631021159373,-0.194041,0.745969,0.6423909999999999
1631021159382,-0.19428499999999999,0.74725,0.642818
1631021159392,-0.193431,0.747799,0.642452
1631021159401,-0.19367499999999999,0.746335,0.641842
1631021159411,-0.194102,0.745481,0.6408659999999999
1631021159421,-0.193004,0.744871,0.640439
1631021159430,-0.193126,0.743712,0.640683
1631021159440,-0.192028,0.744017,0.641903
1631021159449,-0.192699,0.7431019999999999,0.642025
1631021159459,-0.193065,0.741089,0.643184
1631021159469,-0.192943,0.740174,0.6433059999999999
1631021159478,-0.192089,0.740845,0.642879
1631021159488,-0.192821,0.741333,0.642452
1631021159497,-0.192272,0.739686,0.642818
1631021159507,-0.191967,0.73993,0.643489
1631021159517,-0.191845,0.74054,0.644282
1631021159526,-0.19093,0.7403569999999999,0.645563
1631021159536,-0.191296,0.740601,0.645685
1631021159545,-0.19147899999999998,0.739991,0.646539
1631021159555,-0.191235,0.738893,0.647881
1631021159565,-0.191113,0.739198,0.64965
1631021159574,-0.191418,0.7406619999999999,0.651297
1631021159584,-0.191906,0.741394,0.651297
1631021159593,-0.192333,0.741516,0.649711
1631021159603,-0.19276,0.740235,0.649162
1631021159613,-0.192577,0.7379169999999999,0.649528
1631021159622,-0.192333,0.7391369999999999,0.650077
1631021159632,-0.191235,0.7418819999999999,0.650138
1631021159641,-0.19086899999999998,0.741821,0.648247
1631021159651,-0.191235,0.742858,0.646966
1631021159661,-0.190137,0.744566,0.646783
1631021159670,-0.19032,0.742004,0.646722
1631021159680,-0.192028,0.737124,0.645929
1631021159689,-0.192333,0.734806,0.6466
1631021159699,-0.191418,0.7357819999999999,0.647942
1631021159709,-0.191967,0.7373069999999999,0.648857
1631021159718,-0.191418,0.738344,0.649711
1631021159728,-0.19178399999999998,0.739808,0.650199
1631021159737,-0.192333,0.7406619999999999,0.649894
1631021159747,-0.193065,0.741638,0.649772
1631021159757,-0.192272,0.740113,0.649528
1631021159766,-0.193614,0.739991,0.647637
1631021159776,-0.193858,0.738344,0.647027
1631021159785,-0.193553,0.739503,0.646112
1631021159795,-0.194529,0.741211,0.645014
1631021159805,-0.19337,0.741943,0.643367
1631021159814,-0.19367499999999999,0.74237,0.643428
1631021159824,-0.193187,0.7412719999999999,0.642879
1631021159833,-0.193492,0.740174,0.6430009999999999
1631021159843,-0.19397999999999999,0.740174,0.6436109999999999
1631021159853,-0.19428499999999999,0.740784,0.643794
1631021159862,-0.194163,0.740906,0.64477
1631021159872,-0.193065,0.741028,0.646112
1631021159881,-0.194712,0.739625,0.647271
1631021159891,-0.194712,0.73932,0.647088
1631021159901,-0.194102,0.742736,0.645929
1631021159910,-0.193004,0.744871,0.646173
1631021159920,-0.193858,0.7427969999999999,0.6442209999999999
1631021159929,-0.194468,0.73993,0.643489
1631021159939,-0.194468,0.738954,0.643794
1631021159949,-0.193797,0.740784,0.644404
1631021159958,-0.194041,0.7424919999999999,0.644343
1631021159968,-0.192394,0.743285,0.64477
1631021159977,-0.192943,0.744139,0.6445259999999999
1631021159987,-0.193492,0.743834,0.6445259999999999
1631021159997,-0.192516,0.7442,0.645197
1631021160006,-0.192821,0.743834,0.646295
1631021160016,-0.192699,0.7427969999999999,0.646539
1631021160025,-0.193736,0.742248,0.646112
1631021160035,-0.192211,0.741943,0.646112
1631021160045,-0.193065,0.74176,0.646234
1631021160054,-0.193553,0.74237,0.646112
1631021160064,-0.192638,0.7418819999999999,0.647271
1631021160073,-0.193004,0.742248,0.646783
1631021160083,-0.193492,0.741394,0.645685
1631021160093,-0.192882,0.7412719999999999,0.644648
1631021160102,-0.194102,0.741821,0.643794
1631021160112,-0.193736,0.74176,0.644404
1631021160121,-0.193736,0.7421869999999999,0.644404
1631021160131,-0.193736,0.743163,0.644709
1631021160141,-0.193248,0.744261,0.64416
1631021160150,-0.193614,0.743834,0.644465
1631021160160,-0.193065,0.743529,0.64355
1631021160169,-0.192455,0.744566,0.643184
1631021160179,-0.192455,0.7424919999999999,0.641354
1631021160189,-0.193004,0.742919,0.63989
1631021160198,-0.192882,0.743529,0.639219
1631021160208,-0.193309,0.743285,0.638304
1631021160217,-0.192943,0.74298,0.63806
1631021160227,-0.193004,0.743468,0.638548
1631021160237,-0.19154,0.742614,0.6396459999999999
1631021160246,-0.19178399999999998,0.743651,0.641232
1631021160256,-0.189893,0.743163,0.641598
1631021160265,-0.18995399999999998,0.742736,0.64294
1631021160275,-0.190442,0.741638,0.64416
1631021160285,-0.190076,0.741516,0.64477
1631021160294,-0.189588,0.741943,0.644404
1631021160304,-0.189527,0.741943,0.645502
1631021160313,-0.188246,0.74054,0.645685
1631021160323,-0.187697,0.740845,0.646051
1631021160333,-0.18903899999999998,0.741455,0.6445259999999999
1631021160342,-0.1891,0.7415769999999999,0.64538
1631021160352,-0.189222,0.741638,0.647332
1631021160361,-0.188612,0.7424919999999999,0.650321
1631021160371,-0.18849,0.743712,0.651968
1631021160381,-0.18812399999999999,0.744444,0.651602
1631021160390,-0.18964899999999998,0.743651,0.650992
1631021160400,-0.18964899999999998,0.741028,0.649528
1631021160409,-0.1891,0.741516,0.646844
1631021160419,-0.18971,0.744383,0.646844
1631021160429,-0.18995399999999998,0.74481,0.643977
1631021160438,-0.189466,0.74542,0.6405
1631021160448,-0.18971,0.748287,0.640744
1631021160457,-0.190503,0.749141,0.640439
1631021160467,-0.192211,0.744749,0.63989
1631021160477,-0.193187,0.740418,0.641537
1631021160486,-0.193004,0.738771,0.643184
1631021160496,-0.192333,0.74115,0.647393
1631021160505,-0.19154,0.7418819999999999,0.647637
1631021160515,-0.191967,0.743163,0.647332
1631021160525,-0.192821,0.744078,0.646417
1631021160534,-0.192089,0.746152,0.644282
1631021160544,-0.192577,0.745115,0.643184
1631021160553,-0.193492,0.744688,0.6405
1631021160563,-0.194468,0.743895,0.637572
1631021160573,-0.194407,0.744383,0.635742
1631021160582,-0.194529,0.744932,0.63562
1631021160592,-0.194224,0.745969,0.63501
1631021160601,-0.19367499999999999,0.746213,0.6344
1631021160611,-0.194224,0.746518,0.634888
1631021160621,-0.194102,0.746457,0.635254
1631021160630,-0.19458999999999999,0.745786,0.635437
1631021160640,-0.194834,0.746579,0.635864
1631021160649,-0.195017,0.746457,0.637694
1631021160659,-0.194407,0.746823,0.637999
1631021160669,-0.194956,0.74603,0.639524
1631021160678,-0.193797,0.744993,0.6396459999999999
1631021160688,-0.193553,0.74725,0.638609
1631021160697,-0.193797,0.750056,0.640317
1631021160707,-0.192943,0.748592,0.640317
1631021160717,-0.19397999999999999,0.744383,0.638975
1631021160726,-0.194407,0.742919,0.639097
1631021160736,-0.193736,0.7431019999999999,0.638975
1631021160745,-0.191967,0.744566,0.640073
1631021160755,-0.192516,0.744322,0.638609
1631021160765,-0.191967,0.745725,0.639463
1631021160774,-0.192211,0.744932,0.640378
1631021160784,-0.191906,0.744566,0.6411709999999999
1631021160793,-0.191967,0.744993,0.642147
1631021160803,-0.191845,0.745115,0.642818
1631021160813,-0.191906,0.745115,0.643794
1631021160822,-0.192272,0.744017,0.643855
1631021160832,-0.19215,0.744688,0.64294
1631021160841,-0.19276,0.745908,0.64233
1631021160851,-0.193187,0.745786,0.64233
1631021160861,-0.19276,0.745603,0.642025
1631021160870,-0.193126,0.745359,0.640927
1631021160880,-0.194407,0.74603,0.641598
1631021160889,-0.194407,0.74542,0.641964
1631021160899,-0.194712,0.745725,0.6426959999999999
1631021160909,-0.194651,0.744261,0.641354
1631021160918,-0.195749,0.744322,0.641354
1631021160928,-0.195383,0.744261,0.641415
1631021160937,-0.195261,0.743651,0.641964
1631021160947,-0.196237,0.7442,0.641659
1631021160957,-0.195932,0.743956,0.641232
1631021160966,-0.195993,0.744566,0.640744
1631021160976,-0.195566,0.744871,0.640683
1631021160985,-0.195688,0.74481,0.640195
1631021160995,-0.195444,0.744383,0.6393409999999999
1631021161005,-0.195261,0.743834,0.639707
1631021161014,-0.195383,0.74359,0.63867
1631021161024,-0.194773,0.7431019999999999,0.638914
1631021161033,-0.193797,0.742858,0.639524
1631021161043,-0.193431,0.742126,0.640683
1631021161053,-0.192943,0.742004,0.641415
1631021161062,-0.193736,0.740906,0.641232
1631021161072,-0.193126,0.74054,0.64233
1631021161081,-0.19337,0.740418,0.643245
1631021161091,-0.193553,0.7391369999999999,0.643489
1631021161101,-0.192943,0.73871,0.644038
1631021161110,-0.193431,0.73871,0.645258
1631021161120,-0.192943,0.738466,0.648003
1631021161129,-0.194224,0.739198,0.649284
1631021161139,-0.193126,0.7400519999999999,0.650138
1631021161149,-0.194041,0.7412719999999999,0.649955
1631021161158,-0.194468,0.742004,0.64843
1631021161168,-0.194773,0.7397469999999999,0.648552
1631021161177,-0.194346,0.7379169999999999,0.648064
1631021161187,-0.193919,0.74176,0.648369
1631021161197,-0.193736,0.742736,0.648735
1631021161206,-0.192699,0.7421869999999999,0.647393
1631021161216,-0.19215,0.74359,0.647149
1631021161225,-0.192577,0.744688,0.647576
1631021161235,-0.192272,0.74115,0.6466
1631021161245,-0.194041,0.7373069999999999,0.6466
1631021161254,-0.193858,0.73566,0.646966
1631021161264,-0.193919,0.736941,0.648979
1631021161273,-0.193492,0.738893,0.650626
1631021161283,-0.192699,0.739625,0.651846
1631021161293,-0.193736,0.7397469999999999,0.651358
1631021161302,-0.193553,0.740784,0.650382
1631021161312,-0.193736,0.740723,0.648308
1631021161321,-0.19428499999999999,0.740723,0.646295
1631021161331,-0.194102,0.739808,0.646112
1631021161341,-0.195261,0.741455,0.6439159999999999
1631021161350,-0.195688,0.741638,0.643367
1631021161360,-0.19519999999999998,0.742553,0.642635
1631021161369,-0.19458999999999999,0.742309,0.640805
1631021161379,-0.195139,0.742126,0.640195
1631021161389,-0.195078,0.741333,0.638914
1631021161398,-0.195261,0.7409669999999999,0.638487
1631021161408,-0.195322,0.741455,0.639097
1631021161417,-0.195444,0.741821,0.6399509999999999
1631021161427,-0.196054,0.741455,0.63989
1631021161437,-0.196054,0.741394,0.641232
1631021161446,-0.195932,0.741028,0.643245
1631021161456,-0.195139,0.742431,0.643794
1631021161465,-0.19489499999999998,0.745969,0.645502
1631021161475,-0.195627,0.746396,0.645075
1631021161485,-0.19611499999999998,0.742614,0.644343
1631021161494,-0.196969,0.739198,0.643245
1631021161504,-0.196908,0.739808,0.643123
1631021161513,-0.197213,0.741089,0.643367
1631021161523,-0.196786,0.743163,0.64172
1631021161533,-0.19763999999999998,0.744078,0.6423909999999999
1631021161542,-0.196542,0.744017,0.643123
1631021161552,-0.196664,0.744505,0.6445259999999999
1631021161561,-0.19702999999999998,0.742919,0.643245
1631021161571,-0.196908,0.743834,0.64416
1631021161581,-0.197091,0.743346,0.6445259999999999
1631021161590,-0.196969,0.742248,0.6454409999999999
1631021161600,-0.196908,0.741333,0.645685
1631021161609,-0.197457,0.74115,0.64538
1631021161619,-0.196176,0.741394,0.645502
1631021161629,-0.19672499999999998,0.741455,0.644892
1631021161638,-0.19733499999999998,0.740845,0.645075
1631021161648,-0.19702999999999998,0.740479,0.644709
1631021161657,-0.196908,0.74054,0.64538
1631021161667,-0.19672499999999998,0.740296,0.645563
1631021161677,-0.197091,0.739686,0.6457459999999999
1631021161686,-0.197152,0.740784,0.646234
1631021161696,-0.19763999999999998,0.739808,0.647149
1631021161705,-0.197213,0.7403569999999999,0.647027
1631021161715,-0.197396,0.741699,0.646844
1631021161725,-0.196847,0.7418819999999999,0.646173
1631021161734,-0.197274,0.741211,0.644648
1631021161744,-0.19733499999999998,0.741455,0.6433059999999999
1631021161753,-0.19641999999999998,0.740723,0.643184
1631021161763,-0.19641999999999998,0.739625,0.6436109999999999
1631021161773,-0.19550499999999998,0.7397469999999999,0.6433059999999999
1631021161782,-0.195871,0.739259,0.643977
1631021161792,-0.194773,0.738588,0.642818
1631021161801,-0.194346,0.739564,0.644282
1631021161811,-0.193797,0.7382219999999999,0.645563
1631021161821,-0.193004,0.737185,0.645624
1631021161830,-0.192516,0.737246,0.64721
1631021161840,-0.192211,0.736575,0.648064
1631021161849,-0.19093,0.735721,0.64904
1631021161859,-0.19147899999999998,0.735355,0.648857
1631021161869,-0.19178399999999998,0.734806,0.65026
1631021161878,-0.191967,0.7351719999999999,0.65087
1631021161888,-0.191845,0.7370019999999999,0.652334
1631021161897,-0.191418,0.737978,0.6527
1631021161907,-0.190808,0.739564,0.652639
1631021161917,-0.192211,0.739625,0.651907
1631021161926,-0.191906,0.737429,0.65087
1631021161936,-0.192821,0.735355,0.651724
1631021161945,-0.19178399999999998,0.737368,0.650748
1631021161955,-0.191418,0.739259,0.650382
1631021161965,-0.19117399999999998,0.73932,0.649528
1631021161974,-0.19093,0.740906,0.649406
1631021161984,-0.19093,0.740723,0.648979
1631021161993,-0.19154,0.737246,0.648857
1631021162003,-0.193736,0.73261,0.64965
1631021162013,-0.193309,0.732671,0.65148
1631021162022,-0.192394,0.734623,0.652334
1631021162032,-0.193187,0.73627,0.653615
1631021162041,-0.192577,0.737185,0.65453
1631021162051,-0.193431,0.737429,0.654774
1631021162061,-0.19367499999999999,0.7381,0.654225
1631021162070,-0.19337,0.7379169999999999,0.651968
1631021162080,-0.194346,0.737124,0.649711
1631021162089,-0.194651,0.737246,0.648003
1631021162099,-0.194529,0.738466,0.647149
1631021162109,-0.195749,0.739625,0.645502
1631021162118,-0.195261,0.739625,0.643672
1631021162128,-0.19550499999999998,0.7400519999999999,0.643245
1631021162137,-0.195383,0.739625,0.6426959999999999
1631021162147,-0.194956,0.739015,0.642757
1631021162157,-0.195444,0.7376119999999999,0.64294
1631021162166,-0.195566,0.737673,0.644343
1631021162176,-0.195688,0.737429,0.644892
1631021162185,-0.196969,0.737734,0.646417
1631021162195,-0.19641999999999998,0.7385269999999999,0.648125
1631021162205,-0.19580999999999998,0.739076,0.648125
1631021162214,-0.195566,0.739503,0.648857
1631021162224,-0.194346,0.741638,0.648308
1631021162233,-0.194956,0.741394,0.646478
1631021162243,-0.195383,0.738161,0.645868
1631021162253,-0.19672499999999998,0.7351719999999999,0.643672
1631021162262,-0.196054,0.7376119999999999,0.644587
1631021162272,-0.195749,0.74054,0.64599
1631021162281,-0.194712,0.741028,0.645807
1631021162291,-0.195383,0.739808,0.647271
1631021162301,-0.195749,0.741028,0.64721
1631021162310,-0.19519999999999998,0.740906,0.647698
1631021162320,-0.195139,0.739625,0.648003
1631021162329,-0.194651,0.7385269999999999,0.64904
1631021162339,-0.195017,0.738344,0.648735
1631021162349,-0.195139,0.738588,0.648796
1631021162358,-0.194712,0.738344,0.647454
1631021162368,-0.19489499999999998,0.7385269999999999,0.646478
1631021162377,-0.194102,0.739198,0.647698
1631021162387,-0.194163,0.739076,0.648064
1631021162397,-0.194651,0.7394419999999999,0.649467
1631021162406,-0.194102,0.739198,0.650321
1631021162416,-0.19367499999999999,0.739015,0.649528
1631021162425,-0.194041,0.738954,0.650931
1631021162435,-0.193614,0.738405,0.650565
1631021162445,-0.194956,0.737246,0.650016
1631021162454,-0.194773,0.737978,0.648857
1631021162464,-0.195688,0.739076,0.648308
1631021162473,-0.19489499999999998,0.740723,0.648308
1631021162483,-0.194956,0.740784,0.648125
1631021162493,-0.194956,0.73932,0.647637
1631021162502,-0.19428499999999999,0.7391369999999999,0.646234
1631021162512,-0.194102,0.739015,0.645929
1631021162521,-0.192943,0.7394419999999999,0.645868
1631021162531,-0.193187,0.739076,0.645319
1631021162541,-0.193614,0.739686,0.645075
1631021162550,-0.19367499999999999,0.738954,0.644892
1631021162560,-0.192943,0.738466,0.644465
1631021162569,-0.192211,0.7370019999999999,0.644343
1631021162579,-0.190991,0.7357819999999999,0.645624
1631021162589,-0.190747,0.734989,0.646966
1631021162598,-0.191113,0.7363919999999999,0.648247
1631021162608,-0.191418,0.7357819999999999,0.648552
1631021162617,-0.191845,0.735538,0.649894
1631021162627,-0.19093,0.737429,0.650138
1631021162637,-0.191235,0.738771,0.651419
1631021162646,-0.19154,0.739625,0.650992
1631021162656,-0.192333,0.7385269999999999,0.650626
1631021162665,-0.192699,0.7351719999999999,0.650504
1631021162675,-0.192638,0.73383,0.650748
1631021162685,-0.191845,0.737795,0.651114
1631021162694,-0.191418,0.739869,0.65026
1631021162704,-0.19154,0.738893,0.648186
1631021162713,-0.191235,0.7409669999999999,0.648186
1631021162723,-0.191296,0.742614,0.648735
1631021162733,-0.191357,0.737429,0.647637
1631021162742,-0.194102,0.732793,0.647881
1631021162752,-0.193797,0.731756,0.650504
1631021162761,-0.192882,0.733525,0.653127
1631021162771,-0.19215,0.735416,0.6557499999999999
1631021162781,-0.192028,0.736636,0.657458
1631021162790,-0.193187,0.73688,0.6575799999999999
1631021162800,-0.193431,0.738405,0.656726
1631021162809,-0.193797,0.738588,0.656116
1631021162819,-0.19458999999999999,0.737185,0.653615
1631021162829,-0.19580999999999998,0.735843,0.65087
1631021162838,-0.195078,0.735294,0.649589
1631021162848,-0.194041,0.7357819999999999,0.64843
1631021162857,-0.193858,0.737124,0.64721
1631021162867,-0.194651,0.737246,0.645502
1631021162877,-0.195139,0.737063,0.645685
1631021162886,-0.19397999999999999,0.737429,0.645014
1631021162896,-0.194468,0.737673,0.6454409999999999
1631021162905,-0.195322,0.738344,0.647149
1631021162915,-0.193919,0.73749,0.648552
1631021162925,-0.193919,0.737246,0.649467
1631021162934,-0.194468,0.736514,0.651175
1631021162944,-0.19428499999999999,0.7363919999999999,0.650687
1631021162953,-0.194346,0.7400519999999999,0.651175
1631021162963,-0.193187,0.739991,0.650077
1631021162973,-0.194529,0.737795,0.648308
1631021162982,-0.195078,0.735416,0.648125
1631021162992,-0.194773,0.734074,0.648064
1631021163001,-0.194346,0.736636,0.648491
1631021163011,-0.193431,0.73688,0.649223
1631021163021,-0.194041,0.7382219999999999,0.648979
1631021163030,-0.192516,0.738466,0.648613
1631021163040,-0.192516,0.7366969999999999,0.648674
1631021163049,-0.19276,0.735843,0.649284
1631021163059,-0.192943,0.734928,0.649162
1631021163069,-0.192516,0.735355,0.649406
1631021163078,-0.192089,0.735355,0.649772
1631021163088,-0.192577,0.735416,0.649589
1631021163097,-0.19215,0.7354769999999999,0.650138
1631021163107,-0.192699,0.7363919999999999,0.650199
1631021163117,-0.192821,0.736453,0.650443
1631021163126,-0.193187,0.736575,0.650992
1631021163136,-0.193309,0.735843,0.651785
1631021163145,-0.193187,0.7348669999999999,0.652334
1631021163155,-0.193248,0.735904,0.652212
1631021163165,-0.19367499999999999,0.736331,0.651358
1631021163174,-0.194102,0.736758,0.65209
1631021163184,-0.193858,0.7366969999999999,0.651602
1631021163193,-0.194346,0.737063,0.651968
1631021163203,-0.194102,0.737246,0.651846
1631021163213,-0.193431,0.736819,0.650626
1631021163222,-0.193309,0.737124,0.648857
1631021163232,-0.193797,0.736453,0.647454
1631021163241,-0.192638,0.737246,0.646905
1631021163251,-0.192516,0.7363919999999999,0.647027
1631021163261,-0.194041,0.737185,0.648125
1631021163270,-0.195688,0.7348669999999999,0.647637
1631021163280,-0.194407,0.73505,0.64904
1631021163289,-0.19178399999999998,0.735294,0.650748
1631021163299,-0.19154,0.738344,0.653005
1631021163309,-0.191845,0.736148,0.65392
1631021163318,-0.192516,0.733525,0.652822
1631021163328,-0.192028,0.7302919999999999,0.652517
1631021163337,-0.19215,0.731939,0.654286
1631021163347,-0.191296,0.7342569999999999,0.655933
1631021163357,-0.193309,0.735599,0.655567
1631021163366,-0.195322,0.739564,0.653859
1631021163376,-0.196664,0.7434069999999999,0.650321
1631021163385,-0.192699,0.735111,0.650443
1631021163395,-0.190991,0.7370019999999999,0.652761
1631021163405,-0.19215,0.740296,0.65148
1631021163414,-0.190198,0.7379169999999999,0.650016
1631021163424,-0.190442,0.740296,0.6466
1631021163433,-0.191418,0.747494,0.650016
1631021163443,-0.19025899999999998,0.749629,0.650504
1631021163453,-0.193065,0.748653,0.648003
1631021163462,-0.193187,0.7415769999999999,0.647942
1631021163472,-0.195566,0.7357819999999999,0.647027
1631021163481,-0.19550499999999998,0.733586,0.643794
1631021163491,-0.196176,0.730841,0.641293
1631021163501,-0.19337,0.73261,0.641903
1631021163510,-0.195932,0.734074,0.637633
1631021163520,-0.197762,0.735904,0.6341559999999999
1631021163529,-0.195688,0.739015,0.634949
1631021163539,-0.195322,0.741028,0.633973
1631021163549,-0.195749,0.740235,0.635498
1631021163558,-0.195078,0.742553,0.637572
1631021163568,-0.194407,0.743956,0.6405
1631021163577,-0.192943,0.741028,0.64355
1631021163587,-0.19397999999999999,0.738405,0.645502
1631021163597,-0.19458999999999999,0.736514,0.64843
1631021163606,-0.196847,0.734196,0.647759
1631021163616,-0.19641999999999998,0.731573,0.650809
1631021163625,-0.19733499999999998,0.733708,0.651724
1631021163635,-0.197396,0.7351719999999999,0.653005
1631021163645,-0.197396,0.733891,0.655506
1631021163654,-0.196359,0.734379,0.656604
1631021163664,-0.196176,0.73322,0.6612399999999999
1631021163673,-0.200202,0.7345619999999999,0.6600199999999999
1631021163683,-0.19794499999999998,0.7321219999999999,0.6597149999999999
1631021163693,-0.196664,0.730841,0.660081
1631021163702,-0.196359,0.7305969999999999,0.662216
1631021163712,-0.197579,0.7315119999999999,0.660752
1631021163721,-0.197396,0.732976,0.660874
1631021163731,-0.197152,0.733159,0.659166
1631021163741,-0.196542,0.736026,0.657458
1631021163750,-0.19763999999999998,0.737978,0.653798
1631021163760,-0.196908,0.7379169999999999,0.65148
1631021163769,-0.197274,0.739076,0.649772
1631021163779,-0.19983599999999999,0.738283,0.64904
1631021163789,-0.203069,0.735538,0.6436109999999999
1631021163798,-0.202703,0.7351719999999999,0.640927
1631021163808,-0.200934,0.736148,0.6417809999999999
1631021163817,-0.201483,0.736941,0.642269
1631021163827,-0.204472,0.739686,0.64172
1631021163837,-0.198189,0.732366,0.644587
1631021163846,-0.199958,0.732183,0.648369
1631021163856,-0.198738,0.732061,0.64904
1631021163865,-0.199714,0.732183,0.650382
1631021163875,-0.200629,0.731085,0.653676
1631021163885,-0.203252,0.7321219999999999,0.650565
1631021163894,-0.203069,0.729499,0.649284
1631021163904,-0.202947,0.728279,0.648674
1631021163913,-0.202398,0.727425,0.651419
1631021163923,-0.202154,0.728523,0.654774
1631021163933,-0.200934,0.729194,0.658373
1631021163942,-0.199531,0.7305969999999999,0.660752
1631021163952,-0.199348,0.730353,0.661118
1631021163961,-0.199043,0.730231,0.6612399999999999
1631021163971,-0.200202,0.72895,0.659166
1631021163981,-0.198738,0.729011,0.659654
1631021163990,-0.198067,0.727059,0.660386
1631021164000,-0.19763999999999998,0.724619,0.6600199999999999
1631021164009,-0.197518,0.72529,0.660264
1631021164019,-0.197152,0.725656,0.661118
1631021164029,-0.19702999999999998,0.727608,0.661179
1631021164038,-0.195688,0.727913,0.6621549999999999
1631021164048,-0.195688,0.729255,0.661362
1631021164057,-0.195932,0.72956,0.661423
1631021164067,-0.19550499999999998,0.728218,0.661606
1631021164077,-0.195383,0.727669,0.662216
1631021164086,-0.194773,0.73078,0.662643
1631021164096,-0.19458999999999999,0.7315119999999999,0.6609349999999999
1631021164105,-0.194956,0.732549,0.658312
1631021164115,-0.194407,0.732854,0.655689
1631021164125,-0.194163,0.734135,0.654896
1631021164134,-0.194529,0.731573,0.654103
1631021164144,-0.196237,0.729926,0.654774
1631021164153,-0.197396,0.728096,0.654835
1631021164163,-0.19702999999999998,0.72773,0.655018
1631021164173,-0.195688,0.728828,0.654896
1631021164182,-0.19611499999999998,0.729926,0.655384
1631021164192,-0.196542,0.730841,0.657641
1631021164201,-0.198006,0.73139,0.656909
1631021164211,-0.197579,0.730719,0.656543
1631021164221,-0.196786,0.730414,0.6566649999999999
1631021164230,-0.199043,0.729743,0.655811
1631021164240,-0.198921,0.730536,0.654408
1631021164249,-0.199714,0.72956,0.651724
1631021164259,-0.200263,0.730536,0.64904
1631021164269,-0.200873,0.7296819999999999,0.6466
1631021164278,-0.20258099999999998,0.731695,0.64477
1631021164288,-0.20313,0.732,0.645929
1631021164297,-0.204716,0.733159,0.647332
1631021164307,-0.204472,0.732488,0.649467
1631021164317,-0.204228,0.731756,0.65148
1631021164326,-0.204167,0.731878,0.654286
1631021164336,-0.204899,0.7305969999999999,0.655506
1631021164345,-0.204167,0.731085,0.655872
1631021164355,-0.204899,0.733403,0.656726
1631021164365,-0.204045,0.735416,0.6563599999999999
1631021164374,-0.203618,0.734318,0.654835
1631021164384,-0.204899,0.729743,0.653371
1631021164393,-0.205509,0.727974,0.653249
1631021164403,-0.205204,0.728706,0.652761
1631021164413,-0.202764,0.730109,0.654652
1631021164422,-0.201849,0.729865,0.655506
1631021164432,-0.20136099999999998,0.731085,0.656177
1631021164441,-0.200629,0.730841,0.656909
1631021164451,-0.200019,0.730353,0.656238
1631021164461,-0.199226,0.729133,0.656238
1631021164470,-0.199958,0.7302919999999999,0.6563599999999999
1631021164480,-0.200324,0.728828,0.655811
1631021164489,-0.200324,0.72895,0.656421
1631021164499,-0.200324,0.72895,0.65514
1631021164509,-0.200873,0.7287669999999999,0.654042
1631021164518,-0.2013,0.729926,0.653798
1631021164528,-0.200568,0.729926,0.654225
1631021164537,-0.20008,0.729743,0.655628
1631021164547,-0.200202,0.729133,0.655872
1631021164557,-0.200385,0.728584,0.655689
1631021164566,-0.200812,0.7293769999999999,0.6569699999999999
1631021164576,-0.200385,0.7293769999999999,0.656543
1631021164585,-0.200324,0.729133,0.6575799999999999
1631021164595,-0.200202,0.729438,0.657336
1631021164605,-0.201788,0.730353,0.656177
1631021164614,-0.200873,0.729804,0.656482
1631021164624,-0.201605,0.730719,0.656482
1631021164633,-0.20136099999999998,0.730109,0.655689
1631021164643,-0.20075099999999999,0.729804,0.654896
1631021164653,-0.200812,0.729133,0.655262
1631021164662,-0.20044599999999999,0.7278519999999999,0.655079
1631021164672,-0.200873,0.727669,0.655201
1631021164681,-0.200385,0.726632,0.655628
1631021164691,-0.199897,0.72712,0.655567
1631021164701,-0.19983599999999999,0.727669,0.6560549999999999
1631021164710,-0.200019,0.728279,0.6563599999999999
1631021164720,-0.199409,0.729438,0.655811
1631021164729,-0.200324,0.7290719999999999,0.655323
1631021164739,-0.200324,0.726815,0.6554449999999999
1631021164749,-0.199592,0.727425,0.6569699999999999
1631021164758,-0.199714,0.72956,0.6581899999999999
1631021164768,-0.198982,0.730048,0.656482
1631021164777,-0.19825,0.7296819999999999,0.6569699999999999
1631021164787,-0.198189,0.731573,0.656177
1631021164797,-0.199043,0.730719,0.656177
1631021164806,-0.19947,0.726632,0.655201
1631021164816,-0.200995,0.724863,0.656116
1631021164825,-0.200934,0.723643,0.658007
1631021164835,-0.199226,0.724741,0.6591049999999999
1631021164845,-0.198372,0.725961,0.6612399999999999
1631021164854,-0.198128,0.727059,0.662643
1631021164864,-0.200324,0.728523,0.662033
1631021164873,-0.199897,0.729194,0.6624599999999999
1631021164883,-0.198982,0.72895,0.661179
1631021164893,-0.20075099999999999,0.7287669999999999,0.659532
1631021164902,-0.200629,0.727486,0.6591049999999999
1631021164912,-0.201117,0.729499,0.6578849999999999
1631021164921,-0.201422,0.729743,0.656726
1631021164931,-0.20227599999999998,0.729255,0.654347
1631021164941,-0.20319099999999998,0.730109,0.65148
1631021164950,-0.202032,0.7302919999999999,0.651724
1631021164960,-0.20197099999999998,0.730414,0.651053
1631021164969,-0.201422,0.730048,0.651175
1631021164979,-0.201422,0.72895,0.652456
1631021164989,-0.20191,0.728828,0.653798
1631021164998,-0.202093,0.7275469999999999,0.655567
1631021165008,-0.20197099999999998,0.727486,0.654652
1631021165017,-0.200934,0.729499,0.655018
1631021165027,-0.202337,0.731329,0.655567
1631021165037,-0.201544,0.7302919999999999,0.654957
1631021165046,-0.20288599999999998,0.72651,0.65453
1631021165056,-0.203069,0.726754,0.654713
1631021165065,-0.201605,0.728645,0.655384
1631021165075,-0.201422,0.729438,0.655506
1631021165085,-0.200568,0.7305969999999999,0.6569699999999999
1631021165094,-0.200568,0.730658,0.657031
1631021165104,-0.200385,0.7302919999999999,0.656299
1631021165113,-0.200324,0.729499,0.655994
1631021165123,-0.200995,0.728645,0.655079
1631021165133,-0.20105599999999998,0.728523,0.65453
1631021165142,-0.20075099999999999,0.7278519999999999,0.655018
1631021165152,-0.200385,0.7281569999999999,0.6554449999999999
1631021165161,-0.200812,0.727425,0.65514
1631021165171,-0.19983599999999999,0.727608,0.656848
1631021165181,-0.199287,0.72712,0.658983
1631021165190,-0.199287,0.727303,0.660386
1631021165200,-0.199226,0.726449,0.6609349999999999
1631021165209,-0.199104,0.726632,0.6615449999999999
1631021165219,-0.19947,0.725351,0.661362
1631021165229,-0.200019,0.725351,0.661972
1631021165238,-0.199897,0.726022,0.662643
1631021165248,-0.200324,0.7272419999999999,0.662277
1631021165257,-0.2013,0.726876,0.6621549999999999
1631021165267,-0.20008,0.727486,0.662582
1631021165277,-0.20044599999999999,0.729133,0.661911
1631021165286,-0.199531,0.729804,0.660203
1631021165296,-0.199104,0.728096,0.6597149999999999
1631021165305,-0.199409,0.727669,0.6578849999999999
1631021165315,-0.198982,0.726693,0.657641
1631021165325,-0.198677,0.726144,0.656787
1631021165334,-0.19794499999999998,0.726022,0.655811
1631021165344,-0.198128,0.724924,0.655811
1631021165353,-0.197518,0.724863,0.656726
1631021165363,-0.196481,0.72529,0.657824
1631021165373,-0.197152,0.726876,0.658678
1631021165382,-0.196359,0.725839,0.660508
1631021165392,-0.19641999999999998,0.726388,0.6609349999999999
1631021165401,-0.195749,0.726754,0.660813
1631021165411,-0.196481,0.723826,0.660813
1631021165421,-0.195932,0.721996,0.661362
1631021165430,-0.19458999999999999,0.724436,0.661789
1631021165440,-0.195444,0.725717,0.6609349999999999
1631021165449,-0.194468,0.725046,0.659593
1631021165459,-0.193797,0.728035,0.659227
1631021165469,-0.193919,0.729926,0.658861
1631021165478,-0.193736,0.727669,0.658373
1631021165488,-0.19611499999999998,0.722667,0.658129
1631021165497,-0.196298,0.721264,0.659898
1631021165507,-0.19580999999999998,0.721752,0.6615449999999999
1631021165517,-0.195932,0.722484,0.662643
1631021165526,-0.194834,0.723887,0.664778
1631021165536,-0.195932,0.724985,0.663131
1631021165545,-0.196542,0.727181,0.6661199999999999
1631021165555,-0.19641999999999998,0.728035,0.666486
1631021165565,-0.195566,0.72712,0.665754
1631021165574,-0.197762,0.725168,0.664351
1631021165584,-0.198799,0.725412,0.6621549999999999
1631021165593,-0.197579,0.725595,0.661972
1631021165603,-0.197762,0.726083,0.660386
1631021165613,-0.198006,0.726449,0.659288
1631021165622,-0.198738,0.726083,0.658861
1631021165632,-0.198067,0.725046,0.658007
1631021165641,-0.198921,0.723521,0.658617
1631021165651,-0.199043,0.723765,0.659288
1631021165661,-0.199775,0.724497,0.660752
1631021165670,-0.19947,0.725961,0.661057
1631021165680,-0.199104,0.726022,0.659959
1631021165689,-0.19886,0.728828,0.659593
1631021165699,-0.198738,0.730475,0.660569
1631021165709,-0.199653,0.727791,0.6591049999999999
1631021165718,-0.199958,0.72407,0.6578849999999999
1631021165728,-0.201422,0.723033,0.657824
1631021165737,-0.200873,0.724802,0.658007
1631021165747,-0.20044599999999999,0.725656,0.658983
1631021165757,-0.200629,0.725778,0.660569
1631021165766,-0.200568,0.725839,0.659654
1631021165776,-0.20075099999999999,0.727181,0.658922
1631021165785,-0.20014099999999999,0.726998,0.659471
1631021165795,-0.20069,0.725412,0.658556
1631021165805,-0.20105599999999998,0.723826,0.658556
1631021165814,-0.201239,0.723948,0.6584949999999999
1631021165824,-0.200629,0.724802,0.658556
1631021165833,-0.201422,0.723765,0.659349
1631021165843,-0.20136099999999998,0.724497,0.660691
1631021165853,-0.200995,0.725046,0.6615449999999999
1631021165862,-0.201239,0.724558,0.660996
1631021165872,-0.20136099999999998,0.724436,0.662582
1631021165881,-0.20197099999999998,0.725168,0.6630699999999999
1631021165891,-0.20191,0.725168,0.663192
1631021165901,-0.200934,0.724985,0.662826
1631021165910,-0.202032,0.725778,0.662216
1631021165920,-0.201788,0.725412,0.662521
1631021165929,-0.201605,0.725351,0.661423
1631021165939,-0.2013,0.725656,0.661911
1631021165949,-0.202154,0.72529,0.661484
1631021165958,-0.20227599999999998,0.725839,0.6609349999999999
1631021165968,-0.20252,0.726571,0.661118
1631021165977,-0.201849,0.726998,0.6606299999999999
1631021165987,-0.200629,0.727181,0.658922
1631021165997,-0.200202,0.726144,0.659532
1631021166006,-0.199897,0.725412,0.659776
1631021166016,-0.20008,0.723826,0.6591049999999999
1631021166025,-0.19886,0.723704,0.6594099999999999
1631021166035,-0.199165,0.723521,0.6597149999999999
1631021166045,-0.198982,0.723033,0.660142
1631021166054,-0.199226,0.723643,0.6600199999999999
1631021166064,-0.198006,0.723765,0.662399
1631021166073,-0.19794499999999998,0.724131,0.6624599999999999
1631021166083,-0.198006,0.725046,0.6630699999999999
1631021166093,-0.198494,0.723582,0.662826
1631021166102,-0.198738,0.720959,0.660508
1631021166112,-0.199714,0.7178479999999999,0.6612399999999999
1631021166121,-0.198677,0.72163,0.662216
1631021166131,-0.199287,0.723704,0.660874
1631021166141,-0.198738,0.724192,0.660569
1631021166150,-0.19886,0.7275469999999999,0.661301
1631021166160,-0.200019,0.728828,0.662277
1631021166169,-0.20069,0.724436,0.660386
1631021166179,-0.203008,0.720227,0.660386
1631021166189,-0.202764,0.718214,0.662338
1631021166198,-0.20197099999999998,0.71919,0.663253
1631021166208,-0.200995,0.72102,0.6648999999999999
1631021166217,-0.201788,0.723643,0.665998
1631021166227,-0.201178,0.724863,0.666608
1631021166237,-0.202154,0.725412,0.665937
1631021166246,-0.20252,0.724802,0.663924
1631021166256,-0.202947,0.724192,0.6618499999999999
1631021166265,-0.203313,0.722972,0.659593
1631021166275,-0.203618,0.722728,0.6584949999999999
1631021166285,-0.203557,0.723216,0.657153
1631021166294,-0.203313,0.72346,0.6560549999999999
1631021166304,-0.203069,0.724253,0.656177
1631021166313,-0.20410599999999998,0.72529,0.656726
1631021166323,-0.20435,0.72529,0.6578849999999999
1631021166333,-0.203618,0.725412,0.658312
1631021166342,-0.203252,0.726083,0.659166
1631021166352,-0.20319099999999998,0.725473,0.6606299999999999
1631021166361,-0.204045,0.72468,0.6612399999999999
1631021166371,-0.203008,0.724192,0.662033
1631021166381,-0.20227599999999998,0.726998,0.661606
1631021166390,-0.202032,0.729316,0.661301
1631021166400,-0.202703,0.726998,0.6600199999999999
1631021166409,-0.203374,0.723643,0.659898
1631021166419,-0.20349599999999998,0.722362,0.659166
1631021166429,-0.204167,0.722484,0.658678
1631021166438,-0.202154,0.723277,0.660142
1631021166448,-0.202764,0.726693,0.659837
1631021166457,-0.202215,0.727608,0.660264
1631021166467,-0.202154,0.727303,0.659593
1631021166477,-0.202154,0.727303,0.659532
1631021166486,-0.2013,0.726998,0.6581899999999999
1631021166496,-0.20197099999999998,0.726754,0.659044
1631021166505,-0.201849,0.726266,0.658739
1631021166515,-0.20197099999999998,0.725351,0.6581899999999999
1631021166525,-0.201544,0.72529,0.658129
1631021166534,-0.201727,0.725778,0.656909
1631021166544,-0.201605,0.726388,0.6581899999999999
1631021166553,-0.201544,0.726022,0.6581899999999999
1631021166563,-0.20044599999999999,0.727059,0.659898
1631021166573,-0.200995,0.726449,0.659227
1631021166582,-0.202032,0.726205,0.658861
1631021166592,-0.201544,0.725595,0.6584949999999999
1631021166601,-0.201178,0.726144,0.659166
1631021166611,-0.20136099999999998,0.726022,0.658983
1631021166621,-0.201117,0.726571,0.659349
1631021166630,-0.201178,0.726205,0.659837
1631021166640,-0.200507,0.725656,0.659837
1631021166649,-0.20075099999999999,0.725107,0.659837
1631021166659,-0.20044599999999999,0.724558,0.659654
1631021166669,-0.201178,0.724497,0.660142
1631021166678,-0.200568,0.725229,0.660813
1631021166688,-0.200324,0.724619,0.660264
1631021166697,-0.199653,0.724314,0.659593
1631021166707,-0.199104,0.723887,0.660691
1631021166717,-0.198555,0.723948,0.660264
1631021166726,-0.198921,0.723399,0.6600199999999999
1631021166736,-0.198921,0.722545,0.6600199999999999
1631021166745,-0.19794499999999998,0.721996,0.660569
1631021166755,-0.197213,0.721569,0.660203
1631021166765,-0.197213,0.720532,0.6600199999999999
1631021166774,-0.198189,0.721691,0.6615449999999999
1631021166784,-0.198555,0.721935,0.6630699999999999
1631021166793,-0.19702999999999998,0.723216,0.6648999999999999
1631021166803,-0.197762,0.723887,0.665754
1631021166813,-0.19763999999999998,0.724741,0.6642899999999999
1631021166822,-0.199104,0.724741,0.664534
1631021166832,-0.198677,0.721813,0.663802
1631021166841,-0.198738,0.721142,0.664412
1631021166851,-0.19794499999999998,0.72407,0.664717
1631021166861,-0.197274,0.724558,0.664412
1631021166870,-0.19733499999999998,0.724436,0.6636799999999999
1631021166880,-0.196176,0.724802,0.662948
1631021166889,-0.19763999999999998,0.725656,0.662277
1631021166899,-0.198738,0.722667,0.662216
1631021166909,-0.200324,0.720044,0.6615449999999999
1631021166918,-0.200324,0.719129,0.662582
1631021166928,-0.199775,0.72041,0.664717
1631021166937,-0.199409,0.720898,0.665632
1631021166947,-0.19947,0.722118,0.666181
1631021166957,-0.198799,0.722545,0.668316
1631021166966,-0.20044599999999999,0.723643,0.6679499999999999
1631021166976,-0.200934,0.724009,0.665998
1631021166985,-0.201727,0.724253,0.664534
1631021166995,-0.202093,0.723277,0.663314
1631021167005,-0.202703,0.723948,0.6627649999999999
1631021167014,-0.203008,0.724314,0.660874
1631021167024,-0.202642,0.72468,0.660142
1631021167033,-0.202764,0.724558,0.659227
1631021167043,-0.202825,0.724131,0.658312
1631021167053,-0.20197099999999998,0.724009,0.658251
1631021167062,-0.202032,0.723765,0.6584949999999999
1631021167072,-0.20197099999999998,0.722423,0.6587999999999999
1631021167081,-0.201788,0.721996,0.660874
1631021167091,-0.20197099999999998,0.721874,0.661606
1631021167101,-0.200934,0.721691,0.662216
1631021167110,-0.201788,0.723155,0.663131
1631021167120,-0.200995,0.726449,0.664229
1631021167129,-0.20014099999999999,0.7259,0.663863
1631021167139,-0.200934,0.722484,0.6618499999999999
1631021167149,-0.201239,0.72102,0.6615449999999999
1631021167158,-0.200568,0.721874,0.661728
1631021167168,-0.200568,0.723765,0.662338
1631021167177,-0.200934,0.72407,0.662094
1631021167187,-0.200873,0.724131,0.6612399999999999
1631021167197,-0.200324,0.723643,0.661118
1631021167206,-0.200019,0.725107,0.6621549999999999
1631021167216,-0.20044599999999999,0.724375,0.661789
1631021167225,-0.199897,0.723094,0.661667
1631021167235,-0.199348,0.722362,0.662338
1631021167245,-0.199958,0.722057,0.661972
1631021167254,-0.19983599999999999,0.721691,0.662826
1631021167264,-0.199958,0.722728,0.662582
1631021167273,-0.199653,0.721996,0.662399
1631021167283,-0.19983599999999999,0.722484,0.663741
1631021167293,-0.199409,0.72224,0.664046
1631021167302,-0.199958,0.722484,0.664778
1631021167312,-0.199714,0.722118,0.664717
1631021167321,-0.199226,0.721081,0.665998
1631021167331,-0.20008,0.72102,0.6655099999999999
1631021167341,-0.20075099999999999,0.721203,0.665022
1631021167350,-0.200507,0.721935,0.664961
1631021167360,-0.200995,0.722667,0.6639849999999999
1631021167369,-0.200934,0.723277,0.6633749999999999
1631021167379,-0.200995,0.725046,0.6636799999999999
1631021167389,-0.200934,0.725046,0.662704
1631021167398,-0.200385,0.72468,0.661728
1631021167408,-0.20044599999999999,0.723826,0.660996
1631021167417,-0.199958,0.722606,0.662216
1631021167427,-0.199775,0.721752,0.6624599999999999
1631021167437,-0.199043,0.720837,0.6627649999999999
1631021167446,-0.199104,0.720593,0.663619
1631021167456,-0.198982,0.721142,0.664107
1631021167465,-0.198433,0.720471,0.664412
1631021167475,-0.197762,0.720105,0.664778
1631021167485,-0.19825,0.719373,0.665144
1631021167494,-0.197396,0.718885,0.6664249999999999
1631021167504,-0.197213,0.719251,0.665571
1631021167513,-0.197701,0.718946,0.6667299999999999
1631021167523,-0.198128,0.719129,0.6670349999999999
1631021167533,-0.198067,0.719617,0.666547
1631021167542,-0.199043,0.719617,0.666181
1631021167552,-0.198372,0.720898,0.667523
1631021167561,-0.198799,0.722545,0.6673399999999999
1631021167571,-0.199226,0.722728,0.666852
1631021167581,-0.200324,0.721508,0.666364
1631021167590,-0.200324,0.717909,0.6664249999999999
1631021167600,-0.199165,0.720288,0.665998
1631021167609,-0.198494,0.722301,0.665083
1631021167619,-0.198372,0.723216,0.664229
1631021167629,-0.199104,0.72346,0.6642899999999999
1631021167638,-0.199226,0.724436,0.662704
1631021167648,-0.200324,0.719983,0.663192
1631021167657,-0.2013,0.716811,0.663253
1631021167667,-0.20136099999999998,0.7169329999999999,0.663497
1631021167677,-0.20075099999999999,0.7190679999999999,0.665266
1631021167686,-0.20008,0.719556,0.6667299999999999
1631021167696,-0.200934,0.721691,0.667096
1631021167705,-0.201727,0.723033,0.666242
1631021167715,-0.20197099999999998,0.723826,0.6664249999999999
1631021167725,-0.202398,0.724009,0.6648999999999999
1631021167734,-0.202093,0.722911,0.6633749999999999
1631021167744,-0.202947,0.721508,0.662338
1631021167753,-0.202398,0.721508,0.662094
1631021167763,-0.202154,0.722301,0.6606299999999999
1631021167773,-0.202337,0.725168,0.660081
1631021167782,-0.201788,0.725778,0.6587999999999999
1631021167792,-0.20136099999999998,0.725351,0.6581899999999999
1631021167801,-0.201239,0.723582,0.658556
1631021167811,-0.200812,0.722484,0.659288
1631021167821,-0.20075099999999999,0.719251,0.6600199999999999
1631021167830,-0.20191,0.717604,0.660447
1631021167840,-0.20252,0.716689,0.661606
1631021167849,-0.203435,0.717299,0.662216
1631021167859,-0.203374,0.720654,0.663009
1631021167869,-0.203984,0.7269369999999999,0.6645949999999999
1631021167878,-0.202703,0.727913,0.664534
1631021167888,-0.203313,0.725046,0.663009
1631021167897,-0.204228,0.721508,0.662704
1631021167907,-0.203618,0.722484,0.6618499999999999
1631021167917,-0.203008,0.725534,0.662216
1631021167926,-0.202215,0.726754,0.662033
1631021167936,-0.201849,0.726693,0.661728
1631021167945,-0.201544,0.725046,0.661118
1631021167955,-0.200934,0.72468,0.661301
1631021167965,-0.199958,0.724558,0.662948
1631021167974,-0.19947,0.723155,0.664778
1631021167984,-0.198799,0.722484,0.666303
1631021167993,-0.198128,0.721813,0.666547
1631021168003,-0.196298,0.720715,0.665998
1631021168013,-0.195688,0.720837,0.664412
1631021168022,-0.194834,0.723155,0.665083
1631021168032,-0.19428499999999999,0.72224,0.664778
1631021168041,-0.19428499999999999,0.722362,0.664717
1631021168051,-0.193187,0.722179,0.665266
1631021168061,-0.193858,0.722484,0.664534
1631021168070,-0.194041,0.721264,0.664412
1631021168080,-0.193736,0.722484,0.666669
1631021168089,-0.193248,0.722972,0.666181
1631021168099,-0.193126,0.72346,0.665876
1631021168109,-0.19367499999999999,0.722789,0.665754
1631021168118,-0.19428499999999999,0.722667,0.6655099999999999
1631021168128,-0.193187,0.721447,0.665083
1631021168137,-0.193736,0.721935,0.663802
1631021168147,-0.194529,0.721386,0.663619
1631021168157,-0.194102,0.721325,0.664229
1631021168166,-0.194346,0.719678,0.664107
1631021168176,-0.195444,0.719678,0.663802
1631021168185,-0.194956,0.718519,0.664168
1631021168195,-0.19489499999999998,0.718946,0.6645949999999999
1631021168205,-0.195139,0.719434,0.6642899999999999
1631021168214,-0.195322,0.720044,0.663741
1631021168224,-0.195139,0.719922,0.6648999999999999
1631021168233,-0.196176,0.718946,0.664717
1631021168243,-0.19641999999999998,0.717604,0.664412
1631021168253,-0.196542,0.717055,0.664961
1631021168262,-0.197579,0.71797,0.665876
1631021168272,-0.19733499999999998,0.718336,0.666486
1631021168281,-0.198067,0.718397,0.666364
1631021168291,-0.19947,0.7190679999999999,0.666913
1631021168301,-0.20044599999999999,0.718946,0.668194
1631021168310,-0.200568,0.718275,0.6688649999999999
1631021168320,-0.200873,0.718824,0.670512
1631021168329,-0.20191,0.719129,0.670024
1631021168339,-0.202337,0.719434,0.669902
1631021168349,-0.203313,0.720288,0.668438
1631021168358,-0.203618,0.719007,0.668011
1631021168368,-0.204655,0.715286,0.668133
1631021168377,-0.204655,0.7178479999999999,0.6685599999999999
1631021168387,-0.20435,0.720532,0.667462
1631021168397,-0.203435,0.722179,0.6658149999999999
1631021168406,-0.203374,0.724558,0.665998
1631021168416,-0.204472,0.726571,0.6658149999999999
1631021168425,-0.205448,0.721935,0.664412
1631021168435,-0.20782699999999998,0.715835,0.664473
1631021168445,-0.20813199999999998,0.715225,0.665327
1631021168454,-0.206241,0.718092,0.6673399999999999
1631021168464,-0.205021,0.720349,0.669231
1631021168473,-0.205326,0.721081,0.668743
1631021168483,-0.20557,0.721935,0.667889
1631021168493,-0.205753,0.723094,0.6673399999999999
1631021168502,-0.20618,0.723155,0.664839
1631021168512,-0.205936,0.72346,0.663192
1631021168521,-0.205631,0.721691,0.663009
1631021168531,-0.205265,0.719922,0.661728
1631021168541,-0.205021,0.719617,0.661057
1631021168550,-0.20435,0.719617,0.660386
1631021168560,-0.203313,0.720898,0.659776
1631021168569,-0.203252,0.721142,0.658861
1631021168579,-0.203862,0.722057,0.6594099999999999
1631021168589,-0.202825,0.722118,0.660508
1631021168598,-0.203618,0.722118,0.660813
1631021168608,-0.203252,0.721813,0.6615449999999999
1631021168617,-0.20258099999999998,0.72285,0.663192
1631021168627,-0.202398,0.721996,0.663619
1631021168637,-0.202215,0.724436,0.662033
1631021168646,-0.202703,0.726754,0.662033
1631021168656,-0.202093,0.725412,0.659837
1631021168665,-0.202337,0.721996,0.660081
1631021168675,-0.20227599999999998,0.72041,0.658617
1631021168685,-0.20166599999999998,0.721386,0.659593
1631021168694,-0.200263,0.72285,0.660142
1631021168704,-0.200812,0.722362,0.659166
1631021168713,-0.199897,0.72163,0.6594099999999999
1631021168723,-0.200324,0.721874,0.660569
1631021168733,-0.200507,0.721996,0.660752
1631021168742,-0.200812,0.72163,0.6609349999999999
1631021168752,-0.2013,0.720898,0.661301
1631021168761,-0.20166599999999998,0.720898,0.661362
1631021168771,-0.20252,0.720288,0.662277
1631021168781,-0.202764,0.721203,0.661911
1631021168790,-0.20319099999999998,0.721996,0.662338
1631021168800,-0.202642,0.723033,0.663131
1631021168809,-0.203008,0.72224,0.6633749999999999
1631021168819,-0.20349599999999998,0.722972,0.664168
1631021168829,-0.202825,0.722911,0.664534
1631021168838,-0.203557,0.72285,0.6645949999999999
1631021168848,-0.203313,0.722911,0.665144
1631021168857,-0.203252,0.72285,0.664656
1631021168867,-0.204472,0.723094,0.6645949999999999
1631021168877,-0.203984,0.722301,0.666364
1631021168886,-0.202398,0.722545,0.666547
1631021168896,-0.202398,0.721691,0.665022
1631021168905,-0.20288599999999998,0.721386,0.6655099999999999
1631021168915,-0.20313,0.720654,0.665388
1631021168925,-0.202947,0.720532,0.665022
1631021168934,-0.20227599999999998,0.721081,0.664412
1631021168944,-0.20227599999999998,0.720288,0.6639849999999999
1631021168953,-0.202215,0.721142,0.665144
1631021168963,-0.200934,0.721203,0.664656
1631021168973,-0.20075099999999999,0.72102,0.666059
1631021168982,-0.200507,0.720959,0.666486
1631021168992,-0.199653,0.721264,0.667279
1631021169001,-0.199287,0.720288,0.667218
1631021169011,-0.20008,0.720044,0.667462
1631021169021,-0.200568,0.718397,0.6676449999999999
1631021169030,-0.200324,0.716384,0.666364
1631021169040,-0.200568,0.715652,0.665571
1631021169049,-0.20014099999999999,0.715896,0.665998
1631021169059,-0.198738,0.7160179999999999,0.666547
1631021169069,-0.199287,0.716445,0.6673399999999999
1631021169078,-0.200202,0.716567,0.668438
1631021169088,-0.199958,0.716689,0.669292
1631021169097,-0.20044599999999999,0.718519,0.669292
1631021169107,-0.201117,0.717726,0.668987
1631021169117,-0.202337,0.719983,0.666547
1631021169126,-0.202947,0.720593,0.665266
1631021169136,-0.202764,0.719861,0.662887
1631021169145,-0.203313,0.718702,0.662277
1631021169155,-0.20227599999999998,0.72041,0.6633749999999999
1631021169165,-0.202703,0.72285,0.662399
1631021169174,-0.200629,0.722911,0.661057
1631021169184,-0.20014099999999999,0.723765,0.661972
1631021169193,-0.199348,0.723887,0.662094
1631021169203,-0.20105599999999998,0.721386,0.661911
1631021169213,-0.200873,0.716567,0.6636799999999999
1631021169222,-0.201605,0.715164,0.664778
1631021169232,-0.200568,0.716872,0.667584
1631021169241,-0.199104,0.717177,0.670756
1631021169251,-0.199104,0.718519,0.671976
1631021169261,-0.19886,0.719678,0.673623
1631021169270,-0.198616,0.72224,0.672647
1631021169280,-0.199409,0.721874,0.670817
1631021169289,-0.199531,0.721813,0.667584
1631021169299,-0.20008,0.721081,0.664534
1631021169309,-0.20008,0.720959,0.663558
1631021169318,-0.199165,0.721386,0.6630699999999999
1631021169328,-0.198189,0.72224,0.6627649999999999
1631021169337,-0.198433,0.722118,0.663436
1631021169347,-0.19763999999999998,0.721691,0.662643
1631021169357,-0.198189,0.720166,0.663558
1631021169366,-0.198311,0.719739,0.663802
1631021169376,-0.198494,0.719556,0.664534
1631021169385,-0.198189,0.719312,0.664473
1631021169395,-0.198494,0.719434,0.665876
1631021169405,-0.197152,0.719373,0.664473
1631021169414,-0.199226,0.7184579999999999,0.660081
1631021169424,-0.198433,0.72346,0.659654
1631021169433,-0.198128,0.726144,0.659471
1631021169443,-0.197457,0.7259,0.6612399999999999
1631021169453,-0.199775,0.722667,0.659044
1631021169462,-0.20069,0.720288,0.6587999999999999
1631021169472,-0.200812,0.719861,0.660386
1631021169481,-0.199348,0.721752,0.662216
1631021169491,-0.200385,0.721996,0.660203
1631021169501,-0.199775,0.722606,0.662582
1631021169510,-0.199897,0.722362,0.662521
1631021169520,-0.200324,0.722606,0.6652049999999999
1631021169529,-0.199897,0.722179,0.665144
1631021169539,-0.200873,0.721874,0.666913
1631021169549,-0.200507,0.720898,0.665998
1631021169558,-0.201544,0.719556,0.666242
1631021169568,-0.20014099999999999,0.719495,0.6670349999999999
1631021169577,-0.200873,0.719861,0.667096
1631021169587,-0.20014099999999999,0.718946,0.666364
1631021169597,-0.200568,0.718702,0.667706
1631021169606,-0.200629,0.719678,0.668682
1631021169616,-0.200507,0.717909,0.669841
1631021169625,-0.201483,0.717421,0.669292
1631021169635,-0.201849,0.718397,0.669292
1631021169645,-0.201788,0.71797,0.669231
1631021169654,-0.202093,0.718336,0.669414
1631021169664,-0.200934,0.718092,0.669109
1631021169673,-0.20166599999999998,0.71797,0.668926
1631021169683,-0.200812,0.718092,0.6688649999999999
1631021169693,-0.200568,0.718946,0.670329
1631021169702,-0.200324,0.718946,0.6697799999999999
1631021169712,-0.20014099999999999,0.7190679999999999,0.668743
1631021169721,-0.199348,0.719556,0.667889
1631021169731,-0.199714,0.718031,0.667584
1631021169741,-0.19983599999999999,0.717482,0.666486
1631021169750,-0.199165,0.717299,0.665632
1631021169760,-0.198311,0.7172379999999999,0.6658149999999999
1631021169769,-0.198494,0.7166279999999999,0.666242
1631021169779,-0.198067,0.7169329999999999,0.666059
1631021169789,-0.197823,0.716262,0.6673399999999999
1631021169798,-0.19702999999999998,0.716201,0.667218
1631021169808,-0.19611499999999998,0.7160179999999999,0.669048
1631021169817,-0.195932,0.716079,0.668682
1631021169827,-0.19702999999999998,0.717482,0.668926
1631021169837,-0.19763999999999998,0.71736,0.668987
1631021169846,-0.196603,0.7163229999999999,0.668011
1631021169856,-0.196908,0.714859,0.668682
1631021169865,-0.196237,0.7154079999999999,0.67039
1631021169875,-0.19702999999999998,0.7154079999999999,0.669841
1631021169885,-0.197579,0.717116,0.6688649999999999
1631021169894,-0.19825,0.717665,0.6700849999999999
1631021169904,-0.198311,0.716872,0.671122
1631021169913,-0.198494,0.717421,0.670573
1631021169923,-0.19947,0.719007,0.669963
1631021169933,-0.19947,0.718702,0.669597
1631021169942,-0.20014099999999999,0.7166279999999999,0.669658
1631021169952,-0.200324,0.718824,0.668621
1631021169961,-0.20008,0.720959,0.669048
1631021169971,-0.200202,0.720288,0.6676449999999999
1631021169981,-0.200324,0.721325,0.666791
1631021169990,-0.200324,0.721996,0.665449
1631021170000,-0.20136099999999998,0.718946,0.6627649999999999
1631021170009,-0.202764,0.7163229999999999,0.663802
1631021170019,-0.20319099999999998,0.7160179999999999,0.664473
1631021170029,-0.202642,0.718092,0.665388
1631021170038,-0.203069,0.719617,0.666486
1631021170048,-0.202642,0.719617,0.667706
1631021170057,-0.203069,0.719739,0.669109
1631021170067,-0.20374,0.721264,0.668987
1631021170077,-0.203374,0.722362,0.667584
1631021170086,-0.205021,0.721142,0.666852
1631021170096,-0.205448,0.721203,0.666974
1631021170105,-0.205082,0.721081,0.667584
1631021170115,-0.20374,0.720471,0.666181
1631021170125,-0.20380099999999998,0.720227,0.664046
1631021170134,-0.203313,0.720105,0.6615449999999999
1631021170144,-0.203313,0.7169329999999999,0.659471
1631021170153,-0.202398,0.715347,0.659776
1631021170163,-0.201422,0.715469,0.661301
1631021170173,-0.200873,0.716811,0.662704
1631021170182,-0.201605,0.7169329999999999,0.664656
1631021170192,-0.20166599999999998,0.7166279999999999,0.666181
1631021170201,-0.202154,0.717421,0.6682549999999999
1631021170211,-0.20197099999999998,0.717421,0.6679499999999999
1631021170221,-0.202825,0.719861,0.667523
1631021170230,-0.202642,0.722484,0.6670349999999999
1631021170240,-0.203679,0.720776,0.665022
1631021170249,-0.204838,0.716689,0.664229
1631021170259,-0.205631,0.717116,0.663192
1631021170269,-0.204594,0.717421,0.665022
1631021170278,-0.204289,0.719373,0.664839
1631021170288,-0.20374,0.719434,0.665388
1631021170297,-0.203923,0.720044,0.667218
1631021170307,-0.203374,0.7198,0.6691699999999999
1631021170317,-0.204472,0.719434,0.668987
1631021170326,-0.20410599999999998,0.717299,0.669353
1631021170336,-0.204228,0.717726,0.669353
1631021170345,-0.204594,0.717055,0.6691699999999999
1631021170355,-0.203984,0.716506,0.669658
1631021170365,-0.203618,0.716079,0.670451
1631021170374,-0.202703,0.717177,0.672098
1631021170384,-0.201727,0.716567,0.671305
1631021170393,-0.202154,0.715652,0.670878
1631021170403,-0.201605,0.715286,0.669536
1631021170413,-0.201849,0.715591,0.669658
1631021170422,-0.201849,0.7169329999999999,0.668438
1631021170432,-0.201788,0.716079,0.668194
1631021170441,-0.20288599999999998,0.717604,0.668011
1631021170451,-0.202764,0.71797,0.667889
1631021170461,-0.204167,0.718336,0.665876
1631021170470,-0.203435,0.7178479999999999,0.6661199999999999
1631021170480,-0.203557,0.717299,0.665449
1631021170489,-0.203679,0.716811,0.6661199999999999
1631021170499,-0.20380099999999998,0.717909,0.665022
1631021170509,-0.203008,0.718092,0.665327
1631021170518,-0.20349599999999998,0.717909,0.664656
1631021170528,-0.203435,0.7187629999999999,0.663619
1631021170537,-0.20313,0.7169329999999999,0.6636799999999999
1631021170547,-0.20410599999999998,0.718946,0.6633749999999999
1631021170557,-0.203069,0.7181529999999999,0.664473
1631021170566,-0.203679,0.7181529999999999,0.664839
1631021170576,-0.203435,0.718336,0.664778
1631021170585,-0.203618,0.7181529999999999,0.666242
1631021170595,-0.202947,0.7178479999999999,0.666547
1631021170605,-0.20258099999999998,0.718092,0.667584
1631021170614,-0.20252,0.71736,0.667828
1631021170624,-0.202947,0.716689,0.668377
1631021170633,-0.20197099999999998,0.71553,0.6697799999999999
1631021170643,-0.202398,0.715347,0.669902
1631021170653,-0.203252,0.7141879999999999,0.6691699999999999
1631021170662,-0.203435,0.715469,0.670024
1631021170672,-0.203313,0.71675,0.6700849999999999
1631021170681,-0.204167,0.7178479999999999,0.670878
1631021170691,-0.204716,0.717482,0.671244
1631021170701,-0.204594,0.717726,0.670146
1631021170710,-0.205509,0.7187629999999999,0.669292
1631021170720,-0.207034,0.71553,0.6691699999999999
1631021170729,-0.207156,0.716079,0.667889
1631021170739,-0.206668,0.718824,0.667157
1631021170749,-0.20691199999999998,0.720532,0.665571
1631021170758,-0.206363,0.720715,0.6633749999999999
1631021170768,-0.206668,0.722545,0.6627649999999999
1631021170777,-0.20630199999999999,0.724375,0.661789
1631021170787,-0.207888,0.719922,0.662094
1631021170797,-0.210633,0.71492,0.661484
1631021170806,-0.209901,0.71309,0.662216
1631021170816,-0.208559,0.714371,0.665571
1631021170825,-0.207095,0.7172379999999999,0.667584
1631021170835,-0.206973,0.718336,0.667767
1631021170845,-0.208376,0.718702,0.667462
1631021170854,-0.20843699999999998,0.719617,0.6676449999999999
1631021170864,-0.209108,0.72041,0.666059
1631021170873,-0.209596,0.720044,0.663741
1631021170883,-0.20996199999999998,0.7190679999999999,0.662704
1631021170893,-0.210572,0.717604,0.661484
1631021170902,-0.21045,0.716811,0.660691
1631021170912,-0.20935199999999998,0.7187629999999999,0.660813
1631021170921,-0.210084,0.7190679999999999,0.6600199999999999
1631021170931,-0.209535,0.719495,0.659593
1631021170941,-0.209718,0.719312,0.660264
1631021170950,-0.210084,0.7198,0.661057
1631021170960,-0.20996199999999998,0.719556,0.662887
1631021170969,-0.210267,0.720105,0.6639849999999999
1631021170979,-0.210328,0.720044,0.664717
1631021170989,-0.210328,0.71858,0.6655099999999999
1631021170998,-0.20935199999999998,0.719129,0.664961
1631021171008,-0.210267,0.721569,0.665571
1631021171017,-0.20984,0.721264,0.666059
1631021171027,-0.211365,0.716445,0.665693
1631021171037,-0.211731,0.714371,0.666547
1631021171046,-0.211182,0.7154079999999999,0.666852
1631021171056,-0.210206,0.716994,0.667096
1631021171065,-0.211182,0.718946,0.665632
1631021171075,-0.211487,0.719251,0.6655099999999999
1631021171085,-0.21154799999999999,0.719556,0.6642899999999999
1631021171094,-0.211914,0.720227,0.664534
1631021171104,-0.212036,0.719678,0.663436
1631021171113,-0.21185299999999999,0.719983,0.6627649999999999
1631021171123,-0.212097,0.719861,0.660691
1631021171133,-0.21215799999999999,0.719983,0.660264
1631021171142,-0.212585,0.720837,0.6591049999999999
1631021171152,-0.211243,0.720776,0.659227
1631021171161,-0.21185299999999999,0.72041,0.6606299999999999
1631021171171,-0.21215799999999999,0.720288,0.6603249999999999
1631021171181,-0.210694,0.7184579999999999,0.661362
1631021171190,-0.209779,0.7184579999999999,0.662826
1631021171200,-0.21045,0.717909,0.664168
1631021171209,-0.210633,0.717299,0.664046
1631021171219,-0.21106,0.718702,0.664473
1631021171229,-0.211792,0.717665,0.665632
1631021171238,-0.210938,0.717482,0.664656
1631021171248,-0.210511,0.717787,0.664168
1631021171257,-0.210816,0.718214,0.663924
1631021171267,-0.20996199999999998,0.719556,0.662826
1631021171277,-0.209901,0.719556,0.6621549999999999
1631021171286,-0.209718,0.7198,0.661667
1631021171296,-0.20923,0.71858,0.659898
1631021171305,-0.20904699999999998,0.719922,0.659227
1631021171315,-0.208986,0.719556,0.659654
1631021171325,-0.208254,0.719373,0.659593
1631021171334,-0.208071,0.719434,0.6597149999999999
1631021171344,-0.20801,0.719251,0.660386
1631021171353,-0.206973,0.719739,0.661484
1631021171363,-0.206119,0.719617,0.662277
1631021171373,-0.20630199999999999,0.717726,0.663863
1631021171382,-0.20569199999999999,0.718702,0.664717
1631021171392,-0.205753,0.71919,0.666364
1631021171401,-0.206241,0.71858,0.666303
1631021171411,-0.20660699999999999,0.7172379999999999,0.6670349999999999
1631021171421,-0.20569199999999999,0.717299,0.6673399999999999
1631021171430,-0.206119,0.716689,0.667584
1631021171440,-0.205387,0.7178479999999999,0.669536
1631021171449,-0.20435,0.7184579999999999,0.669841
1631021171459,-0.204167,0.718702,0.669292
1631021171469,-0.204472,0.719434,0.668926
1631021171478,-0.204533,0.71858,0.669292
1631021171488,-0.205326,0.715164,0.667828
1631021171497,-0.20380099999999998,0.717299,0.668804
1631021171507,-0.202764,0.7187629999999999,0.668438
1631021171517,-0.202398,0.7184579999999999,0.666059
1631021171526,-0.202154,0.719312,0.6661199999999999
1631021171536,-0.20166599999999998,0.720837,0.666669
1631021171545,-0.202154,0.719251,0.666974
1631021171555,-0.20435,0.7141879999999999,0.666242
1631021171565,-0.204411,0.7111379999999999,0.665388
1631021171574,-0.204045,0.710894,0.668316
1631021171584,-0.202825,0.713395,0.670329
1631021171593,-0.20197099999999998,0.71248,0.672647
1631021171603,-0.20258099999999998,0.714066,0.673684
1631021171613,-0.202642,0.715164,0.674843
1631021171622,-0.20136099999999998,0.71492,0.674538
1631021171632,-0.203008,0.71492,0.67344
1631021171641,-0.20252,0.7137,0.671854
1631021171651,-0.203313,0.713334,0.671732
1631021171661,-0.202703,0.713456,0.6697799999999999
1631021171670,-0.202947,0.714005,0.6673399999999999
1631021171680,-0.20319099999999998,0.7147979999999999,0.666974
1631021171689,-0.202337,0.715164,0.665327
1631021171699,-0.203069,0.714554,0.666059
1631021171709,-0.202032,0.715042,0.666181
1631021171718,-0.20227599999999998,0.7135779999999999,0.667096
1631021171728,-0.202764,0.714249,0.6679499999999999
1631021171737,-0.20252,0.713029,0.669841
1631021171747,-0.20252,0.71187,0.672037
1631021171757,-0.202093,0.711077,0.672708
1631021171766,-0.202459,0.712602,0.673562
1631021171776,-0.201483,0.716384,0.674416
1631021171785,-0.201605,0.716689,0.67527
1631021171795,-0.202764,0.713029,0.673928
1631021171805,-0.203557,0.710284,0.673806
1631021171814,-0.20288599999999998,0.7111379999999999,0.673257
1631021171824,-0.202154,0.712602,0.673806
1631021171833,-0.20227599999999998,0.71431,0.673989
1631021171843,-0.202398,0.715286,0.673074
1631021171853,-0.20166599999999998,0.715225,0.672586
1631021171862,-0.20197099999999998,0.715347,0.671427
1631021171872,-0.202154,0.715591,0.670756
1631021171881,-0.201483,0.715042,0.671549
1631021171891,-0.201605,0.7151029999999999,0.671732
1631021171901,-0.200995,0.71492,0.671732
1631021171910,-0.201178,0.714066,0.671549
1631021171920,-0.201605,0.7141879999999999,0.671366
1631021171929,-0.200934,0.714676,0.671427
1631021171939,-0.201422,0.714371,0.672403
1631021171949,-0.200995,0.7138829999999999,0.672952
1631021171958,-0.20069,0.714127,0.672952
1631021171968,-0.200202,0.713456,0.674233
1631021171977,-0.200934,0.712846,0.674904
1631021171987,-0.20166599999999998,0.712907,0.674843
1631021171997,-0.201422,0.7135779999999999,0.674294
1631021172006,-0.201422,0.7141879999999999,0.673257
1631021172016,-0.20166599999999998,0.714371,0.672098
1631021172025,-0.202032,0.7147979999999999,0.670024
1631021172035,-0.202398,0.714615,0.670451
1631021172045,-0.20252,0.71553,0.669902
1631021172054,-0.202337,0.714981,0.669414
1631021172064,-0.202337,0.715652,0.668316
1631021172073,-0.202215,0.71492,0.667401
1631021172083,-0.20227599999999998,0.712846,0.666913
1631021172093,-0.201788,0.712236,0.668072
1631021172102,-0.200995,0.712175,0.668682
1631021172112,-0.2013,0.711199,0.668926
1631021172121,-0.20008,0.710955,0.670634
1631021172131,-0.201117,0.712175,0.671915
1631021172141,-0.200873,0.713456,0.67344
1631021172150,-0.201544,0.7138829999999999,0.673257
1631021172160,-0.201422,0.7129679999999999,0.672586
1631021172169,-0.201422,0.711809,0.672464
1631021172179,-0.201239,0.711809,0.672342
1631021172189,-0.20136099999999998,0.711687,0.671854
1631021172198,-0.201483,0.7120529999999999,0.671061
1631021172208,-0.20191,0.712541,0.67283
1631021172217,-0.201239,0.713944,0.674294
1631021172227,-0.20075099999999999,0.71553,0.674965
1631021172237,-0.200629,0.716689,0.674416
1631021172246,-0.200629,0.716994,0.674111
1631021172256,-0.200812,0.711992,0.674172
1631021172265,-0.199775,0.711382,0.673989
1631021172275,-0.199958,0.7138829999999999,0.674477
1631021172285,-0.199592,0.7132729999999999,0.673562
1631021172294,-0.199531,0.712541,0.671793
1631021172304,-0.199043,0.715957,0.672708
1631021172313,-0.199165,0.716201,0.673745
1631021172323,-0.20008,0.7120529999999999,0.673257
1631021172333,-0.201239,0.709064,0.675636
1631021172342,-0.201117,0.708271,0.676551
1631021172352,-0.200324,0.70882,0.679906
1631021172361,-0.20105599999999998,0.709552,0.682102
1631021172371,-0.201422,0.710711,0.683017
1631021172381,-0.20191,0.711321,0.682712
1631021172390,-0.201422,0.71309,0.681492
1631021172400,-0.202459,0.7129679999999999,0.677649
1631021172409,-0.202032,0.712419,0.675209
1631021172419,-0.202703,0.7117479999999999,0.673379
1631021172429,-0.203313,0.711504,0.671366
1631021172438,-0.202703,0.712785,0.6694749999999999
1631021172448,-0.201849,0.713944,0.667706
1631021172457,-0.202032,0.7138829999999999,0.6664249999999999
1631021172467,-0.2013,0.714676,0.665022
1631021172477,-0.201605,0.712785,0.665632
1631021172486,-0.201483,0.7126629999999999,0.6661199999999999
1631021172496,-0.200263,0.7129679999999999,0.667767
1631021172505,-0.200995,0.7117479999999999,0.6697799999999999
1631021172515,-0.200812,0.711382,0.67161
1631021172525,-0.200507,0.711504,0.67344
1631021172534,-0.198555,0.710894,0.67405
1631021172544,-0.198677,0.7144929999999999,0.675026
1631021172553,-0.197274,0.7154079999999999,0.674294
1631021172563,-0.197518,0.712236,0.674172
1631021172573,-0.199043,0.708759,0.673684
1631021172582,-0.198555,0.709796,0.673196
1631021172592,-0.196664,0.711504,0.675514
1631021172601,-0.197213,0.714859,0.675575
1631021172611,-0.196969,0.7154079999999999,0.674904
1631021172621,-0.19763999999999998,0.71492,0.67405
1631021172630,-0.19825,0.714981,0.673074
1631021172640,-0.197701,0.714127,0.673318
1631021172649,-0.19611499999999998,0.714432,0.673684
1631021172659,-0.195749,0.714066,0.672769
1631021172669,-0.195871,0.714066,0.673562
1631021172678,-0.196237,0.713334,0.673318
1631021172688,-0.196542,0.713822,0.673196
1631021172697,-0.19641999999999998,0.714432,0.673501
1631021172707,-0.196664,0.714554,0.673684
1631021172717,-0.196786,0.713517,0.675087
1631021172726,-0.19672499999999998,0.712724,0.675636
1631021172736,-0.197701,0.712724,0.675941
1631021172745,-0.197152,0.712846,0.675636
1631021172755,-0.197762,0.7129679999999999,0.674355
1631021172765,-0.198372,0.712846,0.674599
1631021172774,-0.199104,0.714127,0.673379
1631021172784,-0.19886,0.7129679999999999,0.672647
1631021172793,-0.199043,0.71431,0.671366
1631021172803,-0.199409,0.714981,0.67161
1631021172813,-0.198982,0.7151029999999999,0.671366
1631021172822,-0.199165,0.7154079999999999,0.671244
1631021172832,-0.19947,0.71431,0.670024
1631021172841,-0.199958,0.7138829999999999,0.669353
1631021172851,-0.200202,0.71309,0.669292
1631021172861,-0.200202,0.712541,0.668621
1631021172870,-0.200324,0.7137,0.668011
1631021172880,-0.200324,0.714127,0.668621
1631021172889,-0.20008,0.712602,0.6685599999999999
1631021172899,-0.19983599999999999,0.712907,0.668987
1631021172909,-0.199226,0.711321,0.669719
1631021172918,-0.199714,0.711504,0.670329
1631021172928,-0.200019,0.710955,0.671915
1631021172937,-0.198738,0.710894,0.672159
1631021172947,-0.199226,0.709796,0.673623
1631021172957,-0.200507,0.709796,0.674904
1631021172966,-0.20014099999999999,0.7099179999999999,0.676002
1631021172976,-0.200385,0.711077,0.676856
1631021172985,-0.20014099999999999,0.711931,0.676856
1631021172995,-0.200934,0.7120529999999999,0.67771
1631021173005,-0.201117,0.7126629999999999,0.677161
1631021173014,-0.202032,0.70943,0.676368
1631021173024,-0.202337,0.7093079999999999,0.676246
1631021173033,-0.20166599999999998,0.711992,0.676612
1631021173043,-0.200873,0.712602,0.675087
1631021173053,-0.200324,0.712846,0.673867
1631021173062,-0.200629,0.715164,0.674111
1631021173072,-0.201178,0.715469,0.673623
1631021173081,-0.202825,0.711992,0.67466
1631021173091,-0.203923,0.707112,0.674416
1631021173101,-0.203557,0.70638,0.6771
1631021173110,-0.201605,0.708759,0.679967
1631021173120,-0.200385,0.7111379999999999,0.681736
1631021173129,-0.20069,0.712175,0.682041
1631021173139,-0.19983599999999999,0.7120529999999999,0.682041
1631021173149,-0.199958,0.7123579999999999,0.680516
1631021173158,-0.200812,0.711809,0.677649
1631021173168,-0.20069,0.711016,0.676429
1631021173177,-0.2013,0.708454,0.67466
1631021173187,-0.20166599999999998,0.707722,0.673623
1631021173197,-0.20044599999999999,0.707844,0.671915
1631021173206,-0.200202,0.709674,0.672891
1631021173216,-0.199165,0.7102229999999999,0.671915
1631021173225,-0.199592,0.709857,0.673135
1631021173235,-0.199287,0.709857,0.673928
1631021173245,-0.199104,0.709796,0.674416
1631021173254,-0.198799,0.7090029999999999,0.676246
1631021173264,-0.199409,0.71004,0.675941
1631021173273,-0.198799,0.709186,0.676734
1631021173283,-0.199226,0.7083929999999999,0.676368
1631021173293,-0.19763999999999998,0.709552,0.676185
1631021173302,-0.198372,0.7141879999999999,0.676978
1631021173312,-0.196054,0.712907,0.676551
1631021173321,-0.19825,0.709552,0.675331
1631021173331,-0.19886,0.70638,0.674294
1631021173341,-0.198555,0.7059529999999999,0.67405
1631021173350,-0.198128,0.70821,0.674477
1631021173360,-0.19702999999999998,0.709796,0.67649
1631021173369,-0.196908,0.7105279999999999,0.677344
1631021173379,-0.197823,0.710955,0.677588
1631021173389,-0.19763999999999998,0.710894,0.677649
1631021173398,-0.19763999999999998,0.710406,0.677954
1631021173408,-0.197762,0.709369,0.67771
1631021173417,-0.197823,0.708942,0.679845
1631021173427,-0.196847,0.710406,0.679418
1631021173437,-0.198006,0.71065,0.6791739999999999
1631021173446,-0.197274,0.710894,0.678869
1631021173456,-0.19733499999999998,0.709735,0.678259
1631021173465,-0.198494,0.709552,0.6794789999999999
1631021173475,-0.196847,0.708881,0.679906
1631021173485,-0.196298,0.707234,0.682346
1631021173494,-0.195444,0.709186,0.684298
1631021173504,-0.195139,0.708881,0.6861889999999999
1631021173513,-0.19983599999999999,0.708515,0.684908
1631021173523,-0.200507,0.705282,0.6813089999999999
1631021173533,-0.19947,0.704977,0.679906
1631021173542,-0.198799,0.706319,0.677649
1631021173552,-0.199104,0.708332,0.674782
1631021173561,-0.198311,0.709857,0.674843
1631021173571,-0.198616,0.710345,0.67466
1631021173581,-0.198738,0.711199,0.67405
1631021173590,-0.198494,0.7111379999999999,0.674721
1631021173600,-0.19763999999999998,0.709857,0.675636
1631021173609,-0.196969,0.709369,0.675087
1631021173619,-0.196176,0.7086979999999999,0.675636
1631021173629,-0.195688,0.707905,0.676124
1631021173638,-0.195017,0.7090029999999999,0.675514
1631021173648,-0.194346,0.7099179999999999,0.676551
1631021173657,-0.193248,0.71126,0.676246
1631021173667,-0.192882,0.711565,0.677588
1631021173677,-0.192516,0.7108329999999999,0.679235
1631021173686,-0.19147899999999998,0.710284,0.681736
1631021173696,-0.190442,0.70882,0.683566
1631021173705,-0.190015,0.7086979999999999,0.683322
1631021173715,-0.190076,0.707722,0.6832
1631021173725,-0.189832,0.7080879999999999,0.683871
1631021173734,-0.187636,0.712175,0.688385
1631021173744,-0.186965,0.712785,0.695278
1631021173753,-0.188002,0.7093079999999999,0.696071
1631021173763,-0.189405,0.706502,0.698023
1631021173773,-0.189222,0.7056479999999999,0.697535
1631021173782,-0.18812399999999999,0.704062,0.697108
1631021173792,-0.187697,0.7068679999999999,0.694546
1631021173801,-0.18562299999999998,0.710284,0.691008
1631021173811,-0.18470799999999998,0.7099179999999999,0.68564
1631021173821,-0.183671,0.711321,0.681797
1631021173830,-0.183,0.714676,0.677954
1631021173840,-0.182146,0.716811,0.675575
1631021173849,-0.181597,0.714981,0.674904
1631021173859,-0.181109,0.71248,0.674782
1631021173869,-0.179218,0.7111379999999999,0.673867
1631021173878,-0.177998,0.70943,0.674233
1631021173888,-0.176168,0.707661,0.673623
1631021173897,-0.174399,0.708149,0.673379
1631021173907,-0.172508,0.70943,0.672403
1631021173917,-0.17116599999999998,0.711931,0.671
1631021173926,-0.171227,0.712785,0.669658
1631021173936,-0.169763,0.715774,0.668682
1631021173945,-0.168787,0.716506,0.6691699999999999
1631021173955,-0.16775,0.716994,0.670512
1631021173965,-0.166774,0.71614,0.669414
1631021173974,-0.167201,0.71736,0.669353
1631021173984,-0.167079,0.717177,0.669902
1631021173993,-0.16500499999999999,0.715652,0.672281
1631021174003,-0.164944,0.715347,0.674843
1631021174013,-0.166347,0.713456,0.6771
1631021174022,-0.165859,0.71187,0.6813089999999999
1631021174032,-0.165554,0.710406,0.683627
1631021174041,-0.165493,0.707844,0.686128
1631021174051,-0.164883,0.705465,0.690032
1631021174061,-0.16408999999999999,0.7041229999999999,0.690886
1631021174070,-0.163663,0.705526,0.694729
1631021174080,-0.163114,0.704489,0.696254
1631021174089,-0.163846,0.69906,0.69845
1631021174099,-0.166286,0.689605,0.703757
1631021174109,-0.163236,0.6889339999999999,0.708149
1631021174118,-0.157807,0.706136,0.709125
1631021174128,-0.155916,0.697047,0.724863
1631021174137,-0.14926699999999998,0.699304,0.73566
1631021174147,-0.149755,0.698877,0.74298
1631021174157,-0.150304,0.69662,0.74298
1631021174166,-0.146339,0.697291,0.7424919999999999
1631021174176,-0.141947,0.699121,0.740784
1631021174185,-0.138226,0.698572,0.734318
1631021174195,-0.13786,0.696193,0.728035
1631021174205,-0.137372,0.6898489999999999,0.726815
1631021174214,-0.135664,0.682468,0.726083
1631021174224,-0.133834,0.675331,0.726754
1631021174233,-0.13017399999999998,0.670756,0.7269369999999999
1631021174243,-0.125294,0.6655099999999999,0.728523
1631021174253,-0.12071899999999999,0.659532,0.728706
1631021174262,-0.115717,0.651602,0.7275469999999999
1631021174272,-0.110044,0.647576,0.726327
1631021174281,-0.104554,0.6402559999999999,0.723704
1631021174291,-0.099491,0.636413,0.719556
1631021174301,-0.094245,0.635925,0.719251
1631021174310,-0.08723,0.6405,0.722911
1631021174320,-0.078812,0.6378159999999999,0.732366
1631021174329,-0.071797,0.6405609999999999,0.739869
1631021174339,-0.066612,0.640927,0.747311
1631021174349,-0.061549,0.641842,0.75457
1631021174358,-0.060573,0.639402,0.758535
1631021174368,-0.055449,0.6399509999999999,0.763964
1631021174377,-0.053191999999999996,0.63867,0.767685
1631021174387,-0.051545,0.638609,0.771223
1631021174397,-0.05063,0.636474,0.776347
1631021174406,-0.05124,0.632753,0.7771399999999999
1631021174416,-0.050935,0.632265,0.778787
1631021174425,-0.049837,0.631289,0.7814099999999999
1631021174435,-0.049471,0.629764,0.783484
1631021174445,-0.047458,0.6283,0.784643
1631021174454,-0.046238,0.626043,0.7847649999999999
1631021174464,-0.045933,0.621956,0.7853749999999999
1631021174473,-0.046543,0.616588,0.785314
1631021174483,-0.044774,0.6146969999999999,0.785619
1631021174493,-0.044835,0.6134769999999999,0.785009
1631021174502,-0.04514,0.611098,0.785436
1631021174512,-0.044164,0.60939,0.785802
1631021174521,-0.043248999999999996,0.609573,0.785558
1631021174531,-0.04331,0.60878,0.7859849999999999
1631021174541,-0.042822,0.609573,0.786778
1631021174550,-0.043066,0.61122,0.786473
1631021174560,-0.043798,0.61183,0.7859849999999999
1631021174569,-0.04331,0.609024,0.785558
1631021174579,-0.043005,0.609146,0.7865949999999999
1631021174589,-0.042029,0.612501,0.787693
1631021174598,-0.041784999999999996,0.610915,0.786778
1631021174608,-0.041907,0.610915,0.785192
1631021174617,-0.039833,0.613599,0.785619
1631021174627,-0.040015999999999996,0.611708,0.783484
1631021174637,-0.040504,0.606828,0.781227
1631021174646,-0.040992,0.603534,0.782203
1631021174656,-0.042273,0.606584,0.786534
1631021174665,-0.04209,0.6079869999999999,0.788669
1631021174675,-0.0427,0.606218,0.788486
1631021174685,-0.042883,0.607438,0.7920849999999999
1631021174694,-0.042151,0.6098169999999999,0.797209
1631021174704,-0.041663,0.613355,0.800503
1631021174713,-0.042638999999999996,0.61061,0.7996489999999999
1631021174723,-0.043615,0.60817,0.798063
1631021174733,-0.044896,0.609085,0.798124
1631021174742,-0.045628,0.608231,0.797148
1631021174752,-0.046665,0.606157,0.793061
1631021174761,-0.048312,0.6039,0.7893399999999999
1631021174771,-0.050081,0.603046,0.787083
1631021174781,-0.050813,0.604144,0.785924
1631021174790,-0.05185,0.60329,0.7856799999999999
1631021174800,-0.053436,0.602924,0.7868999999999999
1631021174809,-0.05307,0.603412,0.787937
1631021174819,-0.053741,0.601399,0.788913
1631021174829,-0.054655999999999996,0.60146,0.788059
1631021174838,-0.055205,0.602924,0.789584
1631021174848,-0.054412,0.6039,0.792268
1631021174857,-0.056119999999999996,0.609146,0.789157
1631021174867,-0.055998,0.612074,0.788242
1631021174877,-0.057888999999999996,0.6140869999999999,0.787693
1631021174886,-0.059109,0.61366,0.7893399999999999
1631021174896,-0.058255,0.612196,0.792878
1631021174905,-0.059352999999999996,0.6131719999999999,0.794403
1631021174915,-0.058804,0.614819,0.79422
1631021174925,-0.060024,0.6159169999999999,0.79422
1631021174934,-0.05917,0.6159169999999999,0.794586
1631021174944,-0.056974,0.6161,0.793671
1631021174953,-0.05368,0.617503,0.792756
1631021174963,-0.053009,0.616649,0.789523
1631021174973,-0.052521,0.617198,0.7868999999999999
1631021174982,-0.052399,0.615795,0.7856799999999999
1631021174992,-0.052094,0.614331,0.785192
1631021175001,-0.05185,0.6131719999999999,0.782508
1631021175011,-0.049776,0.607865,0.782996
1631021175021,-0.046482,0.600423,0.787571
1631021175030,-0.045689,0.596336,0.790011
1631021175040,-0.04514,0.5967629999999999,0.795257
1631021175049,-0.04453,0.598837,0.79788
1631021175059,-0.043371,0.598227,0.796965
1631021175069,-0.04209,0.59719,0.797758
1631021175078,-0.041602,0.5921879999999999,0.797514
1631021175088,-0.043066,0.5882229999999999,0.795318
1631021175097,-0.041968,0.585356,0.793854
1631021175107,-0.040626,0.584319,0.795989
1631021175117,-0.038735,0.581879,0.798246
1631021175126,-0.036295,0.58133,0.804468
1631021175136,-0.035197,0.579683,0.8127639999999999
1631021175145,-0.032574,0.574315,0.817766
1631021175155,-0.029341,0.567361,0.823866
1631021175165,-0.028364999999999998,0.564616,0.830942
1631021175174,-0.028487,0.56181,0.8328329999999999
1631021175184,-0.030987999999999998,0.560895,0.833321
1631021175193,-0.034099,0.5614439999999999,0.831857
1631021175203,-0.036112,0.5617489999999999,0.8297829999999999
1631021175213,-0.038003,0.562298,0.827282
1631021175222,-0.043493,0.5614439999999999,0.8239879999999999
1631021175232,-0.047824,0.559553,0.822951
1631021175241,-0.052216,0.557967,0.8221579999999999
1631021175251,-0.055876,0.556259,0.823561
1631021175261,-0.060451,0.554612,0.824842
1631021175270,-0.064843,0.552599,0.826184
1631021175280,-0.068869,0.55083,0.8288679999999999
1631021175289,-0.071797,0.546316,0.829661
1631021175299,-0.075945,0.545584,0.83204
1631021175309,-0.077775,0.545401,0.833504
1631021175318,-0.08113,0.544486,0.8349679999999999
1631021175328,-0.08326499999999999,0.544608,0.835822
1631021175337,-0.085217,0.543083,0.836554
1631021175347,-0.086986,0.542534,0.83875
1631021175357,-0.08790099999999999,0.5441199999999999,0.840885
1631021175366,-0.087596,0.548024,0.842837
1631021175376,-0.087108,0.548878,0.841617
1631021175385,-0.086132,0.554307,0.84302
1631021175395,-0.084607,0.560773,0.843508
1631021175405,-0.084729,0.560346,0.84119
1631021175414,-0.087413,0.555954,0.837774
1631021175424,-0.08784,0.552965,0.837042
1631021175433,-0.086132,0.554124,0.8374079999999999
1631021175443,-0.084058,0.557296,0.838384
1631021175453,-0.081496,0.559858,0.83814
1631021175462,-0.079849,0.561932,0.838811
1631021175472,-0.077165,0.564067,0.837042
1631021175481,-0.07649399999999999,0.5657139999999999,0.835944
1631021175491,-0.07442,0.566141,0.832772
1631021175501,-0.072712,0.564982,0.830271
1631021175510,-0.071126,0.563762,0.83021
1631021175520,-0.068564,0.563091,0.829112
1631021175529,-0.066063,0.559431,0.827892
1631021175539,-0.063684,0.556259,0.827709
1631021175549,-0.062769,0.553026,0.828075
1631021175558,-0.060329,0.549793,0.826306
1631021175568,-0.060085,0.547597,0.824842
1631021175577,-0.059414,0.547658,0.8235
1631021175587,-0.058072,0.546987,0.82167
1631021175597,-0.058193999999999996,0.546072,0.822097
1631021175606,-0.05795,0.543876,0.822524
1631021175616,-0.056547,0.541619,0.820267
1631021175625,-0.056119999999999996,0.545706,0.820267
1631021175635,-0.056729999999999996,0.5483899999999999,0.820938
1631021175645,-0.058987,0.5465599999999999,0.819962
1631021175654,-0.062952,0.541924,0.821548
1631021175664,-0.064416,0.541619,0.822646
1631021175673,-0.065758,0.543998,0.8258179999999999
1631021175683,-0.06709999999999999,0.545462,0.827282
1631021175693,-0.068076,0.545767,0.829356
1631021175702,-0.068808,0.547719,0.829905
1631021175712,-0.071797,0.549854,0.831796
1631021175721,-0.072773,0.550708,0.8334429999999999
1631021175731,-0.074237,0.549549,0.833626
1631021175741,-0.077775,0.548817,0.832711
1631021175750,-0.079239,0.548817,0.832162
1631021175760,-0.080459,0.549183,0.831552
1631021175769,-0.081618,0.5477799999999999,0.830149
1631021175779,-0.081618,0.54961,0.83021
1631021175789,-0.080764,0.551989,0.830027
1631021175798,-0.080825,0.551867,0.829234
1631021175808,-0.081252,0.553148,0.827282
1631021175817,-0.080764,0.55449,0.829051
1631021175827,-0.078751,0.556625,0.828136
1631021175837,-0.078934,0.559248,0.825391
1631021175846,-0.079605,0.561932,0.82289
1631021175856,-0.076677,0.559248,0.82533
1631021175865,-0.071797,0.554795,0.8331379999999999
1631021175875,-0.06893,0.550952,0.837591
1631021175885,-0.067466,0.549793,0.836066
1631021175894,-0.066856,0.547658,0.831674
1631021175904,-0.067893,0.546499,0.829661
1631021175913,-0.065453,0.545889,0.829112
1631021175923,-0.062769,0.5471699999999999,0.829417
1631021175933,-0.062098,0.549061,0.831674
1631021175942,-0.060268,0.547353,0.833992
1631021175952,-0.059352999999999996,0.544913,0.834907
1631021175961,-0.057706,0.544608,0.83631
1631021175971,-0.057096,0.547231,0.8377129999999999
1631021175981,-0.056303,0.546987,0.839177
1631021175990,-0.056303,0.543693,0.838811
1631021176000,-0.055937,0.5398499999999999,0.838994
1631021176009,-0.057279,0.538264,0.838079
1631021176019,-0.056424999999999996,0.5364949999999999,0.838262
1631021176029,-0.056913,0.534482,0.836676
1631021176038,-0.056852,0.53253,0.834907
1631021176048,-0.05917,0.531371,0.834419
1631021176057,-0.062708,0.531005,0.834541
1631021176067,-0.064904,0.528565,0.834419
1631021176077,-0.066063,0.526491,0.834907
1631021176086,-0.065209,0.526979,0.8346629999999999
1631021176096,-0.066673,0.526064,0.831369
1631021176105,-0.070272,0.5240509999999999,0.827099
1631021176115,-0.072712,0.527162,0.828746
1631021176125,-0.076006,0.527894,0.8270379999999999
1631021176134,-0.07686,0.528626,0.826794
1631021176144,-0.078812,0.530761,0.827892
1631021176153,-0.079361,0.536861,0.833199
1631021176163,-0.079178,0.541558,0.835456
1631021176173,-0.079605,0.539606,0.838445
1631021176182,-0.08174,0.539057,0.841373
1631021176192,-0.082899,0.539057,0.842837
1631021176201,-0.083753,0.5380199999999999,0.845277
1631021176211,-0.083631,0.538386,0.8461919999999999
1631021176221,-0.085095,0.538813,0.84668
1631021176230,-0.08479,0.539667,0.8474119999999999
1631021176240,-0.084546,0.541802,0.8479
1631021176249,-0.083631,0.542412,0.84607
1631021176259,-0.08295999999999999,0.543632,0.84546
1631021176269,-0.082289,0.543144,0.842898
1631021176278,-0.081435,0.543693,0.841495
1631021176288,-0.079971,0.543327,0.840519
1631021176297,-0.078812,0.540033,0.840946
1631021176307,-0.077592,0.539301,0.83936
1631021176317,-0.075091,0.538569,0.838872
1631021176326,-0.07326099999999999,0.5380199999999999,0.839665
1631021176336,-0.072041,0.5383249999999999,0.840336
1631021176345,-0.070882,0.536861,0.841312
1631021176355,-0.069113,0.534238,0.842044
1631021176365,-0.067649,0.53192,0.841434
1631021176374,-0.067588,0.530883,0.840824
1631021176384,-0.065331,0.531432,0.8418
1631021176393,-0.063745,0.533262,0.843264
1631021176403,-0.062891,0.533262,0.842837
1631021176413,-0.06283,0.531005,0.842532
1631021176422,-0.063562,0.527589,0.842166
1631021176432,-0.063501,0.525637,0.842105
1631021176441,-0.06417199999999999,0.524844,0.843081
1631021176451,-0.064294,0.524661,0.841678
1631021176461,-0.065026,0.5225259999999999,0.841678
1631021176470,-0.064965,0.522343,0.841739
1631021176480,-0.066368,0.521367,0.842105
1631021176489,-0.067527,0.519598,0.841312
1631021176499,-0.06893,0.5179509999999999,0.841007
1631021176509,-0.07124799999999999,0.5167309999999999,0.840702
1631021176518,-0.072834,0.5152059999999999,0.840885
1631021176528,-0.075884,0.517768,0.837957
1631021176537,-0.078202,0.518012,0.837957
1631021176547,-0.079361,0.518378,0.838201
1631021176557,-0.082228,0.51911,0.837591
1631021176566,-0.084668,0.51972,0.839299
1631021176576,-0.086925,0.5210009999999999,0.841129
1631021176585,-0.088938,0.521367,0.84302
1631021176595,-0.091012,0.5228309999999999,0.844179
1631021176605,-0.093208,0.5234409999999999,0.843996
1631021176614,-0.094306,0.52643,0.84607
1631021176624,-0.09455,0.527284,0.845704
1631021176633,-0.095221,0.528565,0.845643
1631021176643,-0.09497699999999999,0.529053,0.84546
1631021176653,-0.09467199999999999,0.531432,0.846131
1631021176662,-0.094855,0.532347,0.846375
1631021176672,-0.09406199999999999,0.533689,0.846741
1631021176681,-0.092415,0.534726,0.847168
1631021176691,-0.090585,0.533506,0.847534
1631021176701,-0.089487,0.532164,0.8474119999999999
1631021176710,-0.087352,0.532103,0.8464969999999999
1631021176720,-0.085522,0.531066,0.845826
1631021176729,-0.083448,0.531127,0.845033
1631021176739,-0.080703,0.530639,0.846375
1631021176749,-0.078629,0.529541,0.845582
1631021176758,-0.076311,0.528931,0.845033
1631021176768,-0.073688,0.526125,0.844728
1631021176777,-0.072468,0.524966,0.843264
1631021176787,-0.069174,0.524417,0.843508
1631021176797,-0.067588,0.522892,0.842837
1631021176806,-0.064294,0.521184,0.845033
1631021176816,-0.063562,0.51911,0.845826
1631021176825,-0.061732,0.517768,0.846741
1631021176835,-0.060756,0.515633,0.848144
1631021176845,-0.059719,0.5158159999999999,0.84851
1631021176854,-0.058621,0.513437,0.8498519999999999
1631021176864,-0.056486,0.510997,0.8495469999999999
1631021176873,-0.055937,0.508008,0.8519869999999999
1631021176883,-0.056119999999999996,0.508191,0.852536
1631021176893,-0.055327,0.508862,0.853024
1631021176902,-0.055083,0.508435,0.853146
1631021176912,-0.055205,0.509106,0.852353
1631021176921,-0.055754,0.510204,0.852536
1631021176931,-0.056974,0.509472,0.851865
1631021176941,-0.059536,0.504836,0.85095
1631021176950,-0.06222,0.502884,0.8513769999999999
1631021176960,-0.064233,0.50264,0.85339
1631021176969,-0.064416,0.50325,0.85583
1631021176979,-0.065453,0.503494,0.858026
1631021176989,-0.06770999999999999,0.503616,0.860161
1631021176998,-0.069845,0.504836,0.860405
1631021177008,-0.071675,0.506849,0.860466
1631021177017,-0.07448099999999999,0.507703,0.857965
1631021177027,-0.076921,0.509472,0.8580869999999999
1631021177037,-0.077653,0.510997,0.857538
1631021177046,-0.078141,0.512827,0.856806
1631021177056,-0.077958,0.515023,0.856318
1631021177065,-0.079788,0.515389,0.8556469999999999
1631021177075,-0.07942199999999999,0.515633,0.854854
1631021177085,-0.07869,0.515938,0.856928
1631021177094,-0.07972699999999999,0.516792,0.8556469999999999
1631021177104,-0.078507,0.5161209999999999,0.85461
1631021177113,-0.078995,0.5167309999999999,0.853268
1631021177123,-0.07972699999999999,0.5161209999999999,0.853146
1631021177133,-0.078934,0.5155109999999999,0.8529019999999999
1631021177142,-0.079178,0.514352,0.852963
1631021177152,-0.077165,0.5142909999999999,0.851316
1631021177161,-0.075945,0.517097,0.853085
1631021177171,-0.074664,0.518683,0.852841
1631021177181,-0.07442,0.516914,0.850218
1631021177190,-0.075457,0.5133759999999999,0.8483269999999999
1631021177200,-0.074847,0.512217,0.847778
1631021177209,-0.073688,0.512644,0.84973
1631021177219,-0.073078,0.513742,0.84973
1631021177229,-0.072102,0.513254,0.849364
1631021177238,-0.071797,0.51301,0.847961
1631021177248,-0.07137,0.512156,0.847168
1631021177257,-0.070821,0.510814,0.847473
1631021177267,-0.070089,0.510265,0.848571
1631021177277,-0.07015,0.50874,0.8483269999999999
1631021177286,-0.070821,0.508252,0.849059
1631021177296,-0.071187,0.506544,0.849974
1631021177305,-0.070394,0.506544,0.849974
1631021177315,-0.070699,0.507398,0.851255
1631021177325,-0.07094299999999999,0.5063,0.852353
1631021177334,-0.070211,0.50813,0.852658
1631021177344,-0.071126,0.50996,0.852841
1631021177353,-0.072163,0.510448,0.853634
1631021177363,-0.07198,0.510265,0.85522
1631021177373,-0.071736,0.509594,0.8559519999999999
1631021177382,-0.071309,0.509594,0.856745
1631021177392,-0.072163,0.511302,0.857599
1631021177401,-0.07033299999999999,0.515389,0.859368
1631021177411,-0.070699,0.519903,0.859673
1631021177421,-0.072712,0.520208,0.85949
1631021177430,-0.07564,0.518805,0.856196
1631021177440,-0.075518,0.51728,0.855586
1631021177449,-0.076311,0.515999,0.8541219999999999
1631021177459,-0.07649399999999999,0.512644,0.852475
1631021177469,-0.07625,0.509838,0.850584
1631021177478,-0.075884,0.507276,0.850401
1631021177488,-0.07442,0.507154,0.850584
1631021177497,-0.072163,0.507642,0.851255
1631021177507,-0.07124799999999999,0.507032,0.852048
1631021177517,-0.07002799999999999,0.505629,0.852109
1631021177526,-0.069418,0.504592,0.85522
1631021177536,-0.066978,0.503616,0.8568669999999999
1631021177545,-0.06539199999999999,0.502152,0.858453
1631021177555,-0.064538,0.501603,0.861076
1631021177565,-0.063989,0.500139,0.8608319999999999
1631021177574,-0.063562,0.498797,0.859429
1631021177584,-0.063989,0.49855299999999997,0.857843
1631021177593,-0.06344,0.501054,0.856989
1631021177603,-0.062586,0.503067,0.8583919999999999
1631021177613,-0.062708,0.504958,0.85766
1631021177622,-0.063196,0.505934,0.857355
1631021177632,-0.063745,0.50569,0.856196
1631021177641,-0.065453,0.505385,0.8559519999999999
1631021177651,-0.06527,0.508618,0.855159
1631021177661,-0.065209,0.511119,0.853634
1631021177670,-0.065758,0.509594,0.850523
1631021177680,-0.066856,0.512278,0.849425
1631021177689,-0.066856,0.514413,0.850218
1631021177699,-0.067771,0.513254,0.8498519999999999
1631021177709,-0.070516,0.51057,0.850096
1631021177718,-0.071309,0.509228,0.851255
1631021177728,-0.07124799999999999,0.508435,0.8544269999999999
1631021177737,-0.070455,0.509411,0.85522
1631021177747,-0.07063799999999999,0.510753,0.8568669999999999
1631021177757,-0.071309,0.5124,0.856928
1631021177766,-0.07033299999999999,0.51423,0.858209
1631021177776,-0.071614,0.515145,0.858148
1631021177785,-0.072346,0.515023,0.856318
1631021177795,-0.072468,0.5145959999999999,0.855098
1631021177805,-0.073322,0.515877,0.854061
1631021177814,-0.07326099999999999,0.515999,0.851926
1631021177824,-0.074237,0.515572,0.8516819999999999
1631021177833,-0.074237,0.5164259999999999,0.850584
1631021177843,-0.074115,0.516304,0.84973
1631021177853,-0.073749,0.5155109999999999,0.8483269999999999
1631021177862,-0.07381,0.51545,0.847839
1631021177872,-0.073749,0.515267,0.847961
1631021177881,-0.07381,0.5136809999999999,0.847595
1631021177891,-0.073505,0.511912,0.848876
1631021177901,-0.074298,0.510082,0.8495469999999999
1631021177910,-0.073993,0.507764,0.850035
1631021177920,-0.073383,0.508191,0.8504619999999999
1631021177929,-0.072895,0.51179,0.851438
1631021177939,-0.072834,0.511241,0.8510719999999999
1631021177949,-0.074298,0.509167,0.850828
1631021177958,-0.075335,0.505812,0.851316
1631021177968,-0.07564,0.507032,0.852658
1631021177977,-0.074359,0.507276,0.854
1631021177987,-0.07442,0.51057,0.855159
1631021177997,-0.074298,0.51057,0.85522
1631021178006,-0.075152,0.510692,0.856013
1631021178016,-0.075335,0.512522,0.85461
1631021178025,-0.075701,0.512888,0.85278
1631021178035,-0.076433,0.512583,0.851011
1631021178045,-0.077043,0.511851,0.850218
1631021178054,-0.076006,0.51118,0.850828
1631021178064,-0.076006,0.511668,0.8510719999999999
1631021178073,-0.076067,0.512278,0.8513769999999999
1631021178083,-0.076067,0.51362,0.851743
1631021178093,-0.076128,0.512949,0.853451
1631021178102,-0.07564,0.512156,0.854061
1631021178112,-0.075518,0.510936,0.85522
1631021178121,-0.075823,0.510387,0.85583
1631021178131,-0.075518,0.50935,0.856684
1631021178141,-0.076006,0.508862,0.85766
1631021178150,-0.07503,0.509533,0.857843
1631021178160,-0.076616,0.510631,0.85766
1631021178169,-0.076433,0.510753,0.857355
1631021178179,-0.076311,0.512217,0.856806
1631021178189,-0.07625,0.512278,0.856623
1631021178198,-0.076616,0.513254,0.856074
1631021178208,-0.075945,0.512644,0.853756
1631021178217,-0.076128,0.51179,0.8519869999999999
1631021178227,-0.076006,0.510448,0.850401
1631021178237,-0.075823,0.510204,0.850218
1631021178246,-0.075091,0.50996,0.849486
1631021178256,-0.074359,0.509838,0.849303
1631021178265,-0.074054,0.511241,0.8486319999999999
1631021178275,-0.0732,0.510631,0.848266
1631021178285,-0.073627,0.510448,0.84912
1631021178294,-0.073932,0.510753,0.848876
1631021178304,-0.072102,0.508984,0.849608
1631021178313,-0.072834,0.508496,0.84973
1631021178323,-0.072468,0.508679,0.848876
1631021178333,-0.072224,0.50874,0.8492419999999999
1631021178342,-0.071797,0.509716,0.850096
1631021178352,-0.071126,0.509838,0.852719
1631021178361,-0.07124799999999999,0.508984,0.853085
1631021178371,-0.071004,0.509777,0.852963
1631021178381,-0.07198,0.510753,0.854488
1631021178390,-0.072102,0.510692,0.855769
1631021178400,-0.072651,0.511058,0.855281
1631021178409,-0.07381,0.50935,0.855464
1631021178419,-0.073627,0.506666,0.853939
1631021178429,-0.072956,0.511058,0.855098
1631021178438,-0.074054,0.51301,0.854915
1631021178448,-0.07381,0.514962,0.8529019999999999
1631021178457,-0.073932,0.5158159999999999,0.851499
1631021178467,-0.075823,0.519415,0.850889
1631021178477,-0.075457,0.5188659999999999,0.848388
1631021178486,-0.078446,0.515755,0.845826
1631021178496,-0.07972699999999999,0.512888,0.846253
1631021178505,-0.0793,0.512156,0.848754
1631021178515,-0.077592,0.513193,0.8510719999999999
1631021178525,-0.077348,0.514657,0.8522919999999999
1631021178534,-0.07747,0.5133759999999999,0.853329
1631021178544,-0.078568,0.513437,0.85461
1631021178553,-0.07911699999999999,0.5136809999999999,0.855098
1631021178563,-0.079056,0.512644,0.85461
1631021178573,-0.079361,0.510875,0.853695
1631021178582,-0.07911699999999999,0.50996,0.85278
1631021178592,-0.079971,0.509289,0.852048
1631021178601,-0.079971,0.510387,0.851621
1631021178611,-0.07972699999999999,0.511424,0.850279
1631021178621,-0.079788,0.512156,0.850279
1631021178630,-0.081679,0.512644,0.848571
1631021178640,-0.08033699999999999,0.5124,0.848388
1631021178649,-0.079605,0.513864,0.848205
1631021178659,-0.07942199999999999,0.514474,0.8492419999999999
1631021178669,-0.07991,0.51423,0.84912
1631021178678,-0.079178,0.512827,0.849364
1631021178688,-0.07942199999999999,0.512583,0.85034
1631021178697,-0.078507,0.512583,0.850584
1631021178707,-0.077226,0.5152059999999999,0.852231
1631021178717,-0.077043,0.515633,0.852475
1631021178726,-0.077043,0.5133759999999999,0.851743
1631021178736,-0.078141,0.508618,0.852231
1631021178745,-0.077531,0.507825,0.8519869999999999
1631021178755,-0.077958,0.508557,0.851926
1631021178765,-0.07679899999999999,0.50935,0.8532069999999999
1631021178774,-0.076372,0.508984,0.8538169999999999
1631021178784,-0.077348,0.507947,0.854854
1631021178793,-0.077592,0.507947,0.855098
1631021178803,-0.07808,0.507215,0.8556469999999999
1631021178813,-0.078751,0.507459,0.854549
1631021178822,-0.07869,0.509777,0.856013
1631021178832,-0.078751,0.512156,0.855098
1631021178841,-0.07747,0.512827,0.855098
1631021178851,-0.077958,0.512888,0.8538169999999999
1631021178861,-0.078995,0.511851,0.853024
1631021178870,-0.077714,0.512278,0.852536
1631021178880,-0.077836,0.511851,0.852048
1631021178889,-0.076921,0.511119,0.852963
1631021178899,-0.076738,0.5124609999999999,0.852414
1631021178909,-0.076433,0.51118,0.852658
1631021178918,-0.075762,0.511546,0.853024
1631021178928,-0.07503,0.512827,0.853329
1631021178937,-0.074542,0.510692,0.854549
1631021178947,-0.073932,0.510814,0.8547319999999999
1631021178957,-0.074908,0.509472,0.853756
1631021178966,-0.074664,0.510387,0.854244
1631021178976,-0.073932,0.510753,0.852658
1631021178985,-0.07387099999999999,0.51118,0.8510719999999999
1631021178995,-0.073444,0.510082,0.851865
1631021179005,-0.072773,0.509838,0.852231
1631021179014,-0.073627,0.510448,0.850706
1631021179024,-0.073322,0.511058,0.8498519999999999
1631021179033,-0.07259,0.511363,0.8498519999999999
1631021179043,-0.07198,0.510936,0.850096
1631021179053,-0.071736,0.509838,0.850645
1631021179062,-0.072468,0.510021,0.849974
1631021179072,-0.072224,0.510509,0.8501569999999999
1631021179081,-0.071187,0.51118,0.850645
1631021179091,-0.07155299999999999,0.511973,0.85095
1631021179101,-0.072041,0.512888,0.851926
1631021179110,-0.07198,0.511973,0.8522919999999999
1631021179120,-0.071126,0.511058,0.85278
1631021179129,-0.07094299999999999,0.510265,0.852048
1631021179139,-0.07137,0.509594,0.8529019999999999
1631021179149,-0.071919,0.508618,0.853878
1631021179158,-0.072407,0.507886,0.852963
1631021179168,-0.072041,0.50691,0.853146
1631021179177,-0.071919,0.507398,0.8541219999999999
1631021179187,-0.072346,0.508313,0.855525
1631021179197,-0.07259,0.509472,0.855586
1631021179206,-0.07381,0.511424,0.856501
1631021179216,-0.074237,0.512217,0.855464
1631021179225,-0.075091,0.512278,0.854549
1631021179235,-0.075701,0.50996,0.854305
1631021179245,-0.07564,0.5127659999999999,0.855098
1631021179254,-0.075396,0.5145959999999999,0.854488
1631021179264,-0.07448099999999999,0.513925,0.852231
1631021179273,-0.074237,0.514169,0.851499
1631021179283,-0.075152,0.516792,0.851194
1631021179293,-0.075335,0.515633,0.850401
1631021179302,-0.077348,0.511546,0.848815
1631021179312,-0.07808,0.509594,0.849181
1631021179321,-0.077287,0.509106,0.85095
1631021179331,-0.07618899999999999,0.510143,0.852231
1631021179341,-0.075762,0.510936,0.853268
1631021179350,-0.07679899999999999,0.510753,0.854366
1631021179360,-0.076372,0.510326,0.854854
1631021179369,-0.076311,0.510875,0.8550369999999999
1631021179379,-0.07503,0.511302,0.855281
1631021179389,-0.075579,0.511058,0.8529019999999999
1631021179398,-0.076067,0.510509,0.853268
1631021179408,-0.077287,0.510814,0.851865
1631021179417,-0.075701,0.512827,0.8504619999999999
1631021179427,-0.075396,0.51362,0.850279
1631021179437,-0.075518,0.513803,0.849486
1631021179446,-0.075701,0.512888,0.848693
1631021179456,-0.075823,0.512583,0.848571
1631021179465,-0.075152,0.511851,0.848998
1631021179475,-0.075274,0.51179,0.848876
1631021179485,-0.074847,0.512278,0.8492419999999999
1631021179494,-0.073444,0.510265,0.850218
1631021179504,-0.073444,0.509106,0.85339
1631021179513,-0.072834,0.508923,0.853939
1631021179523,-0.072773,0.509899,0.854305
1631021179533,-0.071126,0.511668,0.855525
1631021179542,-0.071614,0.512156,0.854915
1631021179552,-0.07137,0.508557,0.853939
1631021179561,-0.07326099999999999,0.507154,0.853268
1631021179571,-0.072895,0.508191,0.853634
1631021179581,-0.072102,0.509899,0.853634
1631021179590,-0.071675,0.510692,0.854549
1631021179600,-0.07137,0.510265,0.854183
1631021179609,-0.071004,0.510631,0.854915
1631021179619,-0.070699,0.51057,0.855525
1631021179629,-0.071187,0.510692,0.8553419999999999
1631021179638,-0.071004,0.510448,0.854
1631021179648,-0.070089,0.50935,0.854061
1631021179657,-0.07155299999999999,0.510082,0.854366
1631021179667,-0.071614,0.509899,0.853329
1631021179677,-0.071187,0.509472,0.854061
1631021179686,-0.071492,0.510021,0.854244
1631021179696,-0.07124799999999999,0.510448,0.854305
1631021179705,-0.071675,0.509411,0.854793
1631021179715,-0.070821,0.508618,0.855891
1631021179725,-0.070882,0.508618,0.8553419999999999
1631021179734,-0.07155299999999999,0.508679,0.856684
1631021179744,-0.071065,0.507154,0.85583
1631021179753,-0.072041,0.507886,0.856135
1631021179763,-0.072468,0.508618,0.855464
1631021179773,-0.072468,0.509045,0.854366
1631021179782,-0.072346,0.509838,0.852719
1631021179792,-0.072651,0.510936,0.851926
1631021179801,-0.072712,0.51179,0.851804
1631021179811,-0.072346,0.51301,0.850645
1631021179821,-0.072407,0.512156,0.8504619999999999
1631021179830,-0.073078,0.511973,0.850279
1631021179840,-0.072041,0.510814,0.851011
1631021179849,-0.07198,0.51057,0.85156
1631021179859,-0.072651,0.508191,0.851316
1631021179869,-0.071126,0.507886,0.851621
1631021179878,-0.07155299999999999,0.50752,0.85217
1631021179888,-0.071614,0.507947,0.853146
1631021179897,-0.071614,0.508557,0.854
1631021179907,-0.072102,0.50813,0.855464
1631021179917,-0.071492,0.508252,0.855281
1631021179926,-0.071797,0.509167,0.855769
1631021179936,-0.072163,0.509106,0.854915
1631021179945,-0.072163,0.508313,0.855281
1631021179955,-0.072468,0.50874,0.85461
1631021179965,-0.072773,0.50996,0.853634
1631021179974,-0.07137,0.509472,0.853451
1631021179984,-0.071797,0.509838,0.853329
1631021179993,-0.071858,0.509838,0.8532069999999999
1631021180003,-0.071492,0.509411,0.852231
1631021180013,-0.072346,0.508801,0.852963
1631021180022,-0.072224,0.509472,0.852475
1631021180032,-0.07356599999999999,0.508435,0.853451
1631021180041,-0.07387099999999999,0.508984,0.854366
1631021180051,-0.073627,0.50874,0.855891
1631021180061,-0.073322,0.508679,0.856989
1631021180070,-0.073993,0.509289,0.8574769999999999
1631021180080,-0.075274,0.510204,0.856684
1631021180089,-0.075457,0.510143,0.856074
1631021180099,-0.07503,0.509533,0.855403
1631021180109,-0.075457,0.508801,0.855159
1631021180118,-0.075823,0.510448,0.854793
1631021180128,-0.074969,0.512217,0.853878
1631021180137,-0.07442,0.5124,0.852048
1631021180147,-0.074664,0.513925,0.8507669999999999
1631021180157,-0.07503,0.51484,0.849181
1631021180166,-0.074542,0.513193,0.848754
1631021180176,-0.075762,0.509594,0.847534
1631021180185,-0.075945,0.508374,0.849364
1631021180195,-0.074786,0.507886,0.850828
1631021180205,-0.074115,0.508496,0.852719
1631021180214,-0.073444,0.50874,0.855464
1631021180224,-0.07356599999999999,0.510143,0.8571719999999999
1631021180233,-0.07356599999999999,0.510814,0.8586969999999999
1631021180243,-0.07417599999999999,0.510936,0.858026
1631021180253,-0.074603,0.510387,0.856196
1631021180262,-0.075091,0.509289,0.855159
1631021180272,-0.075152,0.509289,0.854
1631021180281,-0.075091,0.510631,0.8519869999999999
1631021180291,-0.074786,0.511851,0.8513769999999999
1631021180301,-0.074786,0.5133759999999999,0.848815
1631021180310,-0.07448099999999999,0.5136809999999999,0.8479
1631021180320,-0.074359,0.5133759999999999,0.846375
1631021180329,-0.073749,0.512034,0.846924
1631021180339,-0.073749,0.51118,0.847534
1631021180349,-0.07326099999999999,0.511729,0.848083
1631021180358,-0.073139,0.510631,0.8501569999999999
1631021180368,-0.07326099999999999,0.51057,0.851743
1631021180377,-0.073078,0.509411,0.853329
1631021180387,-0.072529,0.509289,0.8547319999999999
1631021180397,-0.073139,0.510936,0.854854
1631021180406,-0.072224,0.5127659999999999,0.855464
1631021180416,-0.072773,0.5124,0.853634
1631021180425,-0.073749,0.509411,0.85278
1631021180435,-0.074664,0.508008,0.852658
1631021180445,-0.0732,0.508862,0.853695
1631021180454,-0.073383,0.510082,0.85339
1631021180464,-0.072468,0.51057,0.851926
1631021180473,-0.073139,0.510936,0.852231
1631021180483,-0.073078,0.512095,0.852841
1631021180493,-0.072895,0.51179,0.8516819999999999
1631021180502,-0.072468,0.511485,0.85095
1631021180512,-0.073322,0.510021,0.851133
1631021180521,-0.072773,0.509411,0.851743
1631021180531,-0.072712,0.509533,0.8535119999999999
1631021180541,-0.072346,0.509167,0.854183
1631021180550,-0.072346,0.508374,0.854549
1631021180560,-0.072346,0.509106,0.854976
1631021180569,-0.072468,0.508252,0.856135
1631021180579,-0.073139,0.508069,0.856684
1631021180589,-0.072773,0.508008,0.857294
1631021180598,-0.073627,0.507276,0.857538
1631021180608,-0.074054,0.507215,0.8580869999999999
1631021180617,-0.074115,0.507581,0.858148
1631021180627,-0.074054,0.508008,0.857538
1631021180637,-0.074115,0.507703,0.857111
1631021180646,-0.07417599999999999,0.507947,0.856074
1631021180656,-0.074054,0.508862,0.855403
1631021180665,-0.0732,0.509289,0.8547319999999999
1631021180675,-0.073383,0.508496,0.8544269999999999
1631021180685,-0.073444,0.507764,0.8535119999999999
1631021180694,-0.073444,0.507947,0.853085
1631021180704,-0.073017,0.507154,0.853878
1631021180713,-0.072651,0.506788,0.8538169999999999
1631021180723,-0.072773,0.506178,0.852719
1631021180733,-0.072468,0.506117,0.854
1631021180742,-0.071309,0.506483,0.854305
1631021180752,-0.071492,0.505995,0.854488
1631021180761,-0.071675,0.505568,0.8553419999999999
1631021180771,-0.071919,0.505568,0.856379
1631021180781,-0.071187,0.505263,0.855708
1631021180790,-0.07094299999999999,0.505629,0.856074
1631021180800,-0.070882,0.506605,0.855891
1631021180809,-0.071675,0.507093,0.854976
1631021180819,-0.071675,0.507032,0.8541219999999999
1631021180829,-0.071126,0.506971,0.853695
1631021180838,-0.071309,0.506666,0.854061
1631021180848,-0.071187,0.507276,0.853573
1631021180857,-0.069967,0.507398,0.853146
1631021180867,-0.071309,0.506544,0.853451
1631021180877,-0.071492,0.506056,0.854854
1631021180886,-0.071858,0.507398,0.856135
1631021180896,-0.070821,0.50691,0.8574769999999999
1631021180905,-0.070455,0.509106,0.857599
1631021180915,-0.072407,0.508618,0.856989
1631021180925,-0.072468,0.506483,0.85644
1631021180934,-0.07155299999999999,0.506239,0.855891
1631021180944,-0.071797,0.509045,0.85705
1631021180953,-0.071736,0.509228,0.855403
1631021180963,-0.071065,0.509411,0.853024
1631021180973,-0.071126,0.511851,0.85339
1631021180982,-0.070089,0.513864,0.853329
1631021180992,-0.071919,0.51057,0.852048
1631021181001,-0.072346,0.506422,0.850645
1631021181011,-0.073322,0.504958,0.851743
1631021181021,-0.073139,0.505019,0.85278
1631021181030,-0.072346,0.50691,0.8553419999999999
1631021181040,-0.071492,0.507764,0.857416
1631021181049,-0.071492,0.509167,0.858148
1631021181059,-0.071797,0.509594,0.858514
1631021181069,-0.072651,0.509106,0.857294
1631021181078,-0.073627,0.50874,0.855708
1631021181088,-0.073017,0.508008,0.854549
1631021181097,-0.072895,0.507703,0.853329
1631021181107,-0.073017,0.508618,0.851865
1631021181117,-0.0732,0.51057,0.8513769999999999
1631021181126,-0.072956,0.510997,0.850584
1631021181136,-0.073139,0.511302,0.8492419999999999
1631021181145,-0.072407,0.51057,0.84973
1631021181155,-0.072529,0.509838,0.84973
1631021181165,-0.071797,0.509228,0.850035
1631021181174,-0.07155299999999999,0.50813,0.8516819999999999
1631021181184,-0.07198,0.507215,0.853268
1631021181193,-0.07259,0.506483,0.854793
1631021181203,-0.072163,0.5063,0.855769
1631021181213,-0.071309,0.507703,0.855098
1631021181222,-0.071614,0.509899,0.854854
1631021181232,-0.071736,0.51057,0.855403
1631021181241,-0.072224,0.506544,0.853939
1631021181251,-0.072773,0.50508,0.854854
1631021181261,-0.07259,0.504348,0.8553419999999999
1631021181270,-0.07124799999999999,0.505873,0.856074
1631021181280,-0.071614,0.505995,0.85644
1631021181289,-0.071065,0.507642,0.8574769999999999
1631021181299,-0.071004,0.507764,0.85766
1631021181309,-0.070516,0.507764,0.857599
1631021181318,-0.07124799999999999,0.5063,0.856806
1631021181328,-0.071492,0.506727,0.8559519999999999
1631021181337,-0.07155299999999999,0.505934,0.854488
1631021181347,-0.071858,0.505812,0.855464
1631021181357,-0.07155299999999999,0.505385,0.85583
1631021181366,-0.071614,0.505995,0.856623
1631021181376,-0.071797,0.506483,0.8568669999999999
1631021181385,-0.071797,0.506788,0.857965
1631021181395,-0.071614,0.50691,0.8593069999999999
1631021181405,-0.071736,0.507398,0.8593069999999999
1631021181414,-0.071065,0.506056,0.85949
1631021181424,-0.072285,0.506849,0.858453
1631021181433,-0.072224,0.506117,0.85766
1631021181443,-0.072468,0.506788,0.857233
1631021181453,-0.071919,0.507337,0.8565619999999999
1631021181462,-0.072956,0.508618,0.85705
1631021181472,-0.071675,0.508862,0.8593069999999999
1631021181481,-0.072407,0.50691,0.859734
1631021181491,-0.070882,0.506727,0.858148
1631021181501,-0.071858,0.505751,0.8553419999999999
1631021181510,-0.072102,0.506971,0.855708
1631021181520,-0.071065,0.507154,0.855586
1631021181529,-0.07094299999999999,0.506605,0.854366
1631021181539,-0.072224,0.506666,0.854305
1631021181549,-0.072285,0.508496,0.854305
1631021181558,-0.072346,0.507398,0.851316
1631021181568,-0.072651,0.507642,0.850706
1631021181577,-0.073688,0.507947,0.850828
1631021181587,-0.072834,0.508252,0.851011
1631021181597,-0.072834,0.509106,0.851316
1631021181606,-0.072773,0.510143,0.851926
1631021181616,-0.07326099999999999,0.510082,0.8519869999999999
1631021181625,-0.0732,0.510387,0.851926
1631021181635,-0.074115,0.510021,0.852048
1631021181645,-0.074298,0.511668,0.850401
1631021181654,-0.074847,0.511485,0.85034
1631021181664,-0.075945,0.512827,0.85034
1631021181673,-0.076067,0.513193,0.8498519999999999
1631021181683,-0.075762,0.513925,0.850035
1631021181693,-0.07686,0.513742,0.849608
1631021181702,-0.076433,0.513864,0.848815
1631021181712,-0.076311,0.51423,0.8486319999999999
1631021181721,-0.076311,0.514352,0.847961
1631021181731,-0.07649399999999999,0.514047,0.849303
1631021181741,-0.07649399999999999,0.513742,0.848754
1631021181750,-0.07649399999999999,0.51423,0.849669
1631021181760,-0.07686,0.513254,0.8507669999999999
1631021181769,-0.07747,0.514108,0.8507669999999999
1631021181779,-0.077348,0.514962,0.849974
1631021181789,-0.078202,0.517219,0.850279
1631021181798,-0.078995,0.51545,0.849364
1631021181808,-0.079056,0.5124609999999999,0.849303
1631021181817,-0.078141,0.513254,0.849791
1631021181827,-0.078446,0.515938,0.849913
1631021181837,-0.077714,0.5158159999999999,0.848754
1631021181846,-0.07747,0.517768,0.847229
1631021181856,-0.076738,0.519415,0.845521
1631021181865,-0.077653,0.519842,0.845521
1631021181875,-0.078446,0.5149009999999999,0.845094
1631021181885,-0.079971,0.512644,0.846863
1631021181894,-0.078324,0.512095,0.8495469999999999
1631021181904,-0.077592,0.511302,0.85217
1631021181913,-0.07649399999999999,0.511119,0.8556469999999999
1631021181923,-0.07503,0.511607,0.85827
1631021181933,-0.074359,0.511424,0.859063
1631021181942,-0.073322,0.511668,0.8602219999999999
1631021181952,-0.072834,0.510875,0.859795
1631021181961,-0.073627,0.509472,0.857965
1631021181971,-0.07356599999999999,0.507642,0.855708
1631021181981,-0.073444,0.507276,0.8556469999999999
1631021181990,-0.073444,0.507276,0.854793
1631021182000,-0.072468,0.50874,0.853573
1631021182009,-0.073078,0.508618,0.852414
1631021182019,-0.071919,0.507764,0.852841
1631021182029,-0.071492,0.507154,0.8522919999999999
1631021182038,-0.070211,0.50569,0.8529019999999999
1631021182048,-0.071004,0.504348,0.853573
1631021182057,-0.071065,0.503921,0.854366
1631021182067,-0.070394,0.503433,0.855281
1631021182077,-0.070455,0.502152,0.8562569999999999
1631021182086,-0.069784,0.502884,0.8583919999999999
1631021182096,-0.069296,0.504592,0.857599
1631021182105,-0.069235,0.506117,0.858453
1631021182115,-0.068991,0.505751,0.857355
1631021182125,-0.069418,0.501786,0.856928
1631021182134,-0.070699,0.5002,0.856501
1631021182144,-0.070516,0.500688,0.8562569999999999
1631021182153,-0.069601,0.502762,0.85705
1631021182163,-0.06954,0.502274,0.8565619999999999
1631021182173,-0.068686,0.50325,0.85766
1631021182182,-0.068137,0.503372,0.857843
1631021182192,-0.067527,0.503555,0.85766
1631021182201,-0.068137,0.502457,0.858209
1631021182211,-0.067283,0.501786,0.8580869999999999
1631021182221,-0.06801499999999999,0.501176,0.85766
1631021182230,-0.068381,0.499407,0.85766
1631021182240,-0.06831999999999999,0.5002,0.857538
1631021182249,-0.068564,0.501725,0.858514
1631021182259,-0.06801499999999999,0.501237,0.858636
1631021182269,-0.067893,0.50142,0.859124
1631021182278,-0.068198,0.501603,0.8605269999999999
1631021182288,-0.068381,0.501908,0.862113
1631021182297,-0.068198,0.501786,0.863089
1631021182307,-0.06954,0.501786,0.86254
1631021182317,-0.070211,0.50203,0.862418
1631021182326,-0.070211,0.503921,0.861686
1631021182336,-0.07076,0.504531,0.861259
1631021182345,-0.071858,0.504165,0.86071
1631021182355,-0.07137,0.505629,0.859551
1631021182365,-0.071797,0.505385,0.858636
1631021182374,-0.071675,0.505934,0.856806
1631021182384,-0.072346,0.504836,0.856684
1631021182393,-0.071797,0.504958,0.854671
1631021182403,-0.071797,0.504958,0.8535119999999999
1631021182413,-0.07155299999999999,0.504897,0.853146
1631021182422,-0.072712,0.505202,0.853085
1631021182432,-0.073505,0.504897,0.8535119999999999
1631021182441,-0.07387099999999999,0.506361,0.8541219999999999
1631021182451,-0.074115,0.506666,0.854976
1631021182461,-0.074908,0.507886,0.856379
1631021182470,-0.074542,0.508862,0.856684
1631021182480,-0.075457,0.510814,0.8568669999999999
1631021182489,-0.075518,0.510509,0.85705
1631021182499,-0.074969,0.509655,0.857599
1631021182509,-0.07448099999999999,0.50874,0.8562569999999999
1631021182518,-0.073444,0.507642,0.856074
1631021182528,-0.072468,0.508557,0.854915
1631021182537,-0.072773,0.509289,0.853634
1631021182547,-0.072224,0.509045,0.852841
1631021182557,-0.072224,0.508435,0.85034
1631021182566,-0.07155299999999999,0.509472,0.850218
1631021182576,-0.071858,0.508191,0.8498519999999999
1631021182585,-0.072163,0.507154,0.8495469999999999
1631021182595,-0.071492,0.507459,0.849425
1631021182605,-0.070821,0.508008,0.850828
1631021182614,-0.07033299999999999,0.508618,0.85156
1631021182624,-0.071004,0.508801,0.852475
1631021182633,-0.07076,0.508618,0.85339
1631021182643,-0.07124799999999999,0.507703,0.8547319999999999
1631021182653,-0.071004,0.507154,0.855464
1631021182662,-0.070394,0.507947,0.8571719999999999
1631021182672,-0.070821,0.508679,0.85705
1631021182681,-0.071126,0.509777,0.854366
1631021182691,-0.07137,0.506849,0.853695
1631021182701,-0.071675,0.508313,0.852963
1631021182710,-0.071126,0.511546,0.852475
1631021182720,-0.070089,0.511668,0.850096
1631021182729,-0.069479,0.512034,0.84851
1631021182739,-0.068808,0.514108,0.8486319999999999
1631021182749,-0.068076,0.5149009999999999,0.848571
1631021182758,-0.069784,0.509289,0.848693
1631021182768,-0.070394,0.505202,0.850523
1631021182777,-0.07015,0.503311,0.85339
1631021182787,-0.069296,0.504897,0.856379
1631021182797,-0.066856,0.50569,0.858819
1631021182806,-0.066856,0.506361,0.861808
1631021182816,-0.066795,0.506666,0.862296
1631021182825,-0.066612,0.505995,0.862418
1631021182835,-0.066734,0.505751,0.861625
1631021182845,-0.06709999999999999,0.504043,0.860893
1631021182854,-0.068076,0.502518,0.859734
1631021182864,-0.068198,0.502762,0.859185
1631021182873,-0.067344,0.502091,0.856806
1631021182883,-0.066917,0.50386,0.8553419999999999
1631021182893,-0.066429,0.50447,0.854915
1631021182902,-0.067527,0.504958,0.853268
1631021182912,-0.068076,0.504958,0.852658
1631021182921,-0.068137,0.505202,0.8522919999999999
1631021182931,-0.06831999999999999,0.504897,0.8538169999999999
1631021182941,-0.06831999999999999,0.503555,0.853634
1631021182950,-0.068198,0.503921,0.8556469999999999
1631021182960,-0.068808,0.502823,0.858026
1631021182969,-0.068503,0.501847,0.86071
1631021182979,-0.068259,0.505263,0.861198
1631021182989,-0.068747,0.506605,0.862784
1631021182998,-0.069479,0.505446,0.861259
1631021183008,-0.07076,0.501542,0.859673
1631021183017,-0.073078,0.500932,0.858819
1631021183027,-0.072529,0.501786,0.857904
1631021183037,-0.072285,0.503982,0.858636
1631021183046,-0.070577,0.504531,0.857904
1631021183056,-0.07124799999999999,0.504714,0.858331
1631021183065,-0.071126,0.506422,0.8586969999999999
1631021183075,-0.07198,0.50569,0.858026
1631021183085,-0.071858,0.505263,0.856928
1631021183094,-0.072651,0.504592,0.856318
1631021183104,-0.072956,0.505263,0.856074
1631021183113,-0.072407,0.505812,0.855769
1631021183123,-0.0732,0.505263,0.8559519999999999
1631021183133,-0.072834,0.505812,0.856379
1631021183142,-0.072834,0.50569,0.858026
1631021183152,-0.072834,0.505995,0.857843
1631021183161,-0.073444,0.506361,0.858026
1631021183171,-0.073139,0.506117,0.858758
1631021183181,-0.072895,0.505812,0.857965
1631021183190,-0.074054,0.506666,0.857721
1631021183200,-0.074115,0.506727,0.857721
1631021183209,-0.0732,0.507276,0.857721
1631021183219,-0.073627,0.507886,0.855708
1631021183229,-0.073017,0.507703,0.854793
1631021183238,-0.073444,0.509472,0.854
1631021183248,-0.073749,0.510265,0.852963
1631021183257,-0.073505,0.512095,0.851743
1631021183267,-0.0732,0.511912,0.851255
1631021183277,-0.0732,0.511912,0.850096
1631021183286,-0.072651,0.510509,0.8495469999999999
1631021183296,-0.072651,0.509716,0.8501569999999999
1631021183305,-0.07259,0.509594,0.849669
1631021183315,-0.071309,0.510387,0.849608
1631021183325,-0.072407,0.510631,0.8507669999999999
1631021183334,-0.071858,0.509716,0.8513769999999999
1631021183344,-0.071858,0.509533,0.85095
1631021183353,-0.07137,0.50935,0.8510719999999999
1631021183363,-0.072041,0.509045,0.851743
1631021183373,-0.071675,0.50935,0.85278
1631021183382,-0.071431,0.509167,0.8522919999999999
1631021183392,-0.071187,0.509472,0.852109
1631021183401,-0.07198,0.510387,0.852536
1631021183411,-0.071431,0.510448,0.852414
1631021183421,-0.071614,0.50996,0.85217
1631021183430,-0.071126,0.510814,0.85278
1631021183440,-0.070699,0.511912,0.853268
1631021183449,-0.07155299999999999,0.511424,0.85156
1631021183459,-0.071431,0.511729,0.85095
1631021183469,-0.071065,0.511485,0.849974
1631021183478,-0.07076,0.511912,0.851011
1631021183488,-0.071675,0.512034,0.852719
1631021183497,-0.072163,0.511607,0.853573
1631021183507,-0.071492,0.511302,0.855281
1631021183517,-0.071492,0.511546,0.8559519999999999
1631021183526,-0.071614,0.509655,0.856074
1631021183536,-0.071797,0.506544,0.8547319999999999
1631021183545,-0.07198,0.508679,0.85705
1631021183555,-0.071797,0.51118,0.855708
1631021183565,-0.071797,0.511668,0.853024
1631021183574,-0.071492,0.513315,0.853024
1631021183584,-0.072224,0.5139859999999999,0.852414
1631021183593,-0.072407,0.511668,0.8519869999999999
1631021183603,-0.074237,0.506056,0.851011
1631021183613,-0.075091,0.504226,0.852353
1631021183622,-0.07381,0.505263,0.854366
1631021183632,-0.07259,0.507398,0.856196
1631021183641,-0.072468,0.507886,0.857599
1631021183651,-0.07137,0.508313,0.85888
1631021183661,-0.072407,0.508313,0.858819
1631021183670,-0.071736,0.508557,0.857538
1631021183680,-0.073078,0.508008,0.855586
1631021183689,-0.072285,0.507276,0.853329
1631021183699,-0.073139,0.505446,0.8516819999999999
1631021183709,-0.073139,0.505019,0.850096
1631021183718,-0.07259,0.506178,0.850645
1631021183728,-0.071919,0.506971,0.8510719999999999
1631021183737,-0.07124799999999999,0.507581,0.852658
1631021183747,-0.07124799999999999,0.506544,0.8535119999999999
1631021183757,-0.071858,0.506422,0.853695
1631021183766,-0.07155299999999999,0.505568,0.855891
1631021183776,-0.072102,0.505446,0.857416
1631021183785,-0.071797,0.504348,0.85827
1631021183795,-0.071492,0.504958,0.8596119999999999
1631021183805,-0.07259,0.503677,0.8602219999999999
1631021183814,-0.072285,0.505019,0.859673
1631021183824,-0.072102,0.508191,0.85949
1631021183833,-0.07155299999999999,0.509289,0.8580869999999999
1631021183843,-0.072102,0.507215,0.8559519999999999
1631021183853,-0.07417599999999999,0.503677,0.854854
1631021183862,-0.074908,0.504653,0.854061
1631021183872,-0.074115,0.5063,0.853695
1631021183881,-0.07387099999999999,0.507581,0.853634
1631021183891,-0.07448099999999999,0.508557,0.853268
1631021183901,-0.074725,0.508984,0.853085
1631021183910,-0.074298,0.508984,0.8541219999999999
1631021183920,-0.07417599999999999,0.508252,0.8535119999999999
1631021183929,-0.075213,0.508191,0.854305
1631021183939,-0.075091,0.508801,0.853878
1631021183949,-0.07564,0.507703,0.853268
1631021183958,-0.075579,0.508618,0.85278
1631021183968,-0.075457,0.509106,0.852719
1631021183977,-0.075152,0.510631,0.853329
1631021183987,-0.074786,0.510936,0.8529019999999999
1631021183997,-0.074237,0.510936,0.852353
1631021184006,-0.073932,0.509045,0.8529019999999999
1631021184016,-0.073993,0.508923,0.854671
1631021184025,-0.072895,0.508313,0.855098
1631021184035,-0.07387099999999999,0.507764,0.855708
1631021184045,-0.073322,0.507764,0.856196
1631021184054,-0.07356599999999999,0.50813,0.856318
1631021184064,-0.073322,0.50813,0.856745
1631021184073,-0.073078,0.507703,0.856745
1631021184083,-0.072834,0.507825,0.85644
1631021184093,-0.07259,0.508374,0.8568669999999999
1631021184102,-0.072346,0.507825,0.856196
1631021184112,-0.071675,0.507398,0.8556469999999999
1631021184121,-0.071614,0.506422,0.855159
1631021184131,-0.071187,0.506422,0.8541219999999999
1631021184141,-0.07137,0.506849,0.854183
1631021184150,-0.071187,0.506056,0.8535119999999999
1631021184160,-0.070272,0.507154,0.853573
1631021184169,-0.07063799999999999,0.506788,0.854
1631021184179,-0.070211,0.506361,0.854976
1631021184189,-0.069418,0.505751,0.855769
1631021184198,-0.069967,0.50569,0.855159
1631021184208,-0.069662,0.505324,0.856196
1631021184217,-0.07033299999999999,0.504287,0.854671
1631021184227,-0.069113,0.50508,0.856684
1631021184237,-0.069418,0.504653,0.857538
1631021184246,-0.069845,0.503433,0.8577819999999999
1631021184256,-0.068808,0.503738,0.8586969999999999
1631021184265,-0.068869,0.503982,0.8590019999999999
1631021184275,-0.068747,0.502823,0.85827
1631021184285,-0.069174,0.502945,0.858026
1631021184294,-0.069662,0.502274,0.85827
1631021184304,-0.07033299999999999,0.502274,0.858148
