timestamp,ax,ay,az
1631021159151,-0.528626,-0.776347,-0.360266
1631021159161,-0.529114,-0.775188,-0.361059
1631021159170,-0.528321,-0.772809,-0.361364
1631021159180,-0.528504,-0.770857,-0.3599
1631021159190,-0.527284,-0.770125,-0.358863
1631021159199,-0.527467,-0.769454,-0.358741
1631021159209,-0.527772,-0.768722,-0.358802
1631021159218,-0.527406,-0.769271,-0.35892399999999997
1631021159228,-0.526308,-0.769088,-0.358558
1631021159238,-0.526735,-0.769576,-0.358985
1631021159247,-0.527589,-0.768844,-0.35892399999999997
1631021159257,-0.527528,-0.769576,-0.359473
1631021159266,-0.52643,-0.770064,-0.358192
1631021159276,-0.525637,-0.770003,-0.357948
1631021159286,-0.525698,-0.771528,-0.35746
1631021159295,-0.526308,-0.771955,-0.358497
1631021159305,-0.526308,-0.771589,-0.35831399999999997
1631021159314,-0.526735,-0.772016,-0.358985
1631021159324,-0.526003,-0.77226,-0.35831399999999997
1631021159334,-0.52643,-0.773785,-0.358802
1631021159343,-0.525759,-0.773846,-0.358863
1631021159353,-0.525454,-0.775249,-0.358558
1631021159362,-0.526003,-0.774639,-0.358558
1631021159372,-0.526552,-0.775188,-0.358436
1631021159382,-0.526552,-0.775432,-0.356118
1631021159391,-0.526003,-0.775859,-0.357216
1631021159401,-0.526674,-0.7759199999999999,-0.356362
1631021159410,-0.526186,-0.7753099999999999,-0.35709399999999997
1631021159420,-0.523868,-0.775371,-0.35770399999999997
1631021159430,-0.524722,-0.773663,-0.35800899999999997
1631021159439,-0.52399,-0.774273,-0.357643
1631021159449,-0.523075,-0.773907,-0.356911
1631021159458,-0.522892,-0.773236,-0.355691
1631021159468,-0.521977,-0.77409,-0.35624
1631021159478,-0.521672,-0.774334,-0.355813
1631021159487,-0.522465,-0.774517,-0.35502
1631021159497,-0.522648,-0.773968,-0.354776
1631021159506,-0.5222209999999999,-0.774395,-0.355142
1631021159516,-0.522648,-0.774395,-0.355508
1631021159526,-0.52216,-0.774273,-0.35495899999999997
1631021159535,-0.52338,-0.774822,-0.3538
1631021159545,-0.52277,-0.776164,-0.353007
1631021159554,-0.522038,-0.776591,-0.3538
1631021159564,-0.522465,-0.777506,-0.353312
1631021159574,-0.522282,-0.778177,-0.352763
1631021159583,-0.52155,-0.779031,-0.35258
1631021159593,-0.522038,-0.778726,-0.351055
1631021159602,-0.521062,-0.7786649999999999,-0.35197
1631021159612,-0.522587,-0.778177,-0.35319
1631021159622,-0.5216109999999999,-0.780068,-0.353251
1631021159631,-0.5216109999999999,-0.7801899999999999,-0.352702
1631021159641,-0.5222209999999999,-0.780373,-0.350323
1631021159650,-0.522587,-0.777872,-0.349469
1631021159660,-0.522343,-0.776774,-0.347456
1631021159670,-0.5234409999999999,-0.777933,-0.34831
1631021159679,-0.524966,-0.7786649999999999,-0.350445
1631021159689,-0.524356,-0.7801899999999999,-0.353556
1631021159698,-0.524539,-0.783057,-0.356667
1631021159708,-0.524173,-0.7832399999999999,-0.357582
1631021159718,-0.5231359999999999,-0.781227,-0.355752
1631021159727,-0.5225259999999999,-0.777567,-0.3538
1631021159737,-0.521428,-0.776652,-0.35251899999999997
1631021159746,-0.5210009999999999,-0.776408,-0.35319
1631021159756,-0.520574,-0.775188,-0.352092
1631021159766,-0.520452,-0.773236,-0.352275
1631021159775,-0.520574,-0.773785,-0.353861
1631021159785,-0.519293,-0.775188,-0.355203
1631021159794,-0.5194759999999999,-0.776042,-0.354837
1631021159804,-0.519964,-0.7756149999999999,-0.35319
1631021159814,-0.521184,-0.775249,-0.352092
1631021159823,-0.520879,-0.7753099999999999,-0.35160399999999997
1631021159833,-0.52216,-0.7753099999999999,-0.351665
1631021159842,-0.522282,-0.776286,-0.352946
1631021159852,-0.523014,-0.777384,-0.353373
1631021159862,-0.524295,-0.778116,-0.35502
1631021159871,-0.524112,-0.777567,-0.355813
1631021159881,-0.524234,-0.777201,-0.357277
1631021159890,-0.523868,-0.7771399999999999,-0.357521
1631021159900,-0.523685,-0.778116,-0.357765
1631021159910,-0.522282,-0.774944,-0.356423
1631021159919,-0.524295,-0.77287,-0.35587399999999997
1631021159929,-0.524722,-0.77287,-0.35526399999999997
1631021159938,-0.523258,-0.773541,-0.356118
1631021159948,-0.52277,-0.775066,-0.357948
1631021159958,-0.523258,-0.7753099999999999,-0.358131
1631021159967,-0.524661,-0.7746999999999999,-0.356545
1631021159977,-0.52338,-0.773846,-0.35404399999999997
1631021159986,-0.523929,-0.773846,-0.353556
1631021159996,-0.525271,-0.7746999999999999,-0.354227
1631021160006,-0.524966,-0.775554,-0.354532
1631021160015,-0.525698,-0.775981,-0.35434899999999997
1631021160025,-0.525149,-0.777079,-0.35495899999999997
1631021160034,-0.52582,-0.778177,-0.355386
1631021160044,-0.526003,-0.778909,-0.355447
1631021160054,-0.526186,-0.778299,-0.35495899999999997
1631021160063,-0.526979,-0.7777499999999999,-0.35404399999999997
1631021160073,-0.526186,-0.777201,-0.354776
1631021160082,-0.526125,-0.777872,-0.354715
1631021160092,-0.525759,-0.775981,-0.35563
1631021160102,-0.526003,-0.774395,-0.35556899999999997
1631021160111,-0.525759,-0.773663,-0.355142
1631021160121,-0.525942,-0.774029,-0.355386
1631021160130,-0.526247,-0.774151,-0.35556899999999997
1631021160140,-0.526857,-0.774761,-0.35526399999999997
1631021160150,-0.526064,-0.774517,-0.35495899999999997
1631021160159,-0.525149,-0.774334,-0.35441
1631021160169,-0.526552,-0.773602,-0.353678
1631021160178,-0.525637,-0.772931,-0.353068
1631021160188,-0.525698,-0.771711,-0.35258
1631021160198,-0.525332,-0.771528,-0.353922
1631021160207,-0.525881,-0.771345,-0.354166
1631021160217,-0.527284,-0.770674,-0.354593
1631021160226,-0.52765,-0.769942,-0.355752
1631021160236,-0.528382,-0.769515,-0.35526399999999997
1631021160246,-0.52765,-0.76982,-0.354166
1631021160255,-0.528016,-0.770308,-0.353007
1631021160265,-0.528382,-0.770735,-0.352458
1631021160274,-0.529419,-0.771894,-0.352702
1631021160284,-0.529358,-0.773114,-0.353678
1631021160294,-0.529358,-0.77348,-0.353312
1631021160303,-0.529358,-0.772626,-0.35312899999999997
1631021160313,-0.529602,-0.772321,-0.353556
1631021160322,-0.530212,-0.772626,-0.352153
1631021160332,-0.529846,-0.772931,-0.35160399999999997
1631021160342,-0.529419,-0.773114,-0.35197
1631021160351,-0.529846,-0.77348,-0.35221399999999997
1631021160361,-0.530273,-0.775798,-0.351848
1631021160370,-0.531127,-0.777384,-0.352397
1631021160380,-0.529724,-0.778421,-0.35190899999999997
1631021160390,-0.530212,-0.779336,-0.350262
1631021160399,-0.530822,-0.778726,-0.351726
1631021160409,-0.5307,-0.779458,-0.352031
1631021160418,-0.529541,-0.7786649999999999,-0.35014
1631021160428,-0.527833,-0.778421,-0.35014
1631021160438,-0.529297,-0.776347,-0.35075
1631021160447,-0.527772,-0.772626,-0.349164
1631021160457,-0.52948,-0.769942,-0.348188
1631021160466,-0.53131,-0.771589,-0.350872
1631021160476,-0.533689,-0.773724,-0.35441
1631021160486,-0.533201,-0.777201,-0.35868
1631021160495,-0.532713,-0.7801899999999999,-0.360632
1631021160505,-0.532469,-0.778909,-0.359656
1631021160514,-0.530883,-0.776286,-0.357033
1631021160524,-0.529541,-0.772931,-0.355508
1631021160534,-0.52826,-0.770552,-0.35441
1631021160543,-0.528748,-0.768722,-0.354105
1631021160553,-0.528138,-0.766465,-0.35502
1631021160562,-0.526674,-0.764879,-0.354837
1631021160572,-0.525698,-0.7650009999999999,-0.356972
1631021160582,-0.526186,-0.765733,-0.356667
1631021160591,-0.526552,-0.7665259999999999,-0.35648399999999997
1631021160601,-0.528504,-0.768417,-0.354776
1631021160610,-0.528138,-0.769637,-0.35343399999999997
1631021160620,-0.528138,-0.771223,-0.354166
1631021160630,-0.528199,-0.77104,-0.353617
1631021160639,-0.529907,-0.772992,-0.355508
1631021160649,-0.53009,-0.77165,-0.35678899999999997
1631021160658,-0.530578,-0.77043,-0.35800899999999997
1631021160668,-0.530639,-0.7686,-0.358863
1631021160678,-0.530212,-0.769759,-0.359351
1631021160687,-0.530334,-0.770369,-0.359168
1631021160697,-0.529419,-0.770674,-0.356728
1631021160706,-0.531615,-0.768661,-0.35739899999999997
1631021160716,-0.531066,-0.767685,-0.357216
1631021160726,-0.530944,-0.768417,-0.358192
1631021160735,-0.5307,-0.771528,-0.3599
1631021160745,-0.530456,-0.771711,-0.360754
1631021160754,-0.530578,-0.770796,-0.358985
1631021160764,-0.530273,-0.7686,-0.35746
1631021160774,-0.530456,-0.768478,-0.356667
1631021160783,-0.531188,-0.769332,-0.356545
1631021160793,-0.530639,-0.769942,-0.356972
1631021160802,-0.52948,-0.770613,-0.35617899999999997
1631021160812,-0.530639,-0.773053,-0.35563
1631021160822,-0.531066,-0.773419,-0.35624
1631021160831,-0.530334,-0.773114,-0.356606
1631021160841,-0.530029,-0.773236,-0.355996
1631021160850,-0.530151,-0.773602,-0.356362
1631021160860,-0.530456,-0.773236,-0.356423
1631021160870,-0.52948,-0.772687,-0.356728
1631021160879,-0.529724,-0.77287,-0.35648399999999997
1631021160889,-0.529358,-0.772626,-0.357277
1631021160898,-0.530273,-0.77287,-0.357216
1631021160908,-0.53009,-0.773846,-0.357643
1631021160918,-0.529724,-0.773175,-0.357582
1631021160927,-0.529297,-0.771406,-0.35807
1631021160937,-0.528199,-0.770918,-0.357826
1631021160946,-0.527955,-0.770674,-0.35800899999999997
1631021160956,-0.527223,-0.770308,-0.356972
1631021160966,-0.526369,-0.769942,-0.356545
1631021160975,-0.526186,-0.77043,-0.355752
1631021160985,-0.526491,-0.770857,-0.356118
1631021160994,-0.526674,-0.770064,-0.35685
1631021161004,-0.525942,-0.770003,-0.357033
1631021161014,-0.526918,-0.770064,-0.356423
1631021161023,-0.526369,-0.771284,-0.355752
1631021161033,-0.527101,-0.771162,-0.35617899999999997
1631021161042,-0.527589,-0.771833,-0.355142
1631021161052,-0.526369,-0.771955,-0.3538
1631021161062,-0.526308,-0.772565,-0.354105
1631021161071,-0.526186,-0.773663,-0.35441
1631021161081,-0.526308,-0.772382,-0.35465399999999997
1631021161090,-0.52582,-0.771772,-0.355508
1631021161100,-0.525088,-0.772077,-0.354166
1631021161110,-0.525942,-0.772504,-0.354288
1631021161119,-0.525881,-0.773114,-0.35502
1631021161129,-0.524356,-0.775066,-0.354105
1631021161138,-0.525393,-0.775798,-0.35373899999999997
1631021161148,-0.524844,-0.7762249999999999,-0.35251899999999997
1631021161158,-0.523563,-0.776408,-0.352092
1631021161167,-0.525271,-0.777567,-0.35197
1631021161177,-0.525637,-0.776713,-0.352702
1631021161186,-0.524295,-0.778177,-0.35136
1631021161196,-0.5246,-0.780068,-0.350628
1631021161206,-0.525454,-0.781349,-0.348188
1631021161215,-0.524112,-0.779641,-0.345504
1631021161225,-0.524661,-0.778726,-0.34477199999999997
1631021161234,-0.526552,-0.779702,-0.347151
1631021161244,-0.527528,-0.780617,-0.349347
1631021161254,-0.527711,-0.782569,-0.353068
1631021161263,-0.528016,-0.784582,-0.355691
1631021161273,-0.528138,-0.784216,-0.354898
1631021161282,-0.527955,-0.7814099999999999,-0.353861
1631021161292,-0.526674,-0.777933,-0.35282399999999997
1631021161302,-0.526064,-0.777079,-0.352641
1631021161311,-0.525271,-0.776103,-0.352641
1631021161321,-0.52521,-0.773785,-0.353983
1631021161330,-0.524478,-0.772016,-0.354227
1631021161340,-0.52399,-0.771345,-0.354837
1631021161350,-0.5246,-0.772504,-0.355508
1631021161359,-0.523929,-0.772687,-0.354593
1631021161369,-0.5240509999999999,-0.772321,-0.353678
1631021161378,-0.5240509999999999,-0.77104,-0.352702
1631021161388,-0.5240509999999999,-0.772931,-0.35197
1631021161398,-0.5246,-0.772992,-0.352763
1631021161407,-0.525088,-0.772992,-0.353617
1631021161417,-0.526186,-0.772626,-0.354532
1631021161426,-0.527284,-0.772931,-0.355386
1631021161436,-0.527345,-0.771772,-0.356545
1631021161446,-0.526735,-0.772382,-0.356972
1631021161455,-0.526918,-0.773236,-0.357338
1631021161465,-0.526491,-0.771284,-0.35648399999999997
1631021161474,-0.526674,-0.770918,-0.35648399999999997
1631021161484,-0.527406,-0.770674,-0.357338
1631021161494,-0.527223,-0.770918,-0.35800899999999997
1631021161503,-0.52643,-0.773297,-0.359351
1631021161513,-0.526308,-0.775249,-0.360937
1631021161522,-0.525698,-0.773907,-0.360083
1631021161532,-0.527345,-0.772992,-0.35746
1631021161542,-0.52582,-0.772504,-0.35678899999999997
1631021161551,-0.524966,-0.771894,-0.355691
1631021161561,-0.524783,-0.772931,-0.354593
1631021161570,-0.525027,-0.773663,-0.35526399999999997
1631021161580,-0.52521,-0.774578,-0.355691
1631021161590,-0.524478,-0.7762249999999999,-0.354898
1631021161599,-0.524539,-0.7777499999999999,-0.354593
1631021161609,-0.524905,-0.778543,-0.354837
1631021161618,-0.524478,-0.778482,-0.354471
1631021161628,-0.52521,-0.778299,-0.355508
1631021161638,-0.525088,-0.777384,-0.355447
1631021161647,-0.525088,-0.776713,-0.355691
1631021161657,-0.523929,-0.777018,-0.356362
1631021161666,-0.524173,-0.7759199999999999,-0.356118
1631021161676,-0.523929,-0.774334,-0.35678899999999997
1631021161686,-0.523685,-0.77409,-0.357765
1631021161695,-0.52399,-0.7746999999999999,-0.357582
1631021161705,-0.523014,-0.775676,-0.356362
1631021161714,-0.523014,-0.775371,-0.355935
1631021161724,-0.523685,-0.7753099999999999,-0.355996
1631021161734,-0.522404,-0.774639,-0.35465399999999997
1631021161743,-0.5219159999999999,-0.775127,-0.354227
1631021161753,-0.52155,-0.775676,-0.353678
1631021161762,-0.522282,-0.775127,-0.352702
1631021161772,-0.521489,-0.7756149999999999,-0.351726
1631021161782,-0.521062,-0.775249,-0.35282399999999997
1631021161791,-0.522465,-0.776408,-0.353007
1631021161801,-0.521977,-0.777018,-0.352458
1631021161810,-0.522892,-0.776103,-0.351787
1631021161820,-0.523502,-0.776652,-0.35190899999999997
1631021161830,-0.523258,-0.776042,-0.352946
1631021161839,-0.523929,-0.776164,-0.352946
1631021161849,-0.523258,-0.775798,-0.351726
1631021161858,-0.522892,-0.775737,-0.35075
1631021161868,-0.522709,-0.776652,-0.353068
1631021161878,-0.52338,-0.7771399999999999,-0.35319
1631021161887,-0.523258,-0.778726,-0.35251899999999997
1631021161897,-0.5237459999999999,-0.778238,-0.35190899999999997
1631021161906,-0.52277,-0.778909,-0.349835
1631021161916,-0.521794,-0.780129,-0.348859
1631021161926,-0.522099,-0.780068,-0.348554
1631021161935,-0.523075,-0.781227,-0.349652
1631021161945,-0.521489,-0.781532,-0.349164
1631021161954,-0.521123,-0.783423,-0.348005
1631021161964,-0.522099,-0.783484,-0.347273
1631021161974,-0.521367,-0.781471,-0.346541
1631021161983,-0.521977,-0.779763,-0.344711
1631021161993,-0.52277,-0.780007,-0.34629699999999997
1631021162002,-0.5228309999999999,-0.781044,-0.349896
1631021162012,-0.524844,-0.7832399999999999,-0.354227
1631021162022,-0.523197,-0.785253,-0.356972
1631021162031,-0.523319,-0.7844599999999999,-0.35678899999999997
1631021162041,-0.5228309999999999,-0.781288,-0.35404399999999997
1631021162050,-0.521733,-0.778543,-0.353068
1631021162060,-0.521062,-0.777933,-0.351787
1631021162070,-0.520208,-0.777384,-0.35190899999999997
1631021162079,-0.519354,-0.7765299999999999,-0.35251899999999997
1631021162089,-0.518988,-0.774578,-0.35251899999999997
1631021162098,-0.5185609999999999,-0.7759199999999999,-0.352702
1631021162108,-0.518622,-0.776652,-0.352946
1631021162118,-0.519354,-0.778299,-0.35197
1631021162127,-0.518988,-0.778238,-0.350567
1631021162137,-0.519659,-0.7777499999999999,-0.350628
1631021162146,-0.520147,-0.777018,-0.35075
1631021162156,-0.519354,-0.777994,-0.351665
1631021162166,-0.52033,-0.778299,-0.351848
1631021162175,-0.520513,-0.778604,-0.353678
1631021162185,-0.5206959999999999,-0.7777499999999999,-0.354776
1631021162194,-0.52155,-0.776347,-0.356301
1631021162204,-0.521794,-0.7765299999999999,-0.358131
1631021162214,-0.522343,-0.776652,-0.35831399999999997
1631021162223,-0.52155,-0.774334,-0.35648399999999997
1631021162233,-0.521794,-0.772748,-0.35617899999999997
1631021162242,-0.522892,-0.772565,-0.35624
1631021162252,-0.5222209999999999,-0.773907,-0.356972
1631021162262,-0.5213059999999999,-0.776347,-0.358558
1631021162271,-0.52277,-0.778238,-0.359595
1631021162281,-0.5228309999999999,-0.7762249999999999,-0.357582
1631021162290,-0.5225259999999999,-0.775188,-0.35526399999999997
1631021162300,-0.5225259999999999,-0.7759199999999999,-0.353373
1631021162310,-0.521977,-0.777933,-0.35343399999999997
1631021162319,-0.522404,-0.778238,-0.352092
1631021162329,-0.52094,-0.777994,-0.35312899999999997
1631021162338,-0.5219159999999999,-0.778543,-0.352458
1631021162348,-0.521245,-0.779214,-0.353312
1631021162358,-0.522099,-0.779702,-0.35404399999999997
1631021162367,-0.5225259999999999,-0.7795799999999999,-0.353922
1631021162377,-0.522709,-0.778848,-0.353495
1631021162386,-0.5234409999999999,-0.779214,-0.352702
1631021162396,-0.5237459999999999,-0.778238,-0.353556
1631021162406,-0.5240509999999999,-0.7786649999999999,-0.35441
1631021162415,-0.524112,-0.779702,-0.353861
1631021162425,-0.523502,-0.779397,-0.353556
1631021162434,-0.523258,-0.7783599999999999,-0.352641
1631021162444,-0.523685,-0.779336,-0.35258
1631021162454,-0.523258,-0.778604,-0.353983
1631021162463,-0.522343,-0.777689,-0.353861
1631021162473,-0.52277,-0.7771399999999999,-0.35404399999999997
1631021162482,-0.522587,-0.776957,-0.352275
1631021162492,-0.523014,-0.775737,-0.35221399999999997
1631021162502,-0.523014,-0.776164,-0.352397
1631021162511,-0.522099,-0.7762249999999999,-0.35258
1631021162521,-0.522465,-0.776591,-0.35160399999999997
1631021162530,-0.522648,-0.776042,-0.350018
1631021162540,-0.5225259999999999,-0.775676,-0.350994
1631021162550,-0.522953,-0.775737,-0.349835
1631021162559,-0.523807,-0.775981,-0.350384
1631021162569,-0.524356,-0.776652,-0.35251899999999997
1631021162578,-0.524295,-0.775981,-0.352275
1631021162588,-0.523807,-0.776713,-0.351238
1631021162598,-0.523807,-0.7750049999999999,-0.351299
1631021162607,-0.524112,-0.7756149999999999,-0.351421
1631021162617,-0.524417,-0.776652,-0.351116
1631021162626,-0.524234,-0.777567,-0.352336
1631021162636,-0.524295,-0.778726,-0.352763
1631021162646,-0.524844,-0.777384,-0.35075
1631021162655,-0.5246,-0.776896,-0.350018
1631021162665,-0.524844,-0.777018,-0.350689
1631021162674,-0.525088,-0.777506,-0.351848
1631021162684,-0.522892,-0.7804949999999999,-0.351299
1631021162694,-0.52399,-0.782142,-0.349042
1631021162703,-0.523258,-0.781959,-0.34831
1631021162713,-0.522587,-0.779031,-0.34660199999999997
1631021162722,-0.5225259999999999,-0.776896,-0.345016
1631021162732,-0.523624,-0.777506,-0.345504
1631021162742,-0.525332,-0.7795799999999999,-0.347822
1631021162751,-0.525027,-0.782203,-0.35190899999999997
1631021162761,-0.525393,-0.786229,-0.355691
1631021162770,-0.525576,-0.785924,-0.35587399999999997
1631021162780,-0.525088,-0.784704,-0.352946
1631021162790,-0.522892,-0.781288,-0.350079
1631021162799,-0.521367,-0.7789699999999999,-0.348737
1631021162809,-0.5210009999999999,-0.778726,-0.348798
1631021162818,-0.520147,-0.777872,-0.349896
1631021162828,-0.519049,-0.776774,-0.349774
1631021162838,-0.519537,-0.777079,-0.351238
1631021162847,-0.519293,-0.776896,-0.350506
1631021162857,-0.519232,-0.778299,-0.350262
1631021162866,-0.51972,-0.7786649999999999,-0.349164
1631021162876,-0.518927,-0.778543,-0.34831
1631021162886,-0.519964,-0.779092,-0.348554
1631021162895,-0.520025,-0.7789699999999999,-0.34892
1631021162905,-0.520757,-0.779031,-0.349164
1631021162914,-0.520818,-0.780312,-0.35075
1631021162924,-0.521733,-0.780434,-0.351848
1631021162934,-0.521428,-0.780617,-0.352336
1631021162943,-0.520269,-0.780068,-0.352641
1631021162953,-0.521062,-0.779092,-0.352702
1631021162962,-0.522099,-0.7765299999999999,-0.35258
1631021162972,-0.524173,-0.774883,-0.35434899999999997
1631021162982,-0.522282,-0.7750049999999999,-0.353861
1631021162991,-0.523258,-0.776042,-0.355935
1631021163001,-0.522038,-0.778116,-0.358497
1631021163010,-0.522709,-0.777567,-0.357582
1631021163020,-0.5225259999999999,-0.7753099999999999,-0.35502
1631021163030,-0.521794,-0.774883,-0.35441
1631021163039,-0.5213059999999999,-0.775554,-0.352763
1631021163049,-0.52094,-0.776713,-0.35190899999999997
1631021163058,-0.519537,-0.7774449999999999,-0.35160399999999997
1631021163068,-0.5206959999999999,-0.778909,-0.35197
1631021163078,-0.5216109999999999,-0.780251,-0.353007
1631021163087,-0.521794,-0.780373,-0.352702
1631021163097,-0.52155,-0.7801899999999999,-0.352092
1631021163106,-0.520879,-0.779763,-0.35197
1631021163116,-0.520513,-0.779031,-0.35221399999999997
1631021163126,-0.520818,-0.779214,-0.351787
1631021163135,-0.52094,-0.7786649999999999,-0.35160399999999997
1631021163145,-0.520879,-0.779458,-0.35258
1631021163154,-0.519964,-0.780556,-0.353068
1631021163164,-0.521062,-0.779946,-0.35258
1631021163174,-0.5197809999999999,-0.7795799999999999,-0.353983
1631021163183,-0.519964,-0.779214,-0.353983
1631021163193,-0.519842,-0.779763,-0.353495
1631021163202,-0.520452,-0.779641,-0.353922
1631021163212,-0.519232,-0.7801899999999999,-0.35282399999999997
1631021163222,-0.5197809999999999,-0.778909,-0.352397
1631021163231,-0.518988,-0.777689,-0.352336
1631021163241,-0.518622,-0.775432,-0.350384
1631021163250,-0.517768,-0.77409,-0.350506
1631021163260,-0.5170359999999999,-0.775981,-0.349896
1631021163270,-0.517158,-0.779946,-0.351848
1631021163279,-0.5188659999999999,-0.7814099999999999,-0.354471
1631021163289,-0.5188659999999999,-0.7814099999999999,-0.355142
1631021163298,-0.5185609999999999,-0.778421,-0.351238
1631021163308,-0.518317,-0.777384,-0.34831
1631021163318,-0.520635,-0.7786649999999999,-0.350323
1631021163327,-0.521367,-0.780312,-0.352153
1631021163337,-0.52033,-0.780373,-0.35258
1631021163346,-0.521062,-0.780739,-0.35282399999999997
1631021163356,-0.5206959999999999,-0.781837,-0.352641
1631021163366,-0.520147,-0.782874,-0.352092
1631021163375,-0.5206959999999999,-0.781349,-0.351726
1631021163385,-0.525088,-0.780068,-0.354837
1631021163394,-0.523868,-0.779946,-0.352763
1631021163404,-0.523563,-0.777872,-0.344833
1631021163414,-0.52399,-0.782203,-0.345016
1631021163423,-0.5246,-0.783972,-0.346175
1631021163433,-0.5246,-0.781898,-0.345565
1631021163442,-0.529297,-0.779336,-0.348554
1631021163452,-0.531737,-0.775066,-0.34324699999999997
1631021163462,-0.532347,-0.773053,-0.349042
1631021163471,-0.532652,-0.773297,-0.353922
1631021163481,-0.5307,-0.775676,-0.355508
1631021163490,-0.530212,-0.777384,-0.35861899999999997
1631021163500,-0.527955,-0.780007,-0.358436
1631021163510,-0.530456,-0.7750049999999999,-0.355203
1631021163519,-0.529968,-0.770796,-0.355325
1631021163529,-0.536373,-0.764757,-0.356667
1631021163538,-0.535519,-0.7625609999999999,-0.35526399999999997
1631021163548,-0.533872,-0.759694,-0.352641
1631021163558,-0.531798,-0.76189,-0.351116
1631021163567,-0.531615,-0.7631709999999999,-0.348432
1631021163577,-0.531676,-0.763659,-0.347151
1631021163586,-0.532103,-0.7634759999999999,-0.34690699999999997
1631021163596,-0.530822,-0.765733,-0.346968
1631021163606,-0.531127,-0.769454,-0.348371
1631021163615,-0.530761,-0.772504,-0.350994
1631021163625,-0.532469,-0.774029,-0.353068
1631021163634,-0.53192,-0.774395,-0.352946
1631021163644,-0.534238,-0.77409,-0.35624
1631021163654,-0.532164,-0.7765299999999999,-0.356362
1631021163663,-0.532286,-0.777323,-0.355813
1631021163673,-0.530883,-0.775859,-0.354532
1631021163682,-0.5307,-0.776591,-0.358192
1631021163692,-0.53192,-0.775432,-0.362279
1631021163702,-0.530517,-0.771833,-0.358802
1631021163711,-0.52948,-0.772382,-0.357338
1631021163721,-0.527711,-0.77409,-0.35563
1631021163730,-0.52887,-0.774822,-0.354471
1631021163740,-0.527223,-0.775493,-0.350872
1631021163750,-0.526918,-0.774273,-0.348432
1631021163759,-0.527345,-0.773358,-0.345321
1631021163769,-0.527101,-0.773053,-0.344589
1631021163778,-0.527284,-0.773358,-0.342515
1631021163788,-0.527101,-0.776286,-0.343735
1631021163798,-0.527162,-0.779702,-0.345443
1631021163807,-0.52765,-0.780861,-0.347456
1631021163817,-0.527162,-0.7814099999999999,-0.345138
1631021163826,-0.528687,-0.781654,-0.34343
1631021163836,-0.52887,-0.7823249999999999,-0.344284
1631021163846,-0.527406,-0.783057,-0.345748
1631021163855,-0.522282,-0.7835449999999999,-0.339648
1631021163865,-0.5237459999999999,-0.7826299999999999,-0.343125
1631021163874,-0.523014,-0.782996,-0.343796
1631021163884,-0.523563,-0.780922,-0.343064
1631021163894,-0.52216,-0.783362,-0.3477
1631021163903,-0.521794,-0.780129,-0.351787
1631021163913,-0.521428,-0.773358,-0.35197
1631021163922,-0.520269,-0.772565,-0.351299
1631021163932,-0.519537,-0.774029,-0.349835
1631021163942,-0.519537,-0.777384,-0.347761
1631021163951,-0.519964,-0.778116,-0.344894
1631021163961,-0.519842,-0.778604,-0.343186
1631021163970,-0.519537,-0.780068,-0.34404
1631021163980,-0.519659,-0.779214,-0.34587
1631021163990,-0.520147,-0.779458,-0.345321
1631021163999,-0.5203909999999999,-0.780068,-0.344284
1631021164009,-0.518927,-0.7798849999999999,-0.34294199999999997
1631021164018,-0.520147,-0.781349,-0.343613
1631021164028,-0.520574,-0.783179,-0.343674
1631021164038,-0.520818,-0.7832399999999999,-0.34355199999999997
1631021164047,-0.521733,-0.783728,-0.341844
1631021164057,-0.523258,-0.784033,-0.341051
1631021164066,-0.523624,-0.783118,-0.34038
1631021164076,-0.524417,-0.784094,-0.340441
1631021164086,-0.524722,-0.786412,-0.340563
1631021164095,-0.5246,-0.787083,-0.341356
1631021164105,-0.526735,-0.7872049999999999,-0.340868
1631021164114,-0.526308,-0.784704,-0.340014
1631021164124,-0.526064,-0.782264,-0.340746
1631021164134,-0.528077,-0.782264,-0.341051
1631021164143,-0.528504,-0.783057,-0.342454
1631021164153,-0.528687,-0.784399,-0.344894
1631021164162,-0.528626,-0.786412,-0.347761
1631021164172,-0.527711,-0.786107,-0.349652
1631021164182,-0.526979,-0.782752,-0.349347
1631021164191,-0.525515,-0.7801899999999999,-0.347639
1631021164201,-0.525515,-0.779824,-0.347029
1631021164210,-0.5246,-0.778238,-0.34629699999999997
1631021164220,-0.5240509999999999,-0.7783599999999999,-0.345626
1631021164230,-0.524478,-0.778238,-0.345504
1631021164239,-0.522465,-0.777506,-0.346358
1631021164249,-0.522343,-0.777567,-0.346663
1631021164258,-0.5219159999999999,-0.7768349999999999,-0.34709
1631021164268,-0.521123,-0.776042,-0.347883
1631021164278,-0.5219159999999999,-0.776652,-0.348249
1631021164287,-0.52094,-0.776957,-0.349042
1631021164297,-0.521489,-0.777079,-0.351116
1631021164306,-0.522892,-0.778787,-0.352336
1631021164316,-0.52216,-0.779458,-0.352946
1631021164326,-0.5213059999999999,-0.779336,-0.35282399999999997
1631021164335,-0.519903,-0.779153,-0.351787
1631021164345,-0.519415,-0.779153,-0.351787
1631021164354,-0.517463,-0.779397,-0.351177
1631021164364,-0.5182559999999999,-0.776408,-0.348066
1631021164374,-0.518195,-0.776896,-0.349042
1631021164383,-0.519049,-0.774883,-0.348066
1631021164393,-0.519842,-0.775798,-0.350811
1631021164402,-0.518439,-0.778177,-0.353861
1631021164412,-0.5194759999999999,-0.779336,-0.35526399999999997
1631021164422,-0.52033,-0.779092,-0.353373
1631021164431,-0.520452,-0.779031,-0.350811
1631021164441,-0.520513,-0.7801899999999999,-0.348615
1631021164450,-0.5210009999999999,-0.781532,-0.348127
1631021164460,-0.521062,-0.782996,-0.347334
1631021164470,-0.520574,-0.783179,-0.347151
1631021164479,-0.520269,-0.784033,-0.346846
1631021164489,-0.520025,-0.784826,-0.346175
1631021164498,-0.520757,-0.784887,-0.34690699999999997
1631021164508,-0.521489,-0.783484,-0.347639
1631021164518,-0.521855,-0.7835449999999999,-0.3477
1631021164527,-0.521733,-0.783179,-0.348188
1631021164537,-0.521123,-0.782691,-0.348249
1631021164546,-0.52155,-0.782081,-0.347883
1631021164556,-0.521489,-0.781959,-0.347578
1631021164566,-0.5206959999999999,-0.783057,-0.34721199999999997
1631021164575,-0.5197809999999999,-0.782569,-0.347456
1631021164585,-0.5200859999999999,-0.7817149999999999,-0.347456
1631021164594,-0.5191709999999999,-0.7817149999999999,-0.34709
1631021164604,-0.518073,-0.781776,-0.347151
1631021164614,-0.518622,-0.781471,-0.347822
1631021164623,-0.519293,-0.780617,-0.347151
1631021164633,-0.519598,-0.780007,-0.347517
1631021164642,-0.5203909999999999,-0.7811049999999999,-0.348005
1631021164652,-0.519232,-0.781227,-0.348859
1631021164662,-0.518988,-0.7804949999999999,-0.348493
1631021164671,-0.518683,-0.779397,-0.34831
1631021164681,-0.51911,-0.779458,-0.34831
1631021164690,-0.518988,-0.7807999999999999,-0.348432
1631021164700,-0.518683,-0.780861,-0.34709
1631021164710,-0.5194759999999999,-0.7823249999999999,-0.348005
1631021164719,-0.519537,-0.782081,-0.347822
1631021164729,-0.519293,-0.7801899999999999,-0.346724
1631021164738,-0.5197809999999999,-0.779641,-0.347456
1631021164748,-0.51911,-0.781166,-0.347456
1631021164758,-0.5185,-0.783118,-0.345931
1631021164767,-0.518317,-0.784582,-0.346236
1631021164777,-0.519537,-0.783911,-0.344894
1631021164786,-0.518744,-0.782386,-0.342576
1631021164796,-0.518988,-0.782447,-0.34202699999999997
1631021164806,-0.5197809999999999,-0.783423,-0.344528
1631021164815,-0.5213059999999999,-0.784582,-0.346968
1631021164825,-0.52216,-0.786412,-0.350018
1631021164834,-0.521794,-0.789523,-0.351726
1631021164844,-0.5213059999999999,-0.7884249999999999,-0.352397
1631021164854,-0.520269,-0.7859849999999999,-0.350506
1631021164863,-0.51972,-0.784826,-0.348188
1631021164873,-0.518317,-0.782996,-0.347578
1631021164882,-0.517524,-0.7826299999999999,-0.347334
1631021164892,-0.516548,-0.782142,-0.346419
1631021164902,-0.515023,-0.782386,-0.347395
1631021164911,-0.51606,-0.781898,-0.348859
1631021164921,-0.514413,-0.783118,-0.348188
1631021164930,-0.515633,-0.783118,-0.347578
1631021164940,-0.51484,-0.783301,-0.346785
1631021164950,-0.517158,-0.782447,-0.347456
1631021164959,-0.517158,-0.783057,-0.346785
1631021164969,-0.5173409999999999,-0.782142,-0.347273
1631021164978,-0.517219,-0.782752,-0.347395
1631021164988,-0.517707,-0.782874,-0.349164
1631021164998,-0.517097,-0.782691,-0.350872
1631021165007,-0.516792,-0.7826299999999999,-0.35190899999999997
1631021165017,-0.516548,-0.7814099999999999,-0.353617
1631021165026,-0.515694,-0.778726,-0.35190899999999997
1631021165036,-0.516548,-0.777689,-0.352885
1631021165046,-0.516853,-0.776957,-0.354166
1631021165055,-0.517768,-0.776408,-0.354715
1631021165065,-0.517463,-0.7783599999999999,-0.35770399999999997
1631021165074,-0.518073,-0.779763,-0.357765
1631021165084,-0.5167309999999999,-0.779397,-0.355752
1631021165094,-0.516853,-0.778848,-0.353068
1631021165103,-0.516243,-0.7795799999999999,-0.350994
1631021165113,-0.515999,-0.780434,-0.350079
1631021165122,-0.515694,-0.782081,-0.348066
1631021165132,-0.515938,-0.782691,-0.348432
1631021165142,-0.516365,-0.783667,-0.3477
1631021165151,-0.516304,-0.784826,-0.347822
1631021165161,-0.516853,-0.784948,-0.348371
1631021165170,-0.5179509999999999,-0.785558,-0.349042
1631021165180,-0.516853,-0.786168,-0.348859
1631021165190,-0.517158,-0.786351,-0.34831
1631021165199,-0.516792,-0.786351,-0.347822
1631021165209,-0.515938,-0.787083,-0.347456
1631021165218,-0.515145,-0.785924,-0.348127
1631021165228,-0.51484,-0.785802,-0.347944
1631021165238,-0.514169,-0.784643,-0.349164
1631021165247,-0.513925,-0.784887,-0.34831
1631021165257,-0.51301,-0.784094,-0.349042
1631021165266,-0.513254,-0.783423,-0.348432
1631021165276,-0.513132,-0.784887,-0.347639
1631021165286,-0.514047,-0.7859849999999999,-0.345748
1631021165295,-0.514047,-0.7856799999999999,-0.344833
1631021165305,-0.514352,-0.785863,-0.345199
1631021165314,-0.514962,-0.786534,-0.344223
1631021165324,-0.515084,-0.787266,-0.344528
1631021165334,-0.514779,-0.7875099999999999,-0.343735
1631021165343,-0.515084,-0.786839,-0.343918
1631021165353,-0.515572,-0.786473,-0.343308
1631021165362,-0.516487,-0.786351,-0.34385699999999997
1631021165372,-0.516853,-0.785802,-0.343735
1631021165382,-0.51728,-0.786168,-0.344101
1631021165391,-0.517402,-0.7853749999999999,-0.345626
1631021165401,-0.516365,-0.784582,-0.344528
1631021165410,-0.51667,-0.783606,-0.344345
1631021165420,-0.517524,-0.7829349999999999,-0.345748
1631021165430,-0.516609,-0.784033,-0.345443
1631021165439,-0.51606,-0.785436,-0.344833
1631021165449,-0.517402,-0.785436,-0.344589
1631021165458,-0.5155109999999999,-0.785009,-0.34263699999999997
1631021165468,-0.515999,-0.7838499999999999,-0.34080699999999997
1631021165478,-0.518317,-0.784338,-0.34038
1631021165487,-0.519964,-0.785436,-0.340746
1631021165497,-0.519903,-0.788913,-0.34526
1631021165506,-0.519903,-0.791414,-0.34953
1631021165516,-0.519964,-0.792573,-0.349347
1631021165526,-0.518683,-0.790804,-0.347273
1631021165535,-0.516914,-0.788974,-0.345565
1631021165545,-0.516182,-0.788486,-0.343613
1631021165554,-0.5145959999999999,-0.789279,-0.342088
1631021165564,-0.513437,-0.787022,-0.34050199999999997
1631021165574,-0.513559,-0.785436,-0.340868
1631021165583,-0.512339,-0.784948,-0.342271
1631021165593,-0.512095,-0.785863,-0.343369
1631021165602,-0.512217,-0.784033,-0.343918
1631021165612,-0.5124,-0.7844599999999999,-0.342759
1631021165622,-0.51179,-0.7844599999999999,-0.34282
1631021165631,-0.513742,-0.784643,-0.343735
1631021165641,-0.5142909999999999,-0.787022,-0.344223
1631021165650,-0.5152059999999999,-0.788242,-0.344894
1631021165660,-0.5149009999999999,-0.788791,-0.346846
1631021165670,-0.514962,-0.788913,-0.347761
1631021165679,-0.514718,-0.788974,-0.347517
1631021165689,-0.515267,-0.7881199999999999,-0.347456
1631021165698,-0.513498,-0.785558,-0.34526
1631021165708,-0.5158159999999999,-0.783911,-0.345504
1631021165718,-0.5155109999999999,-0.783301,-0.346358
1631021165727,-0.5155109999999999,-0.784399,-0.347883
1631021165737,-0.514718,-0.786412,-0.35075
1631021165746,-0.5149009999999999,-0.787266,-0.351665
1631021165756,-0.515145,-0.785436,-0.350201
1631021165766,-0.5139859999999999,-0.783728,-0.349835
1631021165775,-0.5136809999999999,-0.783728,-0.3477
1631021165785,-0.513315,-0.783972,-0.347822
1631021165794,-0.513315,-0.784338,-0.347944
1631021165804,-0.5130709999999999,-0.784582,-0.34721199999999997
1631021165814,-0.512827,-0.7856799999999999,-0.348127
1631021165823,-0.513254,-0.786229,-0.348371
1631021165833,-0.5124609999999999,-0.787266,-0.349103
1631021165842,-0.51301,-0.786839,-0.348554
1631021165852,-0.512034,-0.786717,-0.348188
1631021165862,-0.512888,-0.787022,-0.34831
1631021165871,-0.511973,-0.787266,-0.347883
1631021165881,-0.511058,-0.787144,-0.347517
1631021165890,-0.512217,-0.787327,-0.347334
1631021165900,-0.511363,-0.787754,-0.347578
1631021165910,-0.512034,-0.7878149999999999,-0.347822
1631021165919,-0.511546,-0.787754,-0.347883
1631021165929,-0.511729,-0.788852,-0.348554
1631021165938,-0.510448,-0.789401,-0.346724
1631021165948,-0.511363,-0.7881199999999999,-0.346236
1631021165958,-0.510082,-0.7887299999999999,-0.345748
1631021165967,-0.51057,-0.788486,-0.344894
1631021165977,-0.510448,-0.7878149999999999,-0.345504
1631021165986,-0.511119,-0.787754,-0.344833
1631021165996,-0.511729,-0.7868999999999999,-0.344894
1631021166006,-0.511668,-0.786961,-0.344711
1631021166015,-0.511607,-0.787144,-0.345931
1631021166025,-0.51179,-0.787266,-0.345748
1631021166034,-0.511729,-0.787266,-0.345748
1631021166044,-0.512278,-0.787693,-0.345321
1631021166054,-0.513254,-0.7881199999999999,-0.346358
1631021166063,-0.513193,-0.789157,-0.34587
1631021166073,-0.513803,-0.788669,-0.345504
1631021166082,-0.5136809999999999,-0.789096,-0.345809
1631021166092,-0.5133759999999999,-0.7890349999999999,-0.345748
1631021166102,-0.5139859999999999,-0.788242,-0.345809
1631021166111,-0.513742,-0.786961,-0.346724
1631021166121,-0.512522,-0.787876,-0.347517
1631021166130,-0.51179,-0.787876,-0.346541
1631021166140,-0.511912,-0.7878149999999999,-0.345748
1631021166150,-0.511973,-0.785924,-0.344101
1631021166159,-0.510631,-0.782569,-0.34080699999999997
1631021166169,-0.512949,-0.782874,-0.343064
1631021166178,-0.512705,-0.785436,-0.34599199999999997
1631021166188,-0.513254,-0.789157,-0.349408
1631021166198,-0.512156,-0.791597,-0.351848
1631021166207,-0.5127659999999999,-0.793854,-0.35282399999999997
1631021166217,-0.511668,-0.792207,-0.349591
1631021166226,-0.509594,-0.790072,-0.346236
1631021166236,-0.508618,-0.7884249999999999,-0.34465
1631021166246,-0.508008,-0.787693,-0.343918
1631021166255,-0.507398,-0.7859849999999999,-0.344223
1631021166265,-0.507886,-0.784216,-0.344406
1631021166274,-0.507459,-0.785009,-0.344894
1631021166284,-0.507093,-0.786351,-0.345504
1631021166294,-0.507154,-0.786473,-0.344955
1631021166303,-0.507337,-0.788486,-0.345565
1631021166313,-0.507947,-0.787449,-0.343979
1631021166322,-0.508679,-0.787937,-0.344894
1631021166332,-0.508801,-0.789401,-0.345504
1631021166342,-0.509716,-0.789889,-0.34660199999999997
1631021166351,-0.510021,-0.790316,-0.346846
1631021166361,-0.511729,-0.789889,-0.347944
1631021166370,-0.511668,-0.788547,-0.349713
1631021166380,-0.510448,-0.787693,-0.350689
1631021166390,-0.510387,-0.786778,-0.348676
1631021166399,-0.512278,-0.784094,-0.349103
1631021166409,-0.5124,-0.7841549999999999,-0.350506
1631021166418,-0.5124,-0.785009,-0.352153
1631021166428,-0.512644,-0.7878149999999999,-0.35434899999999997
1631021166438,-0.5130709999999999,-0.788242,-0.35434899999999997
1631021166447,-0.512644,-0.786839,-0.352397
1631021166457,-0.512156,-0.784582,-0.350689
1631021166466,-0.512644,-0.784094,-0.349774
1631021166476,-0.512339,-0.785192,-0.349042
1631021166486,-0.511973,-0.786168,-0.348371
1631021166495,-0.512522,-0.785863,-0.347944
1631021166505,-0.511729,-0.7868999999999999,-0.3477
1631021166514,-0.512278,-0.788181,-0.347517
1631021166524,-0.512339,-0.788547,-0.348249
1631021166534,-0.51301,-0.7881199999999999,-0.348066
1631021166543,-0.512583,-0.7875099999999999,-0.348981
1631021166553,-0.514047,-0.787876,-0.347944
1631021166562,-0.512278,-0.787022,-0.348493
1631021166572,-0.513437,-0.786778,-0.348066
1631021166582,-0.513742,-0.787022,-0.34831
1631021166591,-0.513315,-0.788059,-0.348737
1631021166601,-0.5130709999999999,-0.788547,-0.348859
1631021166610,-0.5133759999999999,-0.788547,-0.3477
1631021166620,-0.513498,-0.787327,-0.347456
1631021166630,-0.513132,-0.7862899999999999,-0.348188
1631021166639,-0.512583,-0.785802,-0.347029
1631021166649,-0.512705,-0.785009,-0.347517
1631021166658,-0.512278,-0.785863,-0.346968
1631021166668,-0.512705,-0.784826,-0.347517
1631021166678,-0.511485,-0.784216,-0.346968
1631021166687,-0.512034,-0.784277,-0.34660199999999997
1631021166697,-0.512095,-0.784704,-0.346846
1631021166706,-0.512217,-0.784277,-0.346114
1631021166716,-0.511729,-0.785131,-0.344711
1631021166726,-0.511607,-0.785924,-0.344589
1631021166735,-0.5130709999999999,-0.786351,-0.344589
1631021166745,-0.513193,-0.787388,-0.344711
1631021166754,-0.513254,-0.786412,-0.34477199999999997
1631021166764,-0.513132,-0.786656,-0.344223
1631021166774,-0.512339,-0.787327,-0.343918
1631021166783,-0.511851,-0.787998,-0.343613
1631021166793,-0.513193,-0.788608,-0.344101
1631021166802,-0.513315,-0.789523,-0.343491
1631021166812,-0.512522,-0.789218,-0.34282
1631021166822,-0.513132,-0.789279,-0.342454
1631021166831,-0.513315,-0.789218,-0.342576
1631021166841,-0.514047,-0.789462,-0.343918
1631021166850,-0.513132,-0.791231,-0.34263699999999997
1631021166860,-0.512217,-0.791597,-0.34343
1631021166870,-0.512644,-0.791658,-0.342149
1631021166879,-0.511607,-0.790072,-0.339465
1631021166889,-0.511302,-0.7902549999999999,-0.338123
1631021166898,-0.5139859999999999,-0.790072,-0.340014
1631021166908,-0.5136809999999999,-0.790804,-0.34099
1631021166918,-0.513559,-0.793305,-0.34526
1631021166927,-0.513742,-0.795379,-0.347334
1631021166937,-0.513254,-0.794525,-0.34721199999999997
1631021166946,-0.512888,-0.791658,-0.345748
1631021166956,-0.510936,-0.7902549999999999,-0.34416199999999997
1631021166966,-0.509472,-0.7902549999999999,-0.343796
1631021166975,-0.50935,-0.789828,-0.343003
1631021166985,-0.508496,-0.789706,-0.342698
1631021166994,-0.508252,-0.788364,-0.342881
1631021167004,-0.507825,-0.787754,-0.344101
1631021167014,-0.508008,-0.787998,-0.34477199999999997
1631021167023,-0.508435,-0.787693,-0.344284
1631021167033,-0.507032,-0.787327,-0.34446699999999997
1631021167042,-0.508313,-0.787022,-0.343003
1631021167052,-0.508496,-0.786656,-0.343125
1631021167062,-0.508862,-0.788608,-0.344284
1631021167071,-0.509533,-0.789279,-0.34477199999999997
1631021167081,-0.510082,-0.789706,-0.345321
1631021167090,-0.509899,-0.789462,-0.34587
1631021167100,-0.50996,-0.788913,-0.346724
1631021167110,-0.510814,-0.7896449999999999,-0.348249
1631021167119,-0.510265,-0.7878149999999999,-0.34660199999999997
1631021167129,-0.510631,-0.7862899999999999,-0.347273
1631021167138,-0.512034,-0.786473,-0.346724
1631021167148,-0.511546,-0.785802,-0.347395
1631021167158,-0.510753,-0.788547,-0.348981
1631021167167,-0.511119,-0.789828,-0.34953
1631021167177,-0.510814,-0.7887299999999999,-0.348432
1631021167186,-0.511119,-0.787998,-0.34690699999999997
1631021167196,-0.509838,-0.788059,-0.346114
1631021167206,-0.511058,-0.788486,-0.345565
1631021167215,-0.50996,-0.788608,-0.344101
1631021167225,-0.510875,-0.789218,-0.343491
1631021167234,-0.50996,-0.789157,-0.34385699999999997
1631021167244,-0.510509,-0.790743,-0.34355199999999997
1631021167254,-0.51057,-0.790743,-0.343308
1631021167263,-0.510936,-0.790682,-0.344894
1631021167273,-0.510814,-0.7911699999999999,-0.344284
1631021167282,-0.510875,-0.790316,-0.345199
1631021167292,-0.510631,-0.790011,-0.345443
1631021167302,-0.511241,-0.789889,-0.345809
1631021167311,-0.510509,-0.789584,-0.34538199999999997
1631021167321,-0.511058,-0.790194,-0.345809
1631021167330,-0.510448,-0.790926,-0.34507699999999997
1631021167340,-0.508923,-0.790682,-0.345748
1631021167350,-0.509472,-0.790987,-0.34465
1631021167359,-0.50874,-0.789523,-0.34568699999999997
1631021167369,-0.508862,-0.789462,-0.34538199999999997
1631021167378,-0.508984,-0.789706,-0.34526
1631021167388,-0.50874,-0.788974,-0.345138
1631021167398,-0.50874,-0.788669,-0.344223
1631021167407,-0.509106,-0.789584,-0.34324699999999997
1631021167417,-0.508252,-0.790621,-0.342698
1631021167426,-0.508496,-0.791109,-0.342454
1631021167436,-0.507886,-0.7914749999999999,-0.342088
1631021167446,-0.507581,-0.791536,-0.342454
1631021167455,-0.508191,-0.791048,-0.341356
1631021167465,-0.508374,-0.790377,-0.342515
1631021167474,-0.508008,-0.7905599999999999,-0.343308
1631021167484,-0.508435,-0.790682,-0.343613
1631021167494,-0.509106,-0.790682,-0.343918
1631021167503,-0.508679,-0.790926,-0.344406
1631021167513,-0.50874,-0.790682,-0.343491
1631021167522,-0.507825,-0.791048,-0.34416199999999997
1631021167532,-0.508984,-0.791597,-0.34355199999999997
1631021167542,-0.509228,-0.792024,-0.34385699999999997
1631021167551,-0.508008,-0.792268,-0.343064
1631021167561,-0.507886,-0.791963,-0.341661
1631021167570,-0.507581,-0.7917799999999999,-0.34263699999999997
1631021167580,-0.507886,-0.792146,-0.340929
1631021167590,-0.508008,-0.792756,-0.342698
1631021167599,-0.508069,-0.79483,-0.343308
1631021167609,-0.507032,-0.795196,-0.34294199999999997
1631021167618,-0.507764,-0.794952,-0.34111199999999997
1631021167628,-0.50813,-0.792451,-0.340075
1631021167638,-0.508618,-0.790804,-0.338977
1631021167647,-0.508313,-0.7905599999999999,-0.339709
1631021167657,-0.509228,-0.7920849999999999,-0.342088
1631021167666,-0.509777,-0.792939,-0.345809
1631021167676,-0.50935,-0.795013,-0.349164
1631021167686,-0.509655,-0.79361,-0.35014
1631021167695,-0.509106,-0.790316,-0.347822
1631021167705,-0.507093,-0.788608,-0.344833
1631021167714,-0.506849,-0.788547,-0.34385699999999997
1631021167724,-0.506849,-0.7890349999999999,-0.344101
1631021167734,-0.505568,-0.7875099999999999,-0.343918
1631021167743,-0.50691,-0.7878149999999999,-0.344528
1631021167753,-0.506239,-0.788242,-0.344894
1631021167762,-0.506239,-0.789218,-0.344528
1631021167772,-0.506178,-0.789706,-0.343796
1631021167782,-0.5063,-0.790621,-0.34324699999999997
1631021167791,-0.507154,-0.7893399999999999,-0.342515
1631021167801,-0.508191,-0.788913,-0.34233199999999997
1631021167810,-0.508801,-0.789523,-0.34282
1631021167820,-0.509045,-0.790987,-0.34355199999999997
1631021167830,-0.509411,-0.791658,-0.34507699999999997
1631021167839,-0.509899,-0.7908649999999999,-0.347273
1631021167849,-0.508801,-0.790804,-0.349408
1631021167858,-0.509777,-0.7908649999999999,-0.351726
1631021167868,-0.509228,-0.789279,-0.35197
1631021167878,-0.508496,-0.787632,-0.349896
1631021167887,-0.508435,-0.786168,-0.34709
1631021167897,-0.508374,-0.786107,-0.344406
1631021167906,-0.50752,-0.788059,-0.346541
1631021167916,-0.507825,-0.792146,-0.348066
1631021167926,-0.50874,-0.791963,-0.348432
1631021167935,-0.509045,-0.790438,-0.346358
1631021167945,-0.510143,-0.788791,-0.345016
1631021167954,-0.510509,-0.789523,-0.344711
1631021167964,-0.510326,-0.788974,-0.345809
1631021167974,-0.510997,-0.789279,-0.346053
1631021167983,-0.510509,-0.789279,-0.345565
1631021167993,-0.510814,-0.789889,-0.345504
1631021168002,-0.511973,-0.790072,-0.34587
1631021168012,-0.512156,-0.789889,-0.345321
1631021168022,-0.51179,-0.7899499999999999,-0.34416199999999997
1631021168031,-0.512827,-0.788852,-0.34385699999999997
1631021168041,-0.5124,-0.788547,-0.342088
1631021168050,-0.513315,-0.789462,-0.341783
1631021168060,-0.51362,-0.790438,-0.34233199999999997
1631021168070,-0.514352,-0.791414,-0.341844
1631021168079,-0.515145,-0.792451,-0.341539
1631021168089,-0.515389,-0.792329,-0.34111199999999997
1631021168098,-0.514535,-0.792268,-0.34080699999999997
1631021168108,-0.513315,-0.7911699999999999,-0.33977
1631021168118,-0.514169,-0.790682,-0.33989199999999997
1631021168127,-0.512888,-0.7902549999999999,-0.339343
1631021168137,-0.512705,-0.789767,-0.339404
1631021168146,-0.512888,-0.789279,-0.340014
1631021168156,-0.512949,-0.7881199999999999,-0.33989199999999997
1631021168166,-0.512217,-0.789096,-0.339221
1631021168175,-0.512217,-0.789157,-0.33989199999999997
1631021168185,-0.511851,-0.790011,-0.340136
1631021168194,-0.511851,-0.790316,-0.33977
1631021168204,-0.511607,-0.7896449999999999,-0.338672
1631021168214,-0.511546,-0.7902549999999999,-0.339953
1631021168223,-0.511363,-0.789767,-0.34038
1631021168233,-0.510936,-0.789096,-0.339831
1631021168242,-0.511607,-0.789096,-0.339465
1631021168252,-0.510509,-0.789767,-0.341295
1631021168262,-0.510448,-0.790804,-0.341539
1631021168271,-0.508923,-0.7902549999999999,-0.340868
1631021168281,-0.508984,-0.7908649999999999,-0.341295
1631021168290,-0.50874,-0.791719,-0.340075
1631021168300,-0.507703,-0.791719,-0.34099
1631021168310,-0.507215,-0.793732,-0.341661
1631021168319,-0.507154,-0.794586,-0.341478
1631021168329,-0.506788,-0.796233,-0.34172199999999997
1631021168338,-0.507093,-0.795318,-0.340746
1631021168348,-0.505873,-0.795989,-0.342759
1631021168358,-0.506361,-0.795928,-0.34282
1631021168367,-0.506483,-0.795379,-0.343613
1631021168377,-0.504409,-0.795806,-0.344833
1631021168386,-0.503372,-0.796416,-0.343735
1631021168396,-0.503738,-0.795745,-0.344223
1631021168406,-0.504287,-0.792939,-0.343186
1631021168415,-0.503128,-0.788913,-0.340014
1631021168425,-0.504348,-0.788608,-0.340746
1631021168434,-0.505385,-0.792024,-0.343674
1631021168444,-0.506178,-0.795562,-0.347761
1631021168454,-0.507276,-0.799832,-0.350994
1631021168463,-0.505568,-0.80093,-0.350567
1631021168473,-0.505568,-0.7984289999999999,-0.348249
1631021168482,-0.504592,-0.795257,-0.345016
1631021168492,-0.503128,-0.792146,-0.344589
1631021168502,-0.503555,-0.790621,-0.344589
1631021168511,-0.503555,-0.7887299999999999,-0.34465
1631021168521,-0.503494,-0.7868999999999999,-0.345748
1631021168530,-0.503616,-0.7868999999999999,-0.346846
1631021168540,-0.503677,-0.7875099999999999,-0.346175
1631021168550,-0.504287,-0.789218,-0.34587
1631021168559,-0.503982,-0.790377,-0.34568699999999997
1631021168569,-0.504897,-0.790377,-0.343979
1631021168578,-0.504409,-0.788974,-0.345016
1631021168588,-0.50569,-0.788852,-0.344894
1631021168598,-0.506849,-0.788913,-0.345504
1631021168607,-0.506971,-0.789584,-0.346663
1631021168617,-0.508069,-0.789767,-0.347883
1631021168626,-0.508435,-0.789401,-0.348615
1631021168636,-0.509289,-0.789401,-0.348554
1631021168646,-0.508069,-0.788547,-0.349042
1631021168655,-0.51057,-0.785863,-0.349225
1631021168665,-0.511668,-0.786839,-0.348981
1631021168674,-0.511546,-0.7865949999999999,-0.349164
1631021168684,-0.511668,-0.7884249999999999,-0.35160399999999997
1631021168694,-0.511119,-0.789096,-0.352031
1631021168703,-0.510936,-0.787327,-0.349347
1631021168713,-0.511058,-0.785802,-0.347395
1631021168722,-0.510326,-0.786107,-0.346724
1631021168732,-0.509228,-0.786351,-0.346541
1631021168742,-0.508679,-0.786717,-0.346358
1631021168751,-0.507825,-0.786107,-0.345809
1631021168761,-0.508618,-0.786961,-0.34648
1631021168770,-0.509411,-0.788486,-0.347456
1631021168780,-0.509472,-0.789401,-0.348066
1631021168790,-0.508679,-0.7902549999999999,-0.34721199999999997
1631021168799,-0.508313,-0.790133,-0.346785
1631021168809,-0.507825,-0.790194,-0.346175
1631021168818,-0.508191,-0.791231,-0.347151
1631021168828,-0.508679,-0.791292,-0.346724
1631021168838,-0.508008,-0.792146,-0.347151
1631021168847,-0.50752,-0.7911699999999999,-0.346724
1631021168857,-0.507764,-0.791658,-0.347456
1631021168866,-0.507276,-0.791231,-0.347334
1631021168876,-0.508679,-0.791719,-0.347639
1631021168886,-0.507581,-0.791536,-0.346114
1631021168895,-0.506666,-0.7920849999999999,-0.345199
1631021168905,-0.507093,-0.792512,-0.34477199999999997
1631021168914,-0.50691,-0.791597,-0.34465
1631021168924,-0.506483,-0.791658,-0.343369
1631021168934,-0.50691,-0.790926,-0.343796
1631021168943,-0.506788,-0.791536,-0.34343
1631021168953,-0.507276,-0.791719,-0.343308
1631021168962,-0.507398,-0.7920849999999999,-0.343674
1631021168972,-0.507093,-0.793183,-0.343125
1631021168982,-0.507398,-0.793122,-0.34343
1631021168991,-0.507398,-0.793366,-0.343308
1631021169001,-0.507825,-0.793732,-0.341783
1631021169010,-0.509106,-0.793549,-0.341905
1631021169020,-0.509228,-0.793427,-0.342759
1631021169030,-0.50874,-0.79422,-0.343186
1631021169039,-0.50874,-0.794281,-0.344528
1631021169049,-0.508679,-0.794342,-0.34587
1631021169058,-0.507276,-0.792756,-0.34526
1631021169068,-0.507947,-0.790194,-0.344894
1631021169078,-0.507093,-0.789706,-0.343979
1631021169087,-0.505812,-0.789889,-0.34385699999999997
1631021169097,-0.505751,-0.790499,-0.34324699999999997
1631021169106,-0.505202,-0.790804,-0.34263699999999997
1631021169116,-0.50386,-0.791536,-0.34221
1631021169126,-0.504592,-0.790682,-0.341539
1631021169135,-0.504653,-0.789889,-0.341966
1631021169145,-0.504775,-0.7908649999999999,-0.34233199999999997
1631021169154,-0.504714,-0.791536,-0.34221
1631021169164,-0.505202,-0.793488,-0.340868
1631021169174,-0.505141,-0.794342,-0.339038
1631021169183,-0.505812,-0.79422,-0.337818
1631021169193,-0.504958,-0.7917799999999999,-0.335683
1631021169202,-0.506605,-0.790804,-0.336781
1631021169212,-0.507032,-0.792451,-0.338245
1631021169222,-0.508496,-0.794342,-0.342576
1631021169231,-0.508984,-0.795806,-0.347151
1631021169241,-0.508862,-0.79605,-0.3477
1631021169250,-0.508679,-0.79361,-0.34660199999999997
1631021169260,-0.508069,-0.7908649999999999,-0.344711
1631021169270,-0.507581,-0.789523,-0.343186
1631021169279,-0.506971,-0.790621,-0.341966
1631021169289,-0.508191,-0.791048,-0.341905
1631021169298,-0.507398,-0.7914749999999999,-0.341234
1631021169308,-0.507886,-0.7920849999999999,-0.341051
1631021169318,-0.508374,-0.794586,-0.340258
1631021169327,-0.508496,-0.79544,-0.340685
1631021169337,-0.508618,-0.794098,-0.34050199999999997
1631021169346,-0.508008,-0.793,-0.33989199999999997
1631021169356,-0.508679,-0.791414,-0.339831
1631021169366,-0.508435,-0.791048,-0.340136
1631021169375,-0.508435,-0.791536,-0.341478
1631021169385,-0.510265,-0.790194,-0.343308
1631021169394,-0.510631,-0.790682,-0.344101
1631021169404,-0.511546,-0.790926,-0.34416199999999997
1631021169414,-0.511668,-0.790682,-0.34538199999999997
1631021169423,-0.511912,-0.791048,-0.344345
1631021169433,-0.511058,-0.791414,-0.343979
1631021169442,-0.512583,-0.791658,-0.342515
1631021169452,-0.512644,-0.791658,-0.341356
1631021169462,-0.512339,-0.791048,-0.341478
1631021169471,-0.511912,-0.7911699999999999,-0.347517
1631021169481,-0.511363,-0.791658,-0.349408
1631021169490,-0.510875,-0.792207,-0.34660199999999997
1631021169500,-0.509472,-0.787998,-0.345931
1631021169510,-0.510082,-0.789401,-0.344894
1631021169519,-0.509289,-0.789096,-0.34599199999999997
1631021169529,-0.509838,-0.7887299999999999,-0.344345
1631021169538,-0.507947,-0.788669,-0.343735
1631021169548,-0.508069,-0.7899499999999999,-0.34343
1631021169558,-0.507154,-0.788852,-0.344101
1631021169567,-0.507154,-0.789462,-0.344589
1631021169577,-0.507276,-0.791902,-0.345016
1631021169586,-0.506483,-0.791536,-0.345199
1631021169596,-0.506605,-0.791109,-0.345138
1631021169606,-0.507581,-0.792146,-0.344955
1631021169615,-0.507032,-0.792817,-0.34343
1631021169625,-0.506422,-0.793366,-0.34477199999999997
1631021169634,-0.505446,-0.793915,-0.344101
1631021169644,-0.506727,-0.79483,-0.343674
1631021169654,-0.505568,-0.79422,-0.34355199999999997
1631021169663,-0.505263,-0.79361,-0.343369
1631021169673,-0.50508,-0.793061,-0.343735
1631021169682,-0.504836,-0.792695,-0.34282
1631021169692,-0.505019,-0.793488,-0.342393
1631021169702,-0.503982,-0.793854,-0.3416
1631021169711,-0.504043,-0.792695,-0.340624
1631021169721,-0.504165,-0.793305,-0.34019699999999997
1631021169730,-0.504348,-0.793854,-0.339953
1631021169740,-0.504653,-0.794098,-0.340746
1631021169750,-0.504226,-0.79361,-0.340929
1631021169759,-0.505202,-0.794342,-0.340563
1631021169769,-0.505202,-0.794769,-0.341234
1631021169778,-0.505263,-0.794342,-0.341234
1631021169788,-0.505385,-0.79361,-0.341844
1631021169798,-0.506239,-0.79422,-0.340624
1631021169807,-0.50447,-0.794647,-0.33977
1631021169817,-0.505873,-0.793976,-0.34038
1631021169826,-0.506239,-0.794403,-0.340441
1631021169836,-0.505324,-0.794037,-0.34099
1631021169846,-0.506788,-0.794769,-0.341661
1631021169855,-0.506544,-0.792573,-0.342393
1631021169865,-0.507093,-0.792146,-0.342759
1631021169874,-0.507093,-0.795623,-0.340624
1631021169884,-0.506422,-0.795684,-0.340258
1631021169894,-0.505629,-0.795745,-0.341539
1631021169903,-0.505873,-0.795806,-0.3416
1631021169913,-0.504775,-0.795806,-0.341356
1631021169922,-0.504409,-0.795501,-0.340624
1631021169932,-0.504958,-0.79544,-0.341356
1631021169942,-0.50569,-0.794159,-0.342149
1631021169951,-0.503982,-0.795013,-0.34221
1631021169961,-0.503494,-0.79544,-0.341478
1631021169970,-0.503372,-0.795318,-0.34233199999999997
1631021169980,-0.503006,-0.793915,-0.340441
1631021169990,-0.503067,-0.793488,-0.33958699999999997
1631021169999,-0.50386,-0.792451,-0.340258
1631021170009,-0.505568,-0.793915,-0.342881
1631021170018,-0.505751,-0.795013,-0.346175
1631021170028,-0.506422,-0.796416,-0.350201
1631021170038,-0.505995,-0.796416,-0.350079
1631021170047,-0.507032,-0.794098,-0.349652
1631021170057,-0.505873,-0.7914749999999999,-0.347944
1631021170066,-0.504409,-0.791658,-0.346968
1631021170076,-0.503372,-0.791658,-0.34599199999999997
1631021170086,-0.50386,-0.7917799999999999,-0.34568699999999997
1631021170095,-0.503677,-0.791536,-0.346175
1631021170105,-0.503372,-0.791353,-0.346175
1631021170114,-0.503677,-0.792329,-0.346236
1631021170124,-0.503128,-0.793793,-0.34568699999999997
1631021170134,-0.503128,-0.792512,-0.343979
1631021170143,-0.503555,-0.790682,-0.343796
1631021170153,-0.503128,-0.790377,-0.34385699999999997
1631021170162,-0.502701,-0.7905599999999999,-0.343308
1631021170172,-0.504104,-0.79239,-0.34355199999999997
1631021170182,-0.502945,-0.793427,-0.343064
1631021170191,-0.504104,-0.793122,-0.343735
1631021170201,-0.503555,-0.792451,-0.343186
1631021170210,-0.50386,-0.793976,-0.34324699999999997
1631021170220,-0.504104,-0.795135,-0.344589
1631021170230,-0.503738,-0.794037,-0.343796
1631021170239,-0.504836,-0.793,-0.34538199999999997
1631021170249,-0.505629,-0.792329,-0.345626
1631021170258,-0.505934,-0.792268,-0.34587
1631021170268,-0.505324,-0.795379,-0.348859
1631021170278,-0.504287,-0.79666,-0.3477
1631021170287,-0.503921,-0.794281,-0.346114
1631021170297,-0.503006,-0.792817,-0.344528
1631021170306,-0.501786,-0.793244,-0.34263699999999997
1631021170316,-0.501176,-0.794159,-0.34233199999999997
1631021170326,-0.502396,-0.79422,-0.342149
1631021170335,-0.500627,-0.796416,-0.342393
1631021170345,-0.501725,-0.796904,-0.34263699999999997
1631021170354,-0.500566,-0.797758,-0.34385699999999997
1631021170364,-0.500932,-0.797758,-0.343735
1631021170374,-0.501176,-0.797941,-0.343125
1631021170383,-0.50203,-0.798124,-0.34202699999999997
1631021170393,-0.502274,-0.797941,-0.34172199999999997
1631021170402,-0.502518,-0.796965,-0.34099
1631021170412,-0.501542,-0.798124,-0.342088
1631021170422,-0.500871,-0.797514,-0.343125
1631021170431,-0.501664,-0.795989,-0.342393
1631021170441,-0.501359,-0.795745,-0.342759
1631021170450,-0.501786,-0.796721,-0.343064
1631021170460,-0.502579,-0.797087,-0.344589
1631021170470,-0.50386,-0.795928,-0.34526
1631021170479,-0.50386,-0.795684,-0.346175
1631021170489,-0.503311,-0.795318,-0.345565
1631021170498,-0.502945,-0.793976,-0.34465
1631021170508,-0.502701,-0.793244,-0.34477199999999997
1631021170518,-0.503372,-0.793,-0.34477199999999997
1631021170527,-0.503067,-0.793183,-0.344406
1631021170537,-0.503738,-0.792207,-0.34629699999999997
1631021170546,-0.503006,-0.7917799999999999,-0.34599199999999997
1631021170556,-0.502152,-0.7917799999999999,-0.34507699999999997
1631021170566,-0.502884,-0.790804,-0.345443
1631021170575,-0.503067,-0.791597,-0.344345
1631021170585,-0.503372,-0.793305,-0.34465
1631021170594,-0.503128,-0.795074,-0.344406
1631021170604,-0.503189,-0.795684,-0.343918
1631021170614,-0.503311,-0.797148,-0.343674
1631021170623,-0.504409,-0.797087,-0.343125
1631021170633,-0.504226,-0.796782,-0.343003
1631021170642,-0.502518,-0.796172,-0.342271
1631021170652,-0.502518,-0.795318,-0.342881
1631021170662,-0.502274,-0.796172,-0.34233199999999997
1631021170671,-0.501969,-0.795745,-0.342881
1631021170681,-0.502091,-0.795928,-0.343918
1631021170690,-0.502945,-0.796477,-0.34385699999999997
1631021170700,-0.503494,-0.796965,-0.34404
1631021170710,-0.50325,-0.797392,-0.344345
1631021170719,-0.503128,-0.796111,-0.34526
1631021170729,-0.503677,-0.795806,-0.34538199999999997
1631021170738,-0.501725,-0.796538,-0.346541
1631021170748,-0.501176,-0.796904,-0.345565
1631021170758,-0.500932,-0.795196,-0.345199
1631021170767,-0.501298,-0.792329,-0.34477199999999997
1631021170777,-0.499712,-0.7890349999999999,-0.343369
1631021170786,-0.501664,-0.788852,-0.34477199999999997
1631021170796,-0.504226,-0.790987,-0.346541
1631021170806,-0.504653,-0.794464,-0.349896
1631021170815,-0.504287,-0.798307,-0.352946
1631021170825,-0.504165,-0.7991,-0.35404399999999997
1631021170834,-0.503372,-0.797636,-0.352702
1631021170844,-0.502152,-0.794281,-0.349774
1631021170854,-0.501298,-0.791048,-0.348005
1631021170863,-0.501359,-0.789889,-0.347151
1631021170873,-0.500322,-0.7890349999999999,-0.34721199999999997
1631021170882,-0.499407,-0.7872049999999999,-0.347639
1631021170892,-0.499346,-0.786778,-0.347578
1631021170902,-0.499041,-0.787998,-0.348371
1631021170911,-0.498675,-0.790316,-0.348676
1631021170921,-0.498919,-0.7911699999999999,-0.348066
1631021170930,-0.49916299999999997,-0.792573,-0.346541
1631021170940,-0.5002,-0.792817,-0.345748
1631021170950,-0.500322,-0.794891,-0.346236
1631021170959,-0.502274,-0.795562,-0.347944
1631021170969,-0.501847,-0.795928,-0.348249
1631021170978,-0.502701,-0.795074,-0.348859
1631021170988,-0.502457,-0.794159,-0.350872
1631021170998,-0.502579,-0.794403,-0.351299
1631021171007,-0.501115,-0.794281,-0.351177
1631021171017,-0.50203,-0.790377,-0.35136
1631021171026,-0.503616,-0.7902549999999999,-0.352397
1631021171036,-0.502579,-0.789889,-0.353068
1631021171046,-0.501359,-0.792329,-0.35526399999999997
1631021171055,-0.500749,-0.793488,-0.355813
1631021171065,-0.500688,-0.792695,-0.354471
1631021171074,-0.500749,-0.7899499999999999,-0.351665
1631021171084,-0.49885799999999997,-0.789279,-0.350872
1631021171094,-0.49885799999999997,-0.791353,-0.351055
1631021171103,-0.499224,-0.793366,-0.348371
1631021171113,-0.499407,-0.795013,-0.347578
1631021171122,-0.499285,-0.795562,-0.347029
1631021171132,-0.500566,-0.796416,-0.348005
1631021171142,-0.499956,-0.798063,-0.347944
1631021171151,-0.49946799999999997,-0.797148,-0.347822
1631021171161,-0.500505,-0.796477,-0.347944
1631021171170,-0.500505,-0.794952,-0.347944
1631021171180,-0.500444,-0.794403,-0.347944
1631021171190,-0.500993,-0.794708,-0.348249
1631021171199,-0.500078,-0.794037,-0.348005
1631021171209,-0.499956,-0.791414,-0.348981
1631021171218,-0.500505,-0.7914749999999999,-0.349835
1631021171228,-0.501115,-0.790377,-0.351665
1631021171238,-0.500688,-0.7899499999999999,-0.351482
1631021171247,-0.500871,-0.789462,-0.351482
1631021171257,-0.500444,-0.789218,-0.35221399999999997
1631021171266,-0.500688,-0.7893399999999999,-0.35136
1631021171276,-0.50081,-0.7899499999999999,-0.350872
1631021171286,-0.500444,-0.789401,-0.350445
1631021171295,-0.50142,-0.790316,-0.349835
1631021171305,-0.501786,-0.790804,-0.349042
1631021171314,-0.502091,-0.791963,-0.347883
1631021171324,-0.501908,-0.791353,-0.34831
1631021171334,-0.502579,-0.791353,-0.346785
1631021171343,-0.502213,-0.79239,-0.346846
1631021171353,-0.502396,-0.792756,-0.34538199999999997
1631021171362,-0.502823,-0.792573,-0.344894
1631021171372,-0.503372,-0.793183,-0.346419
1631021171382,-0.502396,-0.7920849999999999,-0.345748
1631021171391,-0.501725,-0.792573,-0.346541
1631021171401,-0.502823,-0.7920849999999999,-0.34465
1631021171410,-0.503616,-0.792512,-0.346541
1631021171420,-0.502884,-0.793183,-0.348066
1631021171430,-0.50325,-0.792939,-0.348005
1631021171439,-0.504226,-0.794037,-0.347334
1631021171449,-0.503738,-0.794647,-0.345931
1631021171458,-0.503616,-0.795806,-0.34507699999999997
1631021171468,-0.503128,-0.797392,-0.344589
1631021171478,-0.503799,-0.796172,-0.34324699999999997
1631021171487,-0.502945,-0.796965,-0.34233199999999997
1631021171497,-0.504287,-0.798124,-0.343369
1631021171506,-0.503494,-0.7993439999999999,-0.34263699999999997
1631021171516,-0.503311,-0.79971,-0.340258
1631021171526,-0.503311,-0.798612,-0.339221
1631021171535,-0.502457,-0.796111,-0.337147
1631021171545,-0.502884,-0.795074,-0.337269
1631021171554,-0.503494,-0.796233,-0.338123
1631021171564,-0.504897,-0.798368,-0.34141699999999997
1631021171574,-0.505263,-0.800442,-0.344711
1631021171583,-0.506117,-0.802272,-0.34709
1631021171593,-0.504958,-0.8011739999999999,-0.346053
1631021171602,-0.503738,-0.796904,-0.34324699999999997
1631021171612,-0.502335,-0.79605,-0.340868
1631021171622,-0.500932,-0.795135,-0.34050199999999997
1631021171631,-0.500322,-0.794159,-0.339709
1631021171641,-0.500139,-0.794159,-0.33977
1631021171650,-0.499102,-0.79239,-0.338428
1631021171660,-0.498187,-0.793793,-0.33916
1631021171670,-0.498919,-0.796172,-0.338977
1631021171679,-0.49898,-0.796721,-0.337879
1631021171689,-0.49885799999999997,-0.796416,-0.336781
1631021171698,-0.499285,-0.797514,-0.33427999999999997
1631021171708,-0.498919,-0.79849,-0.33458499999999997
1631021171718,-0.5002,-0.799466,-0.33458499999999997
1631021171727,-0.500139,-0.8002589999999999,-0.335622
1631021171737,-0.500871,-0.7999539999999999,-0.336049
1631021171746,-0.499834,-0.798612,-0.337452
1631021171756,-0.500566,-0.798917,-0.337452
1631021171766,-0.500627,-0.799222,-0.338855
1631021171775,-0.498614,-0.7993439999999999,-0.338428
1631021171785,-0.500017,-0.79666,-0.338062
1631021171794,-0.501115,-0.796599,-0.338794
1631021171804,-0.501298,-0.79605,-0.338794
1631021171814,-0.500688,-0.798124,-0.341356
1631021171823,-0.500505,-0.801052,-0.342515
1631021171833,-0.501664,-0.800137,-0.34233199999999997
1631021171842,-0.501481,-0.798856,-0.34038
1631021171852,-0.49946799999999997,-0.798246,-0.338794
1631021171862,-0.500932,-0.798673,-0.336781
1631021171871,-0.499712,-0.798795,-0.335195
1631021171881,-0.499834,-0.799283,-0.335744
1631021171890,-0.501725,-0.799527,-0.335317
1631021171900,-0.501237,-0.800991,-0.336171
1631021171910,-0.501603,-0.801235,-0.335744
1631021171919,-0.501603,-0.801418,-0.335622
1631021171929,-0.501847,-0.801906,-0.335866
1631021171938,-0.501908,-0.801296,-0.336476
1631021171948,-0.50264,-0.800991,-0.337574
1631021171958,-0.502762,-0.800747,-0.337086
1631021171967,-0.502518,-0.799588,-0.338489
1631021171977,-0.502152,-0.799527,-0.337818
1631021171986,-0.503921,-0.798917,-0.339099
1631021171996,-0.502396,-0.798612,-0.339648
1631021172006,-0.500566,-0.7987339999999999,-0.33977
1631021172015,-0.501237,-0.797209,-0.339648
1631021172025,-0.502152,-0.79727,-0.339831
1631021172034,-0.501603,-0.796904,-0.33916
1631021172044,-0.501481,-0.796172,-0.33916
1631021172054,-0.501237,-0.797148,-0.338733
1631021172063,-0.501847,-0.797453,-0.337025
1631021172073,-0.500688,-0.796477,-0.335805
1631021172082,-0.500566,-0.797941,-0.335744
1631021172092,-0.500627,-0.797941,-0.336537
1631021172102,-0.501481,-0.797514,-0.336293
1631021172111,-0.500932,-0.798246,-0.336903
1631021172121,-0.500627,-0.796782,-0.336842
1631021172130,-0.499712,-0.795745,-0.33611
1631021172140,-0.500139,-0.795684,-0.335683
1631021172150,-0.500261,-0.795318,-0.335378
1631021172159,-0.499956,-0.795928,-0.336354
1631021172169,-0.50142,-0.796904,-0.336537
1631021172178,-0.501725,-0.798551,-0.338062
1631021172188,-0.500993,-0.79788,-0.338184
1631021172198,-0.502091,-0.798856,-0.336781
1631021172207,-0.501298,-0.799161,-0.337086
1631021172217,-0.501359,-0.80093,-0.337818
1631021172226,-0.502152,-0.801601,-0.336049
1631021172236,-0.503067,-0.80154,-0.335256
1631021172246,-0.50203,-0.80032,-0.333792
1631021172255,-0.502213,-0.799588,-0.333609
1631021172265,-0.502274,-0.800076,-0.33458499999999997
1631021172274,-0.501054,-0.802028,-0.33427999999999997
1631021172284,-0.500932,-0.803248,-0.333426
1631021172294,-0.502579,-0.803431,-0.33397499999999997
1631021172303,-0.501664,-0.802028,-0.333243
1631021172313,-0.502152,-0.800198,-0.33244999999999997
1631021172322,-0.503738,-0.800625,-0.332572
1631021172332,-0.504653,-0.800808,-0.334036
1631021172342,-0.504775,-0.801845,-0.337147
1631021172351,-0.504104,-0.8048339999999999,-0.340441
1631021172361,-0.504043,-0.803675,-0.342088
1631021172370,-0.502335,-0.802272,-0.33977
1631021172380,-0.501115,-0.800686,-0.338123
1631021172390,-0.500383,-0.800686,-0.337086
1631021172399,-0.498919,-0.799771,-0.335805
1631021172409,-0.49733299999999997,-0.798246,-0.333731
1631021172418,-0.496235,-0.797148,-0.334036
1631021172428,-0.49654,-0.798063,-0.333182
1631021172438,-0.496906,-0.79971,-0.333792
1631021172447,-0.49593,-0.802211,-0.332633
1631021172457,-0.497089,-0.802882,-0.330742
1631021172466,-0.497211,-0.80154,-0.33000999999999997
1631021172476,-0.49855299999999997,-0.800686,-0.32939999999999997
1631021172486,-0.49898,-0.799832,-0.329949
1631021172495,-0.498736,-0.799527,-0.330803
1631021172505,-0.498431,-0.798612,-0.331779
1631021172514,-0.5002,-0.798917,-0.333853
1631021172524,-0.50081,-0.798063,-0.335256
1631021172534,-0.500505,-0.79727,-0.337391
1631021172543,-0.501359,-0.797453,-0.338062
1631021172553,-0.501542,-0.794403,-0.336598
1631021172562,-0.502945,-0.793488,-0.337452
1631021172572,-0.503067,-0.79361,-0.33672
1631021172582,-0.502701,-0.795989,-0.33855
1631021172591,-0.503311,-0.798795,-0.340868
1631021172601,-0.504165,-0.799588,-0.340441
1631021172610,-0.503189,-0.797148,-0.336537
1631021172620,-0.50447,-0.796904,-0.334158
1631021172630,-0.503677,-0.798185,-0.333182
1631021172639,-0.503494,-0.8002589999999999,-0.333182
1631021172649,-0.503616,-0.801235,-0.332999
1631021172658,-0.50447,-0.802943,-0.331962
1631021172668,-0.504104,-0.8033089999999999,-0.33183999999999997
1631021172678,-0.504287,-0.802272,-0.330254
1631021172687,-0.504653,-0.803248,-0.331474
1631021172697,-0.504592,-0.803736,-0.331047
1631021172706,-0.504592,-0.802882,-0.332267
1631021172716,-0.504714,-0.801967,-0.331657
1631021172726,-0.504714,-0.801235,-0.33244999999999997
1631021172735,-0.503616,-0.800808,-0.333304
1631021172745,-0.503799,-0.801113,-0.333182
1631021172754,-0.504104,-0.799893,-0.33427999999999997
1631021172764,-0.503372,-0.800137,-0.335622
1631021172774,-0.503372,-0.799832,-0.335622
1631021172783,-0.503311,-0.7990389999999999,-0.33611
1631021172793,-0.503128,-0.798856,-0.336476
1631021172802,-0.50264,-0.79788,-0.335256
1631021172812,-0.502091,-0.796965,-0.335805
1631021172822,-0.502579,-0.798246,-0.335134
1631021172831,-0.50203,-0.797514,-0.333914
1631021172841,-0.501969,-0.798185,-0.334463
1631021172850,-0.501908,-0.797941,-0.334707
1631021172860,-0.501298,-0.79788,-0.334036
1631021172870,-0.501908,-0.797758,-0.33427999999999997
1631021172879,-0.500932,-0.797209,-0.335439
1631021172889,-0.500871,-0.79666,-0.33488999999999997
1631021172898,-0.501603,-0.796294,-0.335256
1631021172908,-0.501542,-0.797636,-0.334463
1631021172918,-0.501298,-0.797514,-0.334524
1631021172927,-0.500383,-0.797026,-0.335134
1631021172937,-0.499956,-0.797941,-0.334951
1631021172946,-0.500444,-0.797636,-0.334646
1631021172956,-0.499895,-0.798307,-0.334341
1631021172966,-0.501359,-0.799832,-0.335317
1631021172975,-0.500383,-0.801052,-0.335073
1631021172985,-0.500078,-0.801357,-0.335195
1631021172994,-0.499834,-0.8008689999999999,-0.3355
1631021173004,-0.499407,-0.80154,-0.334951
1631021173014,-0.500017,-0.801052,-0.334463
1631021173023,-0.49946799999999997,-0.8011739999999999,-0.334158
1631021173033,-0.49763799999999997,-0.8026989999999999,-0.334463
1631021173042,-0.49733299999999997,-0.803126,-0.33244999999999997
1631021173052,-0.498004,-0.802882,-0.33305999999999997
1631021173062,-0.497455,-0.800686,-0.330254
1631021173071,-0.496967,-0.799222,-0.327509
1631021173081,-0.49855299999999997,-0.800503,-0.329278
1631021173090,-0.499834,-0.803736,-0.332267
1631021173100,-0.499834,-0.80703,-0.335073
1631021173110,-0.500566,-0.808616,-0.338672
1631021173119,-0.49885799999999997,-0.809592,-0.338062
1631021173129,-0.49977299999999997,-0.807823,-0.335256
1631021173138,-0.49794299999999997,-0.804041,-0.331901
1631021173148,-0.496967,-0.800625,-0.330254
1631021173158,-0.496479,-0.80032,-0.330742
1631021173167,-0.495381,-0.800076,-0.330254
1631021173177,-0.495381,-0.798368,-0.330132
1631021173186,-0.49532,-0.798002,-0.330071
1631021173196,-0.496174,-0.800198,-0.331962
1631021173206,-0.495747,-0.801845,-0.331047
1631021173215,-0.497455,-0.801601,-0.33000999999999997
1631021173225,-0.49702799999999997,-0.801418,-0.329827
1631021173234,-0.498309,-0.802882,-0.329278
1631021173244,-0.49898,-0.803492,-0.329949
1631021173254,-0.499224,-0.80398,-0.331108
1631021173263,-0.5002,-0.802943,-0.332389
1631021173273,-0.500383,-0.801967,-0.333182
1631021173282,-0.501481,-0.800991,-0.33427999999999997
1631021173292,-0.499956,-0.7999539999999999,-0.335256
1631021173302,-0.500078,-0.8005639999999999,-0.335012
1631021173311,-0.499041,-0.798063,-0.331413
1631021173321,-0.500871,-0.796904,-0.331596
1631021173330,-0.50081,-0.797697,-0.330742
1631021173340,-0.500566,-0.799832,-0.332633
1631021173350,-0.500932,-0.8036139999999999,-0.33488999999999997
1631021173359,-0.499834,-0.804285,-0.333426
1631021173369,-0.500688,-0.803675,-0.330864
1631021173378,-0.50081,-0.802882,-0.329583
1631021173388,-0.500139,-0.804163,-0.32939999999999997
1631021173398,-0.499346,-0.8036139999999999,-0.328119
1631021173407,-0.49794299999999997,-0.804468,-0.328119
1631021173417,-0.498736,-0.805017,-0.328668
1631021173426,-0.497821,-0.8051389999999999,-0.32878999999999997
1631021173436,-0.497882,-0.805383,-0.329217
1631021173446,-0.498492,-0.8066639999999999,-0.328973
1631021173455,-0.49837,-0.8066639999999999,-0.32848499999999997
1631021173465,-0.498431,-0.806115,-0.328302
1631021173474,-0.498004,-0.80581,-0.328424
1631021173484,-0.497821,-0.806542,-0.327692
1631021173494,-0.496662,-0.8066639999999999,-0.326777
1631021173503,-0.494649,-0.8081889999999999,-0.32452
1631021173513,-0.495564,-0.80642,-0.322751
1631021173522,-0.4941,-0.8051389999999999,-0.323361
1631021173532,-0.495259,-0.807762,-0.33183999999999997
1631021173542,-0.494405,-0.80764,-0.330681
1631021173551,-0.49532,-0.804895,-0.330132
1631021173561,-0.494405,-0.8045289999999999,-0.32878999999999997
1631021173570,-0.493429,-0.8048339999999999,-0.328912
1631021173580,-0.494832,-0.804651,-0.327143
1631021173590,-0.493612,-0.80581,-0.32513
1631021173599,-0.4941,-0.806786,-0.324459
1631021173609,-0.493673,-0.807945,-0.32256799999999997
1631021173618,-0.493978,-0.806786,-0.321836
1631021173628,-0.494161,-0.807945,-0.321409
1631021173638,-0.494283,-0.806237,-0.32134799999999997
1631021173647,-0.493978,-0.8057489999999999,-0.322324
1631021173657,-0.495625,-0.803858,-0.323117
1631021173666,-0.496479,-0.801845,-0.32269
1631021173676,-0.49702799999999997,-0.799832,-0.32391
1631021173686,-0.497882,-0.798185,-0.324947
1631021173695,-0.49794299999999997,-0.798185,-0.324398
1631021173705,-0.49898,-0.800015,-0.323178
1631021173714,-0.499346,-0.804712,-0.32269
1631021173724,-0.500383,-0.806908,-0.32208
1631021173734,-0.5002,-0.805627,-0.323788
1631021173743,-0.499651,-0.80337,-0.322385
1631021173753,-0.498919,-0.7987339999999999,-0.318969
1631021173762,-0.498614,-0.795989,-0.320067
1631021173772,-0.496235,-0.799832,-0.321592
1631021173782,-0.497821,-0.8030039999999999,-0.32574
1631021173791,-0.498187,-0.80459,-0.324825
1631021173801,-0.499346,-0.804895,-0.323971
1631021173810,-0.500932,-0.805993,-0.32226299999999997
1631021173820,-0.502152,-0.8033089999999999,-0.321409
1631021173830,-0.50264,-0.801113,-0.319274
1631021173839,-0.503982,-0.798856,-0.31890799999999997
1631021173849,-0.507642,-0.798307,-0.32043299999999997
1631021173858,-0.509716,-0.800198,-0.321226
1631021173868,-0.510387,-0.801235,-0.320494
1631021173878,-0.513315,-0.80581,-0.321714
1631021173887,-0.512522,-0.809043,-0.320311
1631021173897,-0.513132,-0.809836,-0.317017
1631021173906,-0.513315,-0.81069,-0.312564
1631021173916,-0.512827,-0.811788,-0.30988
1631021173926,-0.513193,-0.8121539999999999,-0.306708
1631021173935,-0.514169,-0.8100189999999999,-0.304512
1631021173945,-0.5145959999999999,-0.808677,-0.302438
1631021173954,-0.515572,-0.8066639999999999,-0.300669
1631021173964,-0.515389,-0.8069689999999999,-0.300547
1631021173974,-0.514962,-0.808311,-0.299266
1631021173983,-0.515145,-0.807335,-0.299388
1631021173993,-0.51423,-0.806847,-0.29700899999999997
1631021174002,-0.514108,-0.805322,-0.296155
1631021174012,-0.513498,-0.8039189999999999,-0.295911
1631021174022,-0.513437,-0.804468,-0.295423
1631021174031,-0.511241,-0.8042239999999999,-0.296521
1631021174041,-0.511424,-0.8042239999999999,-0.298168
1631021174050,-0.510509,-0.8051389999999999,-0.298656
1631021174060,-0.509228,-0.805505,-0.299876
1631021174070,-0.508374,-0.807091,-0.298656
1631021174079,-0.5063,-0.805505,-0.29646
1631021174089,-0.507215,-0.806115,-0.296216
1631021174098,-0.50691,-0.80825,-0.294996
1631021174108,-0.507032,-0.809836,-0.292861
1631021174118,-0.507581,-0.818498,-0.290238
1631021174127,-0.501176,-0.825025,-0.288286
1631021174137,-0.493856,-0.805993,-0.288652
1631021174146,-0.49977299999999997,-0.80642,-0.28243
1631021174156,-0.489952,-0.808311,-0.269986
1631021174166,-0.48257099999999997,-0.8133739999999999,-0.26474
1631021174175,-0.48000899999999996,-0.820938,-0.25790799999999997
1631021174185,-0.479521,-0.824049,-0.247416
1631021174194,-0.479826,-0.8239879999999999,-0.242475
1631021174204,-0.480558,-0.819962,-0.23893699999999998
1631021174214,-0.484523,-0.81984,-0.240218
1631021174223,-0.487939,-0.827831,-0.24095
1631021174233,-0.489464,-0.836249,-0.242414
1631021174242,-0.490318,-0.841678,-0.24046199999999998
1631021174252,-0.494649,-0.846924,-0.23741199999999998
1631021174262,-0.4941,-0.850096,-0.231495
1631021174271,-0.493185,-0.851804,-0.22691999999999998
1631021174281,-0.493307,-0.852231,-0.222101
1631021174290,-0.491904,-0.8538169999999999,-0.217465
1631021174300,-0.49355099999999996,-0.853085,-0.2135
1631021174310,-0.493063,-0.8529019999999999,-0.20923
1631021174319,-0.496479,-0.849913,-0.203862
1631021174329,-0.499224,-0.84973,-0.198433
1631021174338,-0.501237,-0.8547319999999999,-0.185806
1631021174348,-0.501908,-0.85827,-0.175436
1631021174358,-0.502152,-0.860344,-0.166774
1631021174367,-0.503311,-0.862113,-0.161162
1631021174377,-0.504104,-0.865529,-0.159698
1631021174386,-0.502457,-0.864126,-0.151341
1631021174396,-0.502091,-0.861259,-0.147925
1631021174406,-0.501908,-0.863943,-0.146461
1631021174415,-0.501298,-0.865956,-0.145363
1631021174425,-0.500383,-0.866505,-0.14701
1631021174434,-0.502762,-0.868213,-0.14926699999999998
1631021174444,-0.503677,-0.870287,-0.149694
1631021174454,-0.502091,-0.871995,-0.147925
1631021174463,-0.500444,-0.870653,-0.146095
1631021174473,-0.498614,-0.869616,-0.144387
1631021174482,-0.496235,-0.869128,-0.142557
1631021174492,-0.493002,-0.869128,-0.13969
1631021174502,-0.490684,-0.868518,-0.137616
1631021174511,-0.488549,-0.866749,-0.135969
1631021174521,-0.485194,-0.8662,-0.132797
1631021174530,-0.482022,-0.866017,-0.129808
1631021174540,-0.480131,-0.864858,-0.12627
1631021174550,-0.477203,-0.864004,-0.12322
1631021174559,-0.47695899999999997,-0.8638819999999999,-0.12193899999999999
1631021174569,-0.477386,-0.8635769999999999,-0.122
1631021174578,-0.47695899999999997,-0.863394,-0.12078
1631021174588,-0.47641,-0.86498,-0.12078
1631021174598,-0.475922,-0.866139,-0.117425
1631021174607,-0.476532,-0.86742,-0.116754
1631021174617,-0.476166,-0.867908,-0.117364
1631021174626,-0.476593,-0.866871,-0.116876
1631021174636,-0.479338,-0.868396,-0.118279
1631021174646,-0.48068,-0.868884,-0.119804
1631021174655,-0.480375,-0.870714,-0.121512
1631021174665,-0.481107,-0.8738859999999999,-0.124684
1631021174674,-0.48556,-0.877485,-0.12749
1631021174684,-0.485499,-0.87962,-0.130296
1631021174694,-0.486109,-0.88023,-0.131089
1631021174703,-0.48556,-0.8805959999999999,-0.12956399999999998
1631021174713,-0.486353,-0.883158,-0.128588
1631021174722,-0.487207,-0.88389,-0.129808
1631021174732,-0.483669,-0.882792,-0.128466
1631021174742,-0.482388,-0.8799859999999999,-0.127307
1631021174751,-0.482754,-0.87901,-0.13017399999999998
1631021174761,-0.481351,-0.876692,-0.132553
1631021174770,-0.47848399999999996,-0.873398,-0.131272
1631021174780,-0.47573899999999997,-0.869738,-0.132736
1631021174790,-0.473726,-0.868091,-0.133468
1631021174799,-0.472567,-0.868701,-0.131455
1631021174809,-0.471225,-0.870653,-0.131394
1631021174818,-0.469639,-0.871873,-0.131516
1631021174828,-0.467016,-0.87352,-0.130235
1631021174838,-0.46646699999999996,-0.874252,-0.1281
1631021174847,-0.464393,-0.8723609999999999,-0.1281
1631021174857,-0.464149,-0.873825,-0.12627
1631021174866,-0.463356,-0.873703,-0.123098
1631021174876,-0.46372199999999997,-0.8708359999999999,-0.12444
1631021174886,-0.46402699999999997,-0.868579,-0.12486699999999999
1631021174895,-0.46463699999999997,-0.867664,-0.125416
1631021174905,-0.466284,-0.871385,-0.129381
1631021174914,-0.467199,-0.8748009999999999,-0.12834399999999999
1631021174924,-0.469151,-0.8763259999999999,-0.13115
1631021174934,-0.469395,-0.877363,-0.133102
1631021174943,-0.471286,-0.87779,-0.134017
1631021174953,-0.47146899999999997,-0.879803,-0.13359
1631021174962,-0.471286,-0.879925,-0.128893
1631021174972,-0.471347,-0.8781559999999999,-0.122915
1631021174982,-0.47116399999999997,-0.87779,-0.119255
1631021174991,-0.471713,-0.8805959999999999,-0.118523
1631021175001,-0.47275,-0.882182,-0.120841
1631021175010,-0.47360399999999997,-0.882365,-0.122793
1631021175020,-0.474336,-0.881694,-0.12315899999999999
1631021175030,-0.474397,-0.881877,-0.11956
1631021175039,-0.471286,-0.882792,-0.118645
1631021175049,-0.470188,-0.8842559999999999,-0.11870599999999999
1631021175058,-0.469639,-0.883768,-0.119072
1631021175068,-0.46909,-0.879864,-0.119133
1631021175078,-0.467809,-0.878034,-0.11669299999999999
1631021175087,-0.464393,-0.87596,-0.114314
1631021175097,-0.462563,-0.8748009999999999,-0.11468
1631021175106,-0.46280699999999997,-0.874008,-0.117669
1631021175116,-0.4636,-0.875533,-0.11870599999999999
1631021175126,-0.46543,-0.879132,-0.118584
1631021175135,-0.467016,-0.884805,-0.116571
1631021175145,-0.466955,-0.891942,-0.112179
1631021175154,-0.467321,-0.899506,-0.11022699999999999
1631021175164,-0.464515,-0.906216,-0.107787
1631021175174,-0.46189199999999997,-0.9107299999999999,-0.102175
1631021175183,-0.460428,-0.914146,-0.09943
1631021175193,-0.45688999999999996,-0.916037,-0.098088
1631021175202,-0.45475499999999996,-0.9140849999999999,-0.098576
1631021175212,-0.451522,-0.910364,-0.100284
1631021175222,-0.44865499999999997,-0.905118,-0.100894
1631021175231,-0.444812,-0.8997499999999999,-0.101504
1631021175241,-0.440542,-0.895541,-0.103212
1631021175250,-0.435235,-0.893406,-0.105591
1631021175260,-0.431453,-0.892918,-0.108641
1631021175270,-0.425719,-0.894077,-0.109434
1631021175279,-0.41968,-0.894626,-0.110288
1631021175289,-0.415532,-0.894504,-0.111447
1631021175298,-0.41138399999999997,-0.8957849999999999,-0.113826
1631021175308,-0.40699199999999996,-0.895602,-0.115534
1631021175318,-0.40382,-0.896822,-0.116754
1631021175327,-0.39997699999999997,-0.8991399999999999,-0.117181
1631021175337,-0.397964,-0.898469,-0.119743
1631021175346,-0.396744,-0.899201,-0.122061
1631021175356,-0.395463,-0.9003599999999999,-0.123586
1631021175366,-0.393633,-0.902251,-0.12364699999999999
1631021175375,-0.394731,-0.905484,-0.121817
1631021175385,-0.393938,-0.9055449999999999,-0.12254899999999999
1631021175394,-0.39497499999999997,-0.903593,-0.119743
1631021175404,-0.395707,-0.902739,-0.1159
1631021175414,-0.39955,-0.905118,-0.113887
1631021175423,-0.399855,-0.908229,-0.113582
1631021175433,-0.401075,-0.912499,-0.117486
1631021175442,-0.401929,-0.9176839999999999,-0.11931599999999999
1631021175452,-0.40180699999999997,-0.919148,-0.116022
1631021175462,-0.40333199999999997,-0.917806,-0.111386
1631021175471,-0.40443,-0.916586,-0.107177
1631021175481,-0.405955,-0.916098,-0.103395
1631021175490,-0.407236,-0.916098,-0.100711
1631021175500,-0.409188,-0.91439,-0.100894
1631021175510,-0.411201,-0.912926,-0.100101
1631021175519,-0.41260399999999997,-0.9119499999999999,-0.100467
1631021175529,-0.414251,-0.909937,-0.10065
1631021175538,-0.416325,-0.909022,-0.101382
1631021175548,-0.41778899999999997,-0.9095099999999999,-0.101016
1631021175558,-0.41785,-0.909022,-0.099979
1631021175567,-0.41846,-0.9082899999999999,-0.100101
1631021175577,-0.418643,-0.9073749999999999,-0.10083299999999999
1631021175586,-0.419375,-0.905789,-0.102968
1631021175596,-0.421144,-0.903776,-0.104493
1631021175606,-0.421876,-0.901946,-0.105652
1631021175615,-0.423523,-0.9006649999999999,-0.106018
1631021175625,-0.422303,-0.900116,-0.108031
1631021175634,-0.420656,-0.899018,-0.107177
1631021175644,-0.422425,-0.8954799999999999,-0.10553
1631021175654,-0.422547,-0.895846,-0.10675
1631021175663,-0.423889,-0.898164,-0.10992199999999999
1631021175673,-0.423462,-0.905484,-0.115046
1631021175682,-0.423462,-0.9082899999999999,-0.117974
1631021175692,-0.42431599999999997,-0.908717,-0.11956
1631021175702,-0.423218,-0.910242,-0.119438
1631021175711,-0.4209,-0.911157,-0.119255
1631021175721,-0.420717,-0.913658,-0.118157
1631021175730,-0.41846,-0.914756,-0.117059
1631021175740,-0.41785,-0.915427,-0.11809599999999999
1631021175750,-0.414983,-0.915366,-0.11834
1631021175759,-0.412665,-0.915183,-0.11834
1631021175769,-0.409615,-0.914512,-0.11870599999999999
1631021175778,-0.408395,-0.913536,-0.117974
1631021175788,-0.405528,-0.912072,-0.11651
1631021175798,-0.403149,-0.909022,-0.113948
1631021175807,-0.40119699999999997,-0.9061549999999999,-0.11041
1631021175817,-0.400831,-0.905301,-0.10797
1631021175826,-0.400221,-0.905362,-0.107177
1631021175836,-0.398208,-0.902861,-0.105347
1631021175846,-0.397415,-0.900299,-0.103822
1631021175855,-0.396866,-0.899201,-0.105408
1631021175865,-0.399428,-0.899079,-0.10760399999999999
1631021175874,-0.399855,-0.9003599999999999,-0.103029
1631021175884,-0.400953,-0.904386,-0.095038
1631021175894,-0.401624,-0.907558,-0.08881599999999999
1631021175903,-0.403149,-0.906826,-0.089914
1631021175913,-0.404613,-0.906094,-0.091256
1631021175922,-0.407663,-0.906033,-0.09272
1631021175932,-0.409432,-0.909022,-0.095099
1631021175942,-0.409859,-0.909693,-0.098088
1631021175951,-0.41321399999999997,-0.910669,-0.097173
1631021175961,-0.41382399999999997,-0.912377,-0.097722
1631021175970,-0.414678,-0.9137799999999999,-0.097234
1631021175980,-0.416325,-0.915427,-0.09698999999999999
1631021175990,-0.418216,-0.915549,-0.096258
1631021175999,-0.419192,-0.914695,-0.097356
1631021176009,-0.41961899999999996,-0.914634,-0.098088
1631021176018,-0.41839899999999997,-0.916647,-0.099552
1631021176028,-0.41785,-0.916342,-0.100406
1631021176038,-0.417423,-0.915427,-0.101504
1631021176047,-0.41724,-0.914756,-0.103212
1631021176057,-0.415593,-0.91439,-0.104798
1631021176066,-0.414617,-0.913109,-0.10498099999999999
1631021176076,-0.41419,-0.911096,-0.105469
1631021176086,-0.413336,-0.910669,-0.10431
1631021176095,-0.411018,-0.910303,-0.104127
1631021176105,-0.408273,-0.9085949999999999,-0.10668899999999999
1631021176114,-0.403393,-0.905606,-0.108824
1631021176124,-0.39772,-0.905362,-0.11102
1631021176134,-0.398574,-0.909083,-0.112667
1631021176143,-0.396988,-0.911889,-0.113521
1631021176153,-0.39588999999999996,-0.911706,-0.10961699999999999
1631021176162,-0.397598,-0.915,-0.108885
1631021176172,-0.398879,-0.919758,-0.105347
1631021176182,-0.39967199999999997,-0.922686,-0.10431
1631021176191,-0.397659,-0.923418,-0.10187
1631021176201,-0.396927,-0.927017,-0.102297
1631021176210,-0.395951,-0.929152,-0.1037
1631021176220,-0.393877,-0.928542,-0.101992
1631021176230,-0.393816,-0.925126,-0.101565
1631021176239,-0.392291,-0.923967,-0.100284
1631021176249,-0.390339,-0.922198,-0.09881999999999999
1631021176258,-0.38978999999999997,-0.9204289999999999,-0.096746
1631021176268,-0.388936,-0.917196,-0.094428
1631021176278,-0.387533,-0.913048,-0.09394
1631021176287,-0.387838,-0.909693,-0.094855
1631021176297,-0.38856999999999997,-0.9076799999999999,-0.096136
1631021176306,-0.38856999999999997,-0.906216,-0.09589199999999999
1631021176316,-0.38826499999999997,-0.905728,-0.094794
1631021176326,-0.389363,-0.906338,-0.092415
1631021176335,-0.39131499999999997,-0.9055449999999999,-0.091561
1631021176345,-0.39253499999999997,-0.906094,-0.091012
1631021176354,-0.395219,-0.908412,-0.09174399999999999
1631021176364,-0.398879,-0.911584,-0.09333
1631021176374,-0.399611,-0.914512,-0.093208
1631021176383,-0.400343,-0.915549,-0.093452
1631021176393,-0.40199,-0.916098,-0.093513
1631021176402,-0.403698,-0.916586,-0.09333
1631021176412,-0.40565,-0.917196,-0.09211
1631021176422,-0.406626,-0.916952,-0.092964
1631021176431,-0.40821199999999996,-0.916891,-0.094489
1631021176441,-0.40748,-0.9189039999999999,-0.095343
1631021176450,-0.406626,-0.9185989999999999,-0.099186
1631021176460,-0.406748,-0.917135,-0.09820999999999999
1631021176470,-0.40607699999999997,-0.916281,-0.098149
1631021176479,-0.40382,-0.9137799999999999,-0.099125
1631021176489,-0.402661,-0.912133,-0.099796
1631021176498,-0.402478,-0.9125599999999999,-0.100162
1631021176508,-0.40089199999999997,-0.912316,-0.10113799999999999
1631021176518,-0.39967199999999997,-0.912743,-0.10315099999999999
1631021176527,-0.398452,-0.914207,-0.105896
1631021176537,-0.397171,-0.916159,-0.10614
1631021176546,-0.396927,-0.915122,-0.110044
1631021176556,-0.395524,-0.914573,-0.110715
1631021176566,-0.39405999999999997,-0.915244,-0.111508
1631021176575,-0.392596,-0.916708,-0.113338
1631021176585,-0.39100999999999997,-0.91744,-0.112972
1631021176594,-0.389729,-0.91927,-0.11022699999999999
1631021176604,-0.386923,-0.922076,-0.109129
1631021176614,-0.385825,-0.923906,-0.108885
1631021176623,-0.383995,-0.925736,-0.10919
1631021176633,-0.383751,-0.924455,-0.10729899999999999
1631021176642,-0.381067,-0.924211,-0.107726
1631021176652,-0.380091,-0.922625,-0.106506
1631021176662,-0.37929799999999997,-0.9222589999999999,-0.106506
1631021176671,-0.378139,-0.920856,-0.10376099999999999
1631021176681,-0.377407,-0.9189039999999999,-0.102358
1631021176690,-0.37759,-0.918416,-0.100162
1631021176700,-0.378017,-0.917196,-0.099674
1631021176710,-0.378139,-0.918477,-0.096136
1631021176719,-0.378566,-0.91744,-0.09558699999999999
1631021176729,-0.378871,-0.91744,-0.093452
1631021176738,-0.380274,-0.916769,-0.091988
1631021176748,-0.38234799999999997,-0.918477,-0.089914
1631021176758,-0.38387299999999996,-0.918172,-0.088999
1631021176767,-0.38552,-0.919087,-0.08820599999999999
1631021176777,-0.387045,-0.9195139999999999,-0.08784
1631021176786,-0.38948499999999997,-0.919392,-0.086315
1631021176796,-0.390156,-0.919026,-0.086376
1631021176806,-0.391193,-0.918965,-0.085827
1631021176815,-0.393328,-0.9189039999999999,-0.0854
1631021176825,-0.393572,-0.919026,-0.084363
1631021176834,-0.394609,-0.919941,-0.084851
1631021176844,-0.39527999999999996,-0.920246,-0.083814
1631021176854,-0.396012,-0.9204289999999999,-0.084546
1631021176863,-0.397476,-0.9204289999999999,-0.084546
1631021176873,-0.396927,-0.920002,-0.083326
1631021176882,-0.396866,-0.9189039999999999,-0.083936
1631021176892,-0.396256,-0.919697,-0.083631
1631021176902,-0.396256,-0.920063,-0.084546
1631021176911,-0.396317,-0.919697,-0.08418
1631021176921,-0.395158,-0.918843,-0.083204
1631021176930,-0.394731,-0.918721,-0.083021
1631021176940,-0.395646,-0.920856,-0.083448
1631021176950,-0.3965,-0.92232,-0.085461
1631021176959,-0.395707,-0.926346,-0.088999
1631021176969,-0.39436499999999997,-0.929518,-0.09211
1631021176978,-0.39253499999999997,-0.930372,-0.09272
1631021176988,-0.389546,-0.9295789999999999,-0.090402
1631021176998,-0.386923,-0.929945,-0.087535
1631021177007,-0.384788,-0.931043,-0.087352
1631021177017,-0.383019,-0.931348,-0.085339
1631021177026,-0.37881,-0.931653,-0.084058
1631021177036,-0.37637,-0.930982,-0.085034
1631021177046,-0.374662,-0.930921,-0.085644
1631021177055,-0.374723,-0.930372,-0.086132
1631021177065,-0.373259,-0.927322,-0.083814
1631021177074,-0.372466,-0.9250039999999999,-0.084424
1631021177084,-0.373686,-0.9243939999999999,-0.084424
1631021177094,-0.371917,-0.9250039999999999,-0.083204
1631021177103,-0.370819,-0.925858,-0.082716
1631021177113,-0.37088,-0.925126,-0.082777
1631021177122,-0.370575,-0.9243939999999999,-0.082838
1631021177132,-0.37124599999999996,-0.923845,-0.083631
1631021177142,-0.371612,-0.923662,-0.08418
1631021177151,-0.372222,-0.923418,-0.085339
1631021177161,-0.373198,-0.923601,-0.08619299999999999
1631021177170,-0.374052,-0.924211,-0.0854
1631021177180,-0.377712,-0.92171,-0.085034
1631021177190,-0.378444,-0.922442,-0.08558299999999999
1631021177199,-0.378932,-0.922381,-0.086376
1631021177209,-0.38003,-0.923662,-0.089182
1631021177218,-0.381189,-0.924577,-0.091805
1631021177228,-0.381067,-0.923906,-0.09143899999999999
1631021177238,-0.381799,-0.92171,-0.089792
1631021177247,-0.382531,-0.920795,-0.090158
1631021177257,-0.382104,-0.9195139999999999,-0.090341
1631021177266,-0.382165,-0.918355,-0.091683
1631021177276,-0.38247,-0.919148,-0.091317
1631021177286,-0.38186,-0.919392,-0.08967
1631021177295,-0.38186,-0.9207339999999999,-0.089548
1631021177305,-0.382104,-0.92049,-0.091866
1631021177314,-0.38295799999999997,-0.9237839999999999,-0.091622
1631021177324,-0.382287,-0.924882,-0.090707
1631021177334,-0.382714,-0.925187,-0.090463
1631021177343,-0.382287,-0.926163,-0.08881599999999999
1631021177353,-0.381677,-0.926102,-0.08912099999999999
1631021177362,-0.38112799999999997,-0.9250039999999999,-0.089182
1631021177372,-0.381677,-0.9253089999999999,-0.088877
1631021177382,-0.380396,-0.92476,-0.08881599999999999
1631021177391,-0.38003,-0.925248,-0.089365
1631021177401,-0.378566,-0.9265289999999999,-0.087108
1631021177410,-0.378139,-0.927017,-0.08588799999999999
1631021177420,-0.377346,-0.924821,-0.08064199999999999
1631021177430,-0.376309,-0.92232,-0.076555
1631021177439,-0.373686,-0.922381,-0.07564
1631021177449,-0.372954,-0.9237839999999999,-0.07679899999999999
1631021177458,-0.371978,-0.924882,-0.074725
1631021177468,-0.371063,-0.926468,-0.07564
1631021177478,-0.37094099999999997,-0.929213,-0.077714
1631021177487,-0.37088,-0.9298839999999999,-0.079056
1631021177497,-0.372039,-0.93025,-0.080459
1631021177506,-0.373808,-0.929823,-0.07942199999999999
1631021177516,-0.375394,-0.928847,-0.080398
1631021177526,-0.376492,-0.926468,-0.081252
1631021177535,-0.37838299999999997,-0.924943,-0.083509
1631021177545,-0.379481,-0.924455,-0.083936
1631021177554,-0.380152,-0.9228689999999999,-0.084546
1631021177564,-0.380884,-0.9228689999999999,-0.084546
1631021177574,-0.382226,-0.924028,-0.083631
1631021177583,-0.38295799999999997,-0.923357,-0.085949
1631021177593,-0.383385,-0.9243939999999999,-0.086681
1631021177602,-0.384666,-0.924577,-0.087779
1631021177612,-0.384788,-0.92354,-0.086254
1631021177622,-0.386252,-0.924455,-0.086376
1631021177631,-0.387228,-0.924882,-0.085705
1631021177641,-0.386496,-0.92537,-0.085827
1631021177650,-0.387167,-0.927261,-0.083997
1631021177660,-0.386191,-0.927383,-0.081923
1631021177670,-0.385459,-0.926651,-0.080093
1631021177679,-0.385581,-0.926407,-0.079971
1631021177689,-0.384788,-0.924882,-0.078202
1631021177698,-0.385764,-0.922381,-0.077897
1631021177708,-0.387167,-0.925492,-0.079056
1631021177718,-0.386801,-0.9265289999999999,-0.08064199999999999
1631021177727,-0.387045,-0.927871,-0.083509
1631021177737,-0.386496,-0.929518,-0.086925
1631021177746,-0.385093,-0.929518,-0.085522
1631021177756,-0.383812,-0.926102,-0.084058
1631021177766,-0.383019,-0.9246989999999999,-0.081923
1631021177775,-0.38173799999999997,-0.9225639999999999,-0.081679
1631021177785,-0.382409,-0.921527,-0.081069
1631021177794,-0.381189,-0.919026,-0.080093
1631021177804,-0.380579,-0.919392,-0.080947
1631021177814,-0.380152,-0.918843,-0.08113
1631021177823,-0.37868799999999997,-0.919453,-0.080764
1631021177833,-0.379176,-0.919758,-0.081557
1631021177842,-0.37899299999999997,-0.920856,-0.08064199999999999
1631021177852,-0.38051799999999997,-0.922076,-0.08003199999999999
1631021177862,-0.381006,-0.9228689999999999,-0.07942199999999999
1631021177871,-0.38125,-0.924211,-0.080703
1631021177881,-0.38247,-0.925553,-0.081374
1631021177890,-0.383629,-0.925553,-0.082167
1631021177900,-0.38356799999999996,-0.92598,-0.084241
1631021177910,-0.384483,-0.925431,-0.084729
1631021177919,-0.384727,-0.926773,-0.085827
1631021177929,-0.3843,-0.925187,-0.088328
1631021177938,-0.384361,-0.922381,-0.088694
1631021177948,-0.385032,-0.920978,-0.08784
1631021177958,-0.385032,-0.91866,-0.089975
1631021177967,-0.385398,-0.919026,-0.092232
1631021177977,-0.384361,-0.9207339999999999,-0.09436699999999999
1631021177986,-0.384483,-0.921832,-0.09467199999999999
1631021177996,-0.38356799999999996,-0.9213439999999999,-0.093086
1631021178006,-0.384056,-0.9201239999999999,-0.091378
1631021178015,-0.383507,-0.921466,-0.08967
1631021178025,-0.382409,-0.922991,-0.088389
1631021178034,-0.38295799999999997,-0.924516,-0.087413
1631021178044,-0.381799,-0.92476,-0.086254
1631021178054,-0.381494,-0.92537,-0.086559
1631021178063,-0.381311,-0.926407,-0.08588799999999999
1631021178073,-0.381372,-0.926895,-0.083692
1631021178082,-0.381006,-0.928115,-0.082716
1631021178092,-0.380457,-0.929091,-0.082411
1631021178102,-0.380091,-0.928481,-0.080764
1631021178111,-0.37929799999999997,-0.926956,-0.081008
1631021178121,-0.378444,-0.926346,-0.081069
1631021178130,-0.378871,-0.926651,-0.081008
1631021178140,-0.378017,-0.927932,-0.081618
1631021178150,-0.377834,-0.927261,-0.08204499999999999
1631021178159,-0.37698,-0.926163,-0.082167
1631021178169,-0.377956,-0.9256139999999999,-0.082716
1631021178178,-0.377285,-0.924577,-0.083143
1631021178188,-0.377529,-0.923296,-0.083814
1631021178198,-0.378261,-0.9237839999999999,-0.083326
1631021178207,-0.378566,-0.923662,-0.084668
1631021178217,-0.379237,-0.9237839999999999,-0.083509
1631021178226,-0.380152,-0.924638,-0.084058
1631021178236,-0.38021299999999997,-0.9240889999999999,-0.083509
1631021178246,-0.380335,-0.923662,-0.083387
1631021178255,-0.380579,-0.9243939999999999,-0.08356999999999999
1631021178265,-0.38143299999999997,-0.9231739999999999,-0.084546
1631021178274,-0.382104,-0.923662,-0.084363
1631021178284,-0.382714,-0.92354,-0.084302
1631021178294,-0.383751,-0.921466,-0.085217
1631021178303,-0.383995,-0.920002,-0.08527799999999999
1631021178313,-0.385276,-0.920063,-0.086071
1631021178322,-0.385154,-0.920673,-0.085156
1631021178332,-0.385764,-0.9204289999999999,-0.086437
1631021178342,-0.386435,-0.91988,-0.087108
1631021178351,-0.387045,-0.920856,-0.086559
1631021178361,-0.388204,-0.921466,-0.08601
1631021178370,-0.387533,-0.922015,-0.085766
1631021178380,-0.387594,-0.922076,-0.084668
1631021178390,-0.388204,-0.923357,-0.08497299999999999
1631021178399,-0.38826499999999997,-0.9237839999999999,-0.084607
1631021178409,-0.387899,-0.924516,-0.084058
1631021178418,-0.387838,-0.923906,-0.083692
1631021178428,-0.386557,-0.924821,-0.084546
1631021178438,-0.384056,-0.924272,-0.083509
1631021178447,-0.384788,-0.923052,-0.082106
1631021178457,-0.384178,-0.92293,-0.08174
1631021178466,-0.384239,-0.921161,-0.07942199999999999
1631021178476,-0.384544,-0.920246,-0.078568
1631021178486,-0.385642,-0.920856,-0.0793
1631021178495,-0.386496,-0.92415,-0.081557
1631021178505,-0.387411,-0.9262239999999999,-0.08527799999999999
1631021178514,-0.386984,-0.930433,-0.088267
1631021178524,-0.38552,-0.931836,-0.086986
1631021178534,-0.384422,-0.929823,-0.083936
1631021178543,-0.38326299999999996,-0.926468,-0.081862
1631021178553,-0.38247,-0.924333,-0.082289
1631021178562,-0.382287,-0.922686,-0.082716
1631021178572,-0.38051799999999997,-0.920917,-0.085949
1631021178582,-0.38125,-0.919148,-0.087047
1631021178591,-0.379054,-0.916647,-0.087413
1631021178601,-0.379786,-0.914878,-0.08967
1631021178610,-0.38021299999999997,-0.915549,-0.090951
1631021178620,-0.38064,-0.915976,-0.090402
1631021178630,-0.380701,-0.91561,-0.090707
1631021178639,-0.380701,-0.917318,-0.089853
1631021178649,-0.382409,-0.91988,-0.088084
1631021178658,-0.382897,-0.922625,-0.088145
1631021178668,-0.38308,-0.923662,-0.08790099999999999
1631021178678,-0.383812,-0.924577,-0.08723
1631021178687,-0.383507,-0.926407,-0.08723
1631021178697,-0.383934,-0.926163,-0.086132
1631021178706,-0.3843,-0.926773,-0.08649799999999999
1631021178716,-0.384056,-0.9250039999999999,-0.0854
1631021178726,-0.384849,-0.9225639999999999,-0.08479
1631021178735,-0.385154,-0.923296,-0.085949
1631021178745,-0.384117,-0.922747,-0.086559
1631021178754,-0.384117,-0.924028,-0.08906
1631021178764,-0.38369,-0.9243939999999999,-0.091073
1631021178774,-0.38369,-0.923296,-0.090158
1631021178783,-0.38369,-0.920063,-0.08820599999999999
1631021178793,-0.38247,-0.919758,-0.087596
1631021178802,-0.381311,-0.9211,-0.086925
1631021178812,-0.381799,-0.922747,-0.087596
1631021178822,-0.38051799999999997,-0.922686,-0.087779
1631021178831,-0.381311,-0.923601,-0.087657
1631021178841,-0.381006,-0.925248,-0.08601
1631021178850,-0.381555,-0.925675,-0.085766
1631021178860,-0.381982,-0.927261,-0.082838
1631021178870,-0.380762,-0.9274439999999999,-0.08113
1631021178879,-0.381921,-0.927017,-0.081252
1631021178889,-0.38204299999999997,-0.9274439999999999,-0.079971
1631021178898,-0.380945,-0.927322,-0.080764
1631021178908,-0.380335,-0.926346,-0.079971
1631021178918,-0.38143299999999997,-0.926041,-0.081069
1631021178927,-0.381677,-0.925736,-0.080764
1631021178937,-0.381189,-0.925858,-0.082411
1631021178946,-0.382104,-0.924821,-0.08204499999999999
1631021178956,-0.383629,-0.925492,-0.083021
1631021178966,-0.381616,-0.92415,-0.083082
1631021178975,-0.38295799999999997,-0.924516,-0.082838
1631021178985,-0.383507,-0.9228689999999999,-0.083936
1631021178994,-0.38369,-0.921405,-0.08479
1631021179004,-0.383934,-0.920307,-0.084912
1631021179014,-0.384849,-0.919941,-0.083448
1631021179023,-0.382775,-0.921466,-0.082533
1631021179033,-0.384727,-0.921588,-0.08326499999999999
1631021179042,-0.383629,-0.920978,-0.083936
1631021179052,-0.384056,-0.921222,-0.083936
1631021179062,-0.38491,-0.9213439999999999,-0.083448
1631021179071,-0.385642,-0.9228689999999999,-0.081862
1631021179081,-0.384544,-0.922015,-0.082777
1631021179090,-0.384544,-0.92171,-0.082533
1631021179100,-0.385703,-0.922198,-0.082899
1631021179110,-0.385703,-0.9216489999999999,-0.082838
1631021179119,-0.385825,-0.920063,-0.082594
1631021179129,-0.38674,-0.921893,-0.083692
1631021179138,-0.385642,-0.923296,-0.083387
1631021179148,-0.385642,-0.92415,-0.083448
1631021179158,-0.385215,-0.923906,-0.08356999999999999
1631021179167,-0.384971,-0.924028,-0.083936
1631021179177,-0.384788,-0.92415,-0.08418
1631021179186,-0.384666,-0.924455,-0.085766
1631021179196,-0.3843,-0.923845,-0.085461
1631021179206,-0.384483,-0.925065,-0.084912
1631021179215,-0.383934,-0.924821,-0.0854
1631021179225,-0.383995,-0.92354,-0.084912
1631021179234,-0.383446,-0.9225639999999999,-0.084912
1631021179244,-0.38308,-0.922625,-0.086681
1631021179254,-0.382409,-0.9240889999999999,-0.085522
1631021179263,-0.38247,-0.924455,-0.085034
1631021179273,-0.383507,-0.926346,-0.083997
1631021179282,-0.38234799999999997,-0.9237839999999999,-0.082411
1631021179292,-0.38234799999999997,-0.9228689999999999,-0.08064199999999999
1631021179302,-0.383141,-0.924211,-0.081313
1631021179311,-0.384544,-0.924882,-0.083204
1631021179321,-0.384727,-0.926956,-0.08649799999999999
1631021179330,-0.384422,-0.9283589999999999,-0.089609
1631021179340,-0.383507,-0.9280539999999999,-0.091561
1631021179350,-0.382836,-0.925065,-0.088572
1631021179359,-0.38247,-0.921893,-0.087352
1631021179369,-0.381372,-0.9211,-0.087352
1631021179378,-0.381311,-0.921405,-0.087657
1631021179388,-0.380274,-0.9210389999999999,-0.086254
1631021179398,-0.380701,-0.919941,-0.086986
1631021179407,-0.380091,-0.920368,-0.087413
1631021179417,-0.379786,-0.920978,-0.087596
1631021179426,-0.38051799999999997,-0.9216489999999999,-0.08820599999999999
1631021179436,-0.38082299999999997,-0.921893,-0.087108
1631021179446,-0.381006,-0.92171,-0.084912
1631021179455,-0.381555,-0.922442,-0.083387
1631021179465,-0.38125,-0.923052,-0.082716
1631021179474,-0.381616,-0.924638,-0.08295999999999999
1631021179484,-0.382104,-0.924638,-0.083448
1631021179494,-0.382531,-0.925126,-0.085095
1631021179503,-0.382409,-0.924211,-0.085217
1631021179513,-0.383385,-0.924028,-0.084546
1631021179522,-0.38247,-0.923906,-0.08601
1631021179532,-0.38204299999999997,-0.92354,-0.085644
1631021179542,-0.38234799999999997,-0.922076,-0.085522
1631021179551,-0.383202,-0.921161,-0.086132
1631021179561,-0.383507,-0.920551,-0.085766
1631021179570,-0.383812,-0.922442,-0.087474
1631021179580,-0.38356799999999996,-0.924272,-0.087962
1631021179590,-0.38308,-0.92476,-0.088328
1631021179599,-0.383934,-0.923052,-0.08662
1631021179609,-0.38308,-0.922137,-0.083936
1631021179618,-0.383507,-0.923357,-0.082533
1631021179628,-0.382897,-0.92415,-0.081252
1631021179638,-0.38173799999999997,-0.925431,-0.080093
1631021179647,-0.381494,-0.924577,-0.079056
1631021179657,-0.38125,-0.926163,-0.079605
1631021179666,-0.381555,-0.927078,-0.080154
1631021179676,-0.382287,-0.926346,-0.07991
1631021179686,-0.383141,-0.926651,-0.08033699999999999
1631021179695,-0.38295799999999997,-0.92659,-0.08052
1631021179705,-0.382714,-0.9262239999999999,-0.08052
1631021179714,-0.383629,-0.926407,-0.082411
1631021179724,-0.383385,-0.925553,-0.081557
1631021179734,-0.383385,-0.9246989999999999,-0.08234999999999999
1631021179743,-0.38308,-0.923906,-0.08265499999999999
1631021179753,-0.382897,-0.923723,-0.08326499999999999
1631021179762,-0.383446,-0.924577,-0.08326499999999999
1631021179772,-0.382775,-0.924638,-0.084241
1631021179782,-0.382226,-0.923418,-0.082777
1631021179791,-0.382714,-0.923296,-0.083448
1631021179801,-0.381982,-0.923662,-0.083631
1631021179810,-0.38247,-0.923662,-0.082167
1631021179820,-0.383324,-0.923906,-0.081191
1631021179830,-0.382897,-0.924028,-0.081313
1631021179839,-0.382775,-0.92354,-0.081191
1631021179849,-0.382104,-0.923906,-0.08052
1631021179858,-0.38143299999999997,-0.924272,-0.080764
1631021179868,-0.38204299999999997,-0.923235,-0.081069
1631021179878,-0.38204299999999997,-0.923296,-0.08234999999999999
1631021179887,-0.38186,-0.92232,-0.082411
1631021179897,-0.382226,-0.9228689999999999,-0.08479
1631021179906,-0.38295799999999997,-0.9216489999999999,-0.084729
1631021179916,-0.382531,-0.920917,-0.085034
1631021179926,-0.38295799999999997,-0.9213439999999999,-0.084424
1631021179935,-0.382287,-0.922198,-0.084729
1631021179945,-0.381494,-0.922198,-0.084363
1631021179954,-0.382531,-0.9237839999999999,-0.083814
1631021179964,-0.38204299999999997,-0.92415,-0.083143
1631021179974,-0.382531,-0.92415,-0.082106
1631021179983,-0.381677,-0.925126,-0.082106
1631021179993,-0.382592,-0.926468,-0.080886
1631021180002,-0.381921,-0.9268339999999999,-0.081191
1631021180012,-0.381555,-0.926956,-0.079788
1631021180022,-0.382104,-0.927017,-0.079544
1631021180031,-0.381067,-0.926773,-0.0793
1631021180041,-0.381921,-0.926773,-0.080276
1631021180050,-0.382104,-0.927078,-0.081069
1631021180060,-0.381494,-0.9271389999999999,-0.08113
1631021180070,-0.380762,-0.926285,-0.08265499999999999
1631021180079,-0.381616,-0.925492,-0.08234999999999999
1631021180089,-0.380762,-0.924028,-0.08326499999999999
1631021180098,-0.380762,-0.922442,-0.084119
1631021180108,-0.381616,-0.921832,-0.08558299999999999
1631021180118,-0.38125,-0.921588,-0.085156
1631021180127,-0.379481,-0.922442,-0.083692
1631021180137,-0.380457,-0.92354,-0.082899
1631021180146,-0.380762,-0.924272,-0.08326499999999999
1631021180156,-0.381311,-0.922381,-0.080886
1631021180166,-0.382592,-0.92171,-0.080886
1631021180175,-0.383995,-0.923052,-0.080703
1631021180185,-0.384971,-0.925126,-0.081008
1631021180194,-0.385947,-0.9272,-0.084485
1631021180204,-0.38613,-0.929396,-0.086681
1631021180214,-0.38491,-0.927871,-0.086864
1631021180223,-0.385154,-0.9256139999999999,-0.08619299999999999
1631021180233,-0.382836,-0.924272,-0.085034
1631021180242,-0.38295799999999997,-0.922442,-0.085461
1631021180252,-0.38265299999999997,-0.921527,-0.085522
1631021180262,-0.381799,-0.919392,-0.0854
1631021180271,-0.381677,-0.91866,-0.087291
1631021180281,-0.38125,-0.918721,-0.087962
1631021180290,-0.38125,-0.92049,-0.086681
1631021180300,-0.38186,-0.920368,-0.08479
1631021180310,-0.382775,-0.9201239999999999,-0.084485
1631021180319,-0.382165,-0.9207339999999999,-0.081923
1631021180329,-0.381372,-0.922015,-0.081313
1631021180338,-0.38369,-0.923052,-0.080093
1631021180348,-0.383934,-0.9250039999999999,-0.08052
1631021180358,-0.384422,-0.925736,-0.080764
1631021180367,-0.384727,-0.926102,-0.081984
1631021180377,-0.38387299999999996,-0.926407,-0.083387
1631021180386,-0.38491,-0.9256139999999999,-0.083753
1631021180396,-0.384788,-0.924028,-0.083875
1631021180406,-0.383141,-0.923418,-0.08497299999999999
1631021180415,-0.38295799999999997,-0.9207339999999999,-0.08558299999999999
1631021180425,-0.384544,-0.91866,-0.08588799999999999
1631021180434,-0.384056,-0.918416,-0.085949
1631021180444,-0.383995,-0.920246,-0.086864
1631021180454,-0.3843,-0.9237839999999999,-0.088633
1631021180463,-0.385215,-0.923906,-0.088633
1631021180473,-0.38326299999999996,-0.922076,-0.084851
1631021180482,-0.383507,-0.922381,-0.081984
1631021180492,-0.383202,-0.921893,-0.082533
1631021180502,-0.38295799999999997,-0.923662,-0.080825
1631021180511,-0.383812,-0.924211,-0.080886
1631021180521,-0.382775,-0.923906,-0.08052
1631021180530,-0.382531,-0.925492,-0.080886
1631021180540,-0.38295799999999997,-0.927017,-0.081313
1631021180550,-0.382714,-0.926468,-0.081374
1631021180559,-0.382592,-0.92659,-0.08174
1631021180569,-0.382836,-0.925675,-0.08204499999999999
1631021180578,-0.381494,-0.92537,-0.081191
1631021180588,-0.38173799999999997,-0.923418,-0.081069
1631021180598,-0.382165,-0.92354,-0.082533
1631021180607,-0.381189,-0.92415,-0.08295999999999999
1631021180617,-0.380762,-0.924638,-0.082777
1631021180626,-0.379481,-0.9246989999999999,-0.082106
1631021180636,-0.379237,-0.925858,-0.081557
1631021180646,-0.37942,-0.925248,-0.080947
1631021180655,-0.379786,-0.926468,-0.080154
1631021180665,-0.37881,-0.9256139999999999,-0.081008
1631021180674,-0.37990799999999997,-0.9268339999999999,-0.07972699999999999
1631021180684,-0.37942,-0.926102,-0.078324
1631021180694,-0.37960299999999997,-0.925675,-0.078751
1631021180703,-0.379115,-0.92598,-0.07869
1631021180713,-0.37960299999999997,-0.925736,-0.078385
1631021180722,-0.37990799999999997,-0.925187,-0.077592
1631021180732,-0.37990799999999997,-0.925065,-0.078019
1631021180742,-0.379481,-0.9250039999999999,-0.078629
1631021180751,-0.38064,-0.924516,-0.078507
1631021180761,-0.380762,-0.924211,-0.079788
1631021180770,-0.38051799999999997,-0.92354,-0.080764
1631021180780,-0.380274,-0.923723,-0.080947
1631021180790,-0.381067,-0.922991,-0.080459
1631021180799,-0.381006,-0.923052,-0.0793
1631021180809,-0.381006,-0.92354,-0.080154
1631021180818,-0.38173799999999997,-0.923113,-0.079361
1631021180828,-0.381677,-0.923601,-0.080215
1631021180838,-0.382775,-0.923723,-0.07942199999999999
1631021180847,-0.38265299999999997,-0.9243939999999999,-0.079788
1631021180857,-0.38234799999999997,-0.924455,-0.079178
1631021180866,-0.382104,-0.924455,-0.078995
1631021180876,-0.381921,-0.925065,-0.078629
1631021180886,-0.382531,-0.925126,-0.07808
1631021180895,-0.381982,-0.9262239999999999,-0.077653
1631021180905,-0.381555,-0.926407,-0.07808
1631021180914,-0.38173799999999997,-0.9265289999999999,-0.078202
1631021180924,-0.381799,-0.925065,-0.077592
1631021180934,-0.382531,-0.924272,-0.079056
1631021180943,-0.38112799999999997,-0.925126,-0.080825
1631021180953,-0.381311,-0.925492,-0.080093
1631021180962,-0.381982,-0.92537,-0.078873
1631021180972,-0.382287,-0.92415,-0.077592
1631021180982,-0.38125,-0.922442,-0.075762
1631021180991,-0.382287,-0.921771,-0.075579
1631021181001,-0.383934,-0.923662,-0.077165
1631021181010,-0.384788,-0.92537,-0.0793
1631021181020,-0.384971,-0.928115,-0.082167
1631021181030,-0.384727,-0.9298839999999999,-0.08527799999999999
1631021181039,-0.38491,-0.929762,-0.08418
1631021181049,-0.383141,-0.926041,-0.081984
1631021181058,-0.38295799999999997,-0.923662,-0.080398
1631021181068,-0.381616,-0.922503,-0.081069
1631021181078,-0.381372,-0.92171,-0.081374
1631021181087,-0.379664,-0.920673,-0.081313
1631021181097,-0.380762,-0.91927,-0.082106
1631021181106,-0.380701,-0.920673,-0.08295999999999999
1631021181116,-0.380396,-0.92232,-0.080703
1631021181126,-0.381372,-0.9231739999999999,-0.081069
1631021181135,-0.382531,-0.9219539999999999,-0.07911699999999999
1631021181145,-0.382531,-0.9231739999999999,-0.079178
1631021181154,-0.382287,-0.922808,-0.077287
1631021181164,-0.38204299999999997,-0.923662,-0.078446
1631021181174,-0.383202,-0.924333,-0.07869
1631021181183,-0.382836,-0.925248,-0.079178
1631021181193,-0.38326299999999996,-0.925797,-0.07942199999999999
1631021181202,-0.383202,-0.9262239999999999,-0.081069
1631021181212,-0.383324,-0.9253089999999999,-0.081191
1631021181222,-0.38234799999999997,-0.925248,-0.08113
1631021181231,-0.382287,-0.923357,-0.082106
1631021181241,-0.38234799999999997,-0.920551,-0.081679
1631021181250,-0.382836,-0.920673,-0.080703
1631021181260,-0.381494,-0.921161,-0.081862
1631021181270,-0.38173799999999997,-0.923906,-0.083326
1631021181279,-0.382165,-0.925126,-0.083753
1631021181289,-0.38204299999999997,-0.92476,-0.081984
1631021181298,-0.381677,-0.923845,-0.079483
1631021181308,-0.381494,-0.924333,-0.077958
1631021181318,-0.380945,-0.925187,-0.077287
1631021181327,-0.381006,-0.924882,-0.07618899999999999
1631021181337,-0.38003,-0.926346,-0.076555
1631021181346,-0.380335,-0.926651,-0.076555
1631021181356,-0.380579,-0.926956,-0.077348
1631021181366,-0.381616,-0.927566,-0.07679899999999999
1631021181375,-0.380884,-0.9272,-0.078202
1631021181385,-0.38021299999999997,-0.92781,-0.07679899999999999
1631021181394,-0.380762,-0.927383,-0.076677
1631021181404,-0.38051799999999997,-0.9274439999999999,-0.077531
1631021181414,-0.381372,-0.927078,-0.076921
1631021181423,-0.380396,-0.926895,-0.076982
1631021181433,-0.37990799999999997,-0.926895,-0.07679899999999999
1631021181442,-0.379237,-0.927627,-0.077897
1631021181452,-0.38003,-0.927017,-0.078446
1631021181462,-0.380945,-0.92781,-0.077897
1631021181471,-0.380884,-0.928176,-0.078263
1631021181481,-0.38082299999999997,-0.9272,-0.077836
1631021181490,-0.38112799999999997,-0.927627,-0.07686
1631021181500,-0.380396,-0.927688,-0.078385
1631021181510,-0.38112799999999997,-0.925736,-0.078995
1631021181519,-0.38064,-0.925248,-0.079971
1631021181529,-0.381372,-0.924638,-0.07972699999999999
1631021181538,-0.381494,-0.924028,-0.079056
1631021181548,-0.38186,-0.92354,-0.078019
1631021181558,-0.38173799999999997,-0.9234789999999999,-0.07869
1631021181567,-0.382409,-0.923235,-0.080398
1631021181577,-0.383385,-0.921588,-0.08033699999999999
1631021181586,-0.383324,-0.922381,-0.081801
1631021181596,-0.382836,-0.922808,-0.083082
1631021181606,-0.383446,-0.922747,-0.082228
1631021181615,-0.38369,-0.9219539999999999,-0.081252
1631021181625,-0.383812,-0.9222589999999999,-0.083082
1631021181634,-0.383629,-0.921405,-0.08356999999999999
1631021181644,-0.383629,-0.92049,-0.08418
1631021181654,-0.384666,-0.9211,-0.084607
1631021181663,-0.384544,-0.920673,-0.085827
1631021181673,-0.385764,-0.920246,-0.08588799999999999
1631021181682,-0.3843,-0.9195139999999999,-0.086925
1631021181692,-0.385764,-0.919331,-0.087779
1631021181702,-0.385825,-0.921161,-0.08820599999999999
1631021181711,-0.385764,-0.9213439999999999,-0.088694
1631021181721,-0.386679,-0.920246,-0.088999
1631021181730,-0.385947,-0.9198189999999999,-0.087779
1631021181740,-0.386496,-0.920795,-0.088755
1631021181750,-0.38613,-0.921222,-0.088572
1631021181759,-0.385642,-0.921466,-0.088694
1631021181769,-0.386252,-0.920978,-0.08906
1631021181778,-0.386008,-0.921893,-0.08845
1631021181788,-0.385459,-0.9213439999999999,-0.08851099999999999
1631021181798,-0.385703,-0.920978,-0.088999
1631021181807,-0.385825,-0.9189039999999999,-0.09028
1631021181817,-0.385703,-0.917806,-0.09028
1631021181826,-0.384544,-0.917318,-0.090585
1631021181836,-0.384544,-0.918782,-0.089304
1631021181846,-0.384971,-0.91927,-0.08881599999999999
1631021181855,-0.384788,-0.918416,-0.087535
1631021181865,-0.38491,-0.917013,-0.08601
1631021181874,-0.385093,-0.916708,-0.085827
1631021181884,-0.387045,-0.91866,-0.087169
1631021181894,-0.38734999999999997,-0.920856,-0.089975
1631021181903,-0.387594,-0.926041,-0.09174399999999999
1631021181913,-0.387594,-0.9280539999999999,-0.09211
1631021181922,-0.387899,-0.928725,-0.089792
1631021181932,-0.386008,-0.928298,-0.08662
1631021181942,-0.384361,-0.92842,-0.083875
1631021181951,-0.3843,-0.926956,-0.081679
1631021181961,-0.382897,-0.925858,-0.080703
1631021181970,-0.382409,-0.9243939999999999,-0.079544
1631021181980,-0.381494,-0.9231739999999999,-0.080154
1631021181990,-0.380396,-0.92415,-0.08052
1631021181999,-0.379664,-0.924455,-0.081374
1631021182009,-0.379359,-0.924516,-0.079544
1631021182018,-0.380091,-0.924211,-0.077653
1631021182028,-0.380274,-0.923601,-0.076006
1631021182038,-0.38021299999999997,-0.923723,-0.075701
1631021182047,-0.37942,-0.925065,-0.074237
1631021182057,-0.37990799999999997,-0.926651,-0.074786
1631021182066,-0.379969,-0.927322,-0.075152
1631021182076,-0.380274,-0.925858,-0.076921
1631021182086,-0.380091,-0.92659,-0.07710399999999999
1631021182095,-0.380396,-0.925675,-0.077836
1631021182105,-0.380152,-0.925126,-0.077043
1631021182114,-0.380274,-0.923113,-0.076738
1631021182124,-0.380701,-0.923113,-0.07625
1631021182134,-0.38173799999999997,-0.923052,-0.076128
1631021182143,-0.379969,-0.923662,-0.077348
1631021182153,-0.38051799999999997,-0.925248,-0.078934
1631021182162,-0.380762,-0.927017,-0.079605
1631021182172,-0.37929799999999997,-0.925248,-0.077531
1631021182182,-0.37990799999999997,-0.923662,-0.076982
1631021182191,-0.37899299999999997,-0.923052,-0.07448099999999999
1631021182201,-0.378749,-0.925431,-0.071614
1631021182210,-0.379176,-0.9240889999999999,-0.072285
1631021182220,-0.379176,-0.92537,-0.070089
1631021182230,-0.378444,-0.92659,-0.07063799999999999
1631021182239,-0.37868799999999997,-0.927627,-0.07137
1631021182249,-0.378261,-0.927688,-0.07137
1631021182258,-0.378505,-0.9286639999999999,-0.072102
1631021182268,-0.379664,-0.928542,-0.071858
1631021182278,-0.37960299999999997,-0.927932,-0.071004
1631021182287,-0.37960299999999997,-0.929091,-0.072224
1631021182297,-0.379176,-0.9292739999999999,-0.071858
1631021182306,-0.378505,-0.929945,-0.072346
1631021182316,-0.378932,-0.9280539999999999,-0.072102
1631021182326,-0.378444,-0.92903,-0.072651
1631021182335,-0.378871,-0.928786,-0.074237
1631021182345,-0.379054,-0.928237,-0.07503
1631021182354,-0.378017,-0.9268339999999999,-0.074725
1631021182364,-0.37838299999999997,-0.926407,-0.074603
1631021182374,-0.37868799999999997,-0.9268339999999999,-0.074542
1631021182383,-0.379786,-0.926468,-0.075457
1631021182393,-0.379542,-0.927566,-0.074786
1631021182402,-0.37942,-0.927322,-0.074298
1631021182412,-0.380152,-0.925187,-0.074115
1631021182422,-0.37942,-0.925431,-0.07448099999999999
1631021182431,-0.379176,-0.92537,-0.075213
1631021182441,-0.380091,-0.925858,-0.076433
1631021182450,-0.379115,-0.92415,-0.077287
1631021182460,-0.379481,-0.922991,-0.07869
1631021182470,-0.379054,-0.922991,-0.081252
1631021182479,-0.38003,-0.9225639999999999,-0.080825
1631021182489,-0.38021299999999997,-0.923113,-0.081008
1631021182498,-0.380701,-0.921588,-0.082594
1631021182508,-0.38186,-0.921893,-0.083753
1631021182518,-0.38204299999999997,-0.9225639999999999,-0.083326
1631021182527,-0.38265299999999997,-0.9237839999999999,-0.082167
1631021182537,-0.382104,-0.925126,-0.08174
1631021182546,-0.383019,-0.9259189999999999,-0.079178
1631021182556,-0.383141,-0.924272,-0.07869
1631021182566,-0.38204299999999997,-0.924821,-0.078446
1631021182575,-0.383812,-0.925065,-0.078263
1631021182585,-0.384422,-0.9240889999999999,-0.07740899999999999
1631021182594,-0.384605,-0.923906,-0.078995
1631021182604,-0.385276,-0.924638,-0.079239
1631021182614,-0.385337,-0.9246989999999999,-0.08064199999999999
1631021182623,-0.385886,-0.923845,-0.081008
1631021182633,-0.386374,-0.923601,-0.080215
1631021182642,-0.385703,-0.9216489999999999,-0.080398
1631021182652,-0.386008,-0.922686,-0.081374
1631021182662,-0.385764,-0.922381,-0.081801
1631021182671,-0.384422,-0.92232,-0.081191
1631021182681,-0.384666,-0.9225639999999999,-0.08064199999999999
1631021182690,-0.385276,-0.920856,-0.080764
1631021182700,-0.3843,-0.918782,-0.080886
1631021182710,-0.383751,-0.920063,-0.079666
1631021182719,-0.38308,-0.920551,-0.078568
1631021182729,-0.383995,-0.9210389999999999,-0.077287
1631021182738,-0.384422,-0.9198189999999999,-0.075274
1631021182748,-0.38369,-0.9185989999999999,-0.073749
1631021182758,-0.385032,-0.918965,-0.073322
1631021182767,-0.386618,-0.921466,-0.07417599999999999
1631021182777,-0.386557,-0.925065,-0.075762
1631021182786,-0.387594,-0.9289689999999999,-0.078507
1631021182796,-0.387228,-0.931592,-0.08003199999999999
1631021182806,-0.386862,-0.930738,-0.079239
1631021182815,-0.385764,-0.927627,-0.077287
1631021182825,-0.385154,-0.925187,-0.075518
1631021182834,-0.383507,-0.923418,-0.075152
1631021182844,-0.382775,-0.921222,-0.074786
1631021182854,-0.38173799999999997,-0.919941,-0.074908
1631021182863,-0.38173799999999997,-0.920978,-0.075518
1631021182873,-0.38021299999999997,-0.920795,-0.07503
1631021182882,-0.380884,-0.9219539999999999,-0.074237
1631021182892,-0.380762,-0.92354,-0.07356599999999999
1631021182902,-0.381494,-0.923418,-0.072041
1631021182911,-0.38186,-0.924638,-0.071309
1631021182921,-0.382226,-0.926407,-0.07063799999999999
1631021182930,-0.383019,-0.9277489999999999,-0.071126
1631021182940,-0.38326299999999996,-0.92842,-0.07198
1631021182950,-0.38326299999999996,-0.929518,-0.072102
1631021182959,-0.38387299999999996,-0.92842,-0.073139
1631021182969,-0.38369,-0.927871,-0.074115
1631021182978,-0.384056,-0.929152,-0.074725
1631021182988,-0.382165,-0.927871,-0.075213
1631021182998,-0.381372,-0.9237839999999999,-0.074908
1631021183007,-0.381555,-0.9228689999999999,-0.07564
1631021183017,-0.382226,-0.9228689999999999,-0.076311
1631021183026,-0.381006,-0.923906,-0.078873
1631021183036,-0.38064,-0.926041,-0.080703
1631021183046,-0.37960299999999997,-0.926773,-0.080764
1631021183055,-0.38021299999999997,-0.9237839999999999,-0.077653
1631021183065,-0.378871,-0.92354,-0.075701
1631021183074,-0.3782,-0.9250039999999999,-0.073322
1631021183084,-0.378505,-0.92598,-0.072712
1631021183094,-0.377956,-0.9271389999999999,-0.07155299999999999
1631021183103,-0.377346,-0.9280539999999999,-0.071614
1631021183113,-0.3782,-0.92903,-0.072773
1631021183122,-0.37807799999999997,-0.92964,-0.07417599999999999
1631021183132,-0.379664,-0.9292739999999999,-0.074542
1631021183142,-0.379542,-0.928786,-0.074359
1631021183151,-0.378749,-0.928786,-0.075274
1631021183161,-0.379054,-0.9280539999999999,-0.07503
1631021183170,-0.37960299999999997,-0.925431,-0.076067
1631021183180,-0.378566,-0.92476,-0.077348
1631021183190,-0.379847,-0.9259189999999999,-0.078507
1631021183199,-0.380152,-0.925675,-0.077775
