timestamp,ax,ay,az
1630070702277,-0.42553599999999997,0.878583,0.232593
1630070702287,-0.425475,0.872483,0.232593
1630070702296,-0.425109,0.868884,0.235704
1630070702306,-0.42370599999999997,0.868701,0.23912
1630070702316,-0.42309599999999997,0.8723,0.242231
1630070702325,-0.42212,0.876692,0.245037
1630070702335,-0.421998,0.878888,0.244976
1630070702344,-0.422974,0.879559,0.244244
1630070702354,-0.423584,0.8790709999999999,0.24357299999999998
1630070702364,-0.425658,0.8769359999999999,0.24387799999999998
1630070702373,-0.426268,0.874618,0.244366
1630070702383,-0.42675599999999997,0.873215,0.244061
1630070702392,-0.427549,0.874679,0.243634
1630070702402,-0.427244,0.875289,0.24461
1630070702412,-0.42797599999999997,0.8763259999999999,0.243756
1630070702421,-0.42761,0.876997,0.24278
1630070702431,-0.42797599999999997,0.87657,0.241865
1630070702440,-0.428098,0.875045,0.24217
1630070702450,-0.427244,0.874862,0.240584
1630070702460,-0.427122,0.874923,0.241133
1630070702469,-0.426878,0.874557,0.239425
1630070702479,-0.427732,0.873032,0.239425
1630070702488,-0.42736599999999997,0.872788,0.23863199999999998
1630070702498,-0.427244,0.8732759999999999,0.237656
1630070702508,-0.428769,0.875228,0.23710699999999998
1630070702517,-0.428952,0.876692,0.236436
1630070702527,-0.428403,0.876082,0.23680199999999998
1630070702536,-0.42858599999999997,0.873032,0.23741199999999998
1630070702546,-0.429379,0.8732759999999999,0.23741199999999998
1630070702556,-0.42858599999999997,0.873642,0.238571
1630070702565,-0.427732,0.8735809999999999,0.239608
1630070702575,-0.428037,0.8748009999999999,0.23973
1630070108071,-0.427854,0.874984,0.239486
1630070108080,-0.428159,0.875655,0.238388
1630070108090,-0.428098,0.874374,0.239425
1630070108099,-0.42822,0.873337,0.239364
1630070108109,-0.427427,0.872422,0.239303
1630070108119,-0.427427,0.871995,0.239974
1630070108128,-0.42706099999999997,0.872849,0.24046199999999998
1630070108138,-0.427915,0.874069,0.240035
1630070108147,-0.428037,0.874923,0.24095
1630070108157,-0.42761,0.8760209999999999,0.24143799999999999
1630070108167,-0.428098,0.875167,0.241682
1630070108176,-0.429074,0.8754109999999999,0.241682
1630070108186,-0.42761,0.874374,0.24217
1630070108195,-0.426817,0.873947,0.241987
1630070108205,-0.426695,0.8744959999999999,0.241682
1630070108215,-0.426573,0.875228,0.24156
1630070108224,-0.427,0.875289,0.241499
1630070108234,-0.426573,0.8757159999999999,0.241621
1630070108243,-0.427122,0.8757159999999999,0.242414
1630070108253,-0.42645099999999997,0.875289,0.241987
1630070108263,-0.426878,0.875777,0.24278
1630070108272,-0.425353,0.875472,0.243634
1630070108282,-0.424804,0.875045,0.244549
1630070108291,-0.424865,0.8738859999999999,0.244671
1630070108301,-0.425292,0.873215,0.245525
1630070108311,-0.426024,0.8729709999999999,0.244976
1630070108320,-0.425475,0.875228,0.243939
1630070108330,-0.426207,0.8744959999999999,0.244122
1630070108339,-0.425475,0.874679,0.24357299999999998
1630070108349,-0.425353,0.875594,0.24326799999999998
1630070108359,-0.425048,0.875045,0.243634
1630070108368,-0.423584,0.874008,0.245769
1630070108378,-0.423828,0.875838,0.246562
1630070108387,-0.42340099999999997,0.875594,0.246379
1630070108397,-0.424194,0.87474,0.244732
1630070108407,-0.423828,0.876753,0.243085
1630070108416,-0.42492599999999997,0.8799859999999999,0.241987
1630070108426,-0.42334,0.87962,0.241316
1630070108435,-0.422669,0.874252,0.240828
1630070108445,-0.42212,0.869677,0.243329
1630070108455,-0.42212,0.869433,0.246379
1630070108464,-0.420656,0.873154,0.247355
1630070108474,-0.420656,0.87718,0.247538
1630070108483,-0.420534,0.877607,0.247477
1630070108493,-0.420839,0.876082,0.247355
1630070108503,-0.420839,0.875899,0.246501
1630070108512,-0.421693,0.874313,0.248331
1630070108522,-0.420717,0.874008,0.248636
1630070108531,-0.421937,0.875228,0.249002
1630070108541,-0.422242,0.875838,0.248575
1630070108551,-0.422242,0.877607,0.247416
1630070108560,-0.422181,0.878583,0.245464
1630070108570,-0.422364,0.878522,0.244061
1630070108579,-0.422486,0.87779,0.243695
1630070108589,-0.42212,0.875899,0.242536
1630070108599,-0.422303,0.87474,0.241804
1630070108608,-0.422303,0.875228,0.24217
1630070108618,-0.422791,0.87535,0.24156
1630070108627,-0.422242,0.875289,0.24265799999999998
1630070108637,-0.420961,0.875533,0.24204799999999999
1630070108647,-0.422303,0.876387,0.241194
1630070108656,-0.42334,0.877973,0.239791
1630070108666,-0.42395,0.878278,0.23924199999999998
1630070108675,-0.42456,0.874008,0.23924199999999998
1630070108685,-0.424682,0.872483,0.239791
1630070108695,-0.424438,0.872544,0.241926
1630070108704,-0.423645,0.87474,0.241987
1630070108714,-0.424499,0.875655,0.24339
1630070108723,-0.42492599999999997,0.876875,0.242719
1630070108733,-0.42523099999999997,0.8784,0.242292
1630070108743,-0.42584099999999997,0.87718,0.242109
1630070108752,-0.425475,0.8775459999999999,0.241194
1630070108762,-0.424987,0.876204,0.241072
1630070108771,-0.424804,0.875289,0.240584
1630070108781,-0.425048,0.875594,0.241133
1630070108791,-0.425292,0.874679,0.24015699999999998
1630070108800,-0.42492599999999997,0.8744959999999999,0.239486
1630070108810,-0.424865,0.873825,0.24015699999999998
1630070108819,-0.425048,0.874008,0.240889
1630070108829,-0.42401099999999997,0.874008,0.241011
1630070108839,-0.425048,0.874008,0.241133
1630070108848,-0.425292,0.875045,0.24156
1630070108858,-0.425597,0.875472,0.24156
1630070108867,-0.425292,0.877058,0.24204799999999999
1630070108877,-0.424743,0.877607,0.243024
1630070108887,-0.424438,0.875533,0.243451
1630070108896,-0.424072,0.8744959999999999,0.24278
1630070108906,-0.42395,0.874923,0.242841
1630070108915,-0.42462099999999997,0.874374,0.243085
1630070108925,-0.425048,0.875472,0.243146
1630070108935,-0.425048,0.87474,0.243939
1630070108944,-0.42431599999999997,0.87474,0.24418299999999998
1630070108954,-0.424682,0.87474,0.243207
1630070108963,-0.424133,0.874618,0.244976
1630070108973,-0.42340099999999997,0.874069,0.244671
1630070108983,-0.42340099999999997,0.873825,0.244976
1630070108992,-0.424133,0.875045,0.244976
1630070109002,-0.42334,0.874923,0.24570799999999998
1630070109011,-0.423462,0.874252,0.245342
1630070109021,-0.423035,0.874923,0.244671
1630070109031,-0.422791,0.876082,0.244671
1630070109040,-0.422791,0.875594,0.245891
1630070109050,-0.423828,0.873764,0.246684
1630070109059,-0.422303,0.875167,0.247172
1630070109069,-0.422486,0.8760209999999999,0.246562
1630070109079,-0.423889,0.875594,0.24662299999999998
1630070109088,-0.42395,0.8763259999999999,0.243695
1630070109098,-0.425963,0.8784,0.24265799999999998
1630070109107,-0.42675599999999997,0.879193,0.24143799999999999
1630070109117,-0.42675599999999997,0.876448,0.24156
1630070109127,-0.426268,0.871507,0.24326799999999998
1630070109136,-0.42340099999999997,0.869616,0.245464
1630070109146,-0.423462,0.872544,0.246562
1630070109155,-0.422425,0.8763259999999999,0.248453
1630070109165,-0.421693,0.877668,0.248453
1630070109175,-0.421083,0.87779,0.247843
1630070109184,-0.421754,0.876204,0.248148
1630070109194,-0.421815,0.874984,0.24827
1630070109203,-0.422242,0.873032,0.249063
1630070109213,-0.421693,0.872178,0.249246
1630070109223,-0.422364,0.872605,0.249612
1630070109232,-0.422364,0.873032,0.249307
1630070109242,-0.423035,0.87474,0.248453
1630070109251,-0.42334,0.876143,0.246806
1630070109261,-0.42370599999999997,0.875472,0.246745
1630070109271,-0.424499,0.874984,0.24540299999999998
1630070109280,-0.424987,0.8748009999999999,0.245159
1630070109290,-0.42492599999999997,0.874435,0.24540299999999998
1630070109299,-0.425719,0.874618,0.244427
1630070109309,-0.426085,0.8738859999999999,0.244976
1630070109319,-0.42431599999999997,0.872727,0.244427
1630070109328,-0.42462099999999997,0.8751059999999999,0.244
1630070109338,-0.426512,0.877729,0.242414
1630070109347,-0.427732,0.879437,0.24095
1630070109357,-0.427183,0.874923,0.240828
1630070109367,-0.426634,0.871568,0.24235299999999999
1630070109376,-0.426512,0.872117,0.241804
1630070109386,-0.42675599999999997,0.873398,0.243146
1630070109395,-0.42517,0.8763259999999999,0.243451
1630070109405,-0.425414,0.877668,0.24357299999999998
1630070109415,-0.42517,0.8763259999999999,0.243512
1630070109424,-0.424804,0.874557,0.243085
1630070109434,-0.424499,0.873703,0.244305
1630070109443,-0.423828,0.8726659999999999,0.244427
1630070109453,-0.424682,0.8729709999999999,0.245281
1630070109463,-0.42431599999999997,0.873398,0.244671
1630070109472,-0.424804,0.874923,0.24461
1630070109482,-0.425719,0.875777,0.245159
1630070109491,-0.426085,0.87535,0.244976
1630070109501,-0.426573,0.874618,0.24522
1630070109511,-0.426329,0.874984,0.244122
1630070109520,-0.426695,0.874313,0.245952
1630070109530,-0.426268,0.8751059999999999,0.246196
1630070109539,-0.425658,0.874557,0.246989
1630070109549,-0.42584099999999997,0.8748009999999999,0.246379
1630070109559,-0.426085,0.874313,0.246379
1630070109568,-0.426817,0.8741909999999999,0.246135
1630070109578,-0.426268,0.87474,0.246806
1630070109587,-0.426207,0.873337,0.246867
1630070109597,-0.425658,0.871995,0.247111
1630070109607,-0.425902,0.871568,0.246806
1630070109616,-0.425475,0.871507,0.24662299999999998
1630070109626,-0.425475,0.870897,0.246867
1630070109635,-0.42517,0.870409,0.246928
1630070109645,-0.42462099999999997,0.870409,0.24820899999999999
1630070109655,-0.425109,0.871385,0.24827
1630070109664,-0.425475,0.87169,0.249673
1630070109674,-0.425902,0.872605,0.249856
1630070109683,-0.425597,0.873825,0.249856
1630070109693,-0.426085,0.87474,0.250649
1630070109703,-0.42639,0.875533,0.249612
1630070109712,-0.427244,0.874862,0.250405
1630070109722,-0.427122,0.873398,0.250466
1630070109731,-0.426329,0.873032,0.250771
1630070109741,-0.42578,0.875228,0.24973399999999998
1630070109751,-0.425719,0.875594,0.248148
1630070109760,-0.426024,0.87352,0.246806
1630070109770,-0.426878,0.87413,0.245769
1630070109779,-0.42645099999999997,0.875533,0.244366
1630070109789,-0.426634,0.874252,0.24387799999999998
1630070109799,-0.42523099999999997,0.868823,0.244976
1630070109808,-0.424865,0.866261,0.247416
1630070109818,-0.42370599999999997,0.868762,0.249185
1630070109827,-0.42273,0.872483,0.250039
1630070109837,-0.422852,0.876082,0.250161
1630070109847,-0.422547,0.8763259999999999,0.249063
1630070109856,-0.422974,0.875594,0.248758
1630070109866,-0.42309599999999997,0.87413,0.249368
1630070109875,-0.423218,0.872239,0.249673
1630070109885,-0.42395,0.871324,0.24949
1630070109895,-0.42492599999999997,0.87047,0.248636
1630070109904,-0.425963,0.872483,0.248331
1630070109914,-0.426634,0.874435,0.246745
1630070109923,-0.427732,0.874679,0.24644
1630070109933,-0.42858599999999997,0.876143,0.245647
1630070109943,-0.429013,0.876753,0.244061
1630070109952,-0.428403,0.876082,0.243695
1630070109962,-0.42883,0.873764,0.243085
1630070109971,-0.42950099999999997,0.8729709999999999,0.242292
1630070109981,-0.428159,0.872422,0.24217
1630070109991,-0.427854,0.8702259999999999,0.24217
1630070110000,-0.42675599999999997,0.869982,0.240218
1630070110010,-0.427244,0.873215,0.240096
1630070110019,-0.42736599999999997,0.876875,0.23863199999999998
1630070110029,-0.42767099999999997,0.87657,0.23851
1630070110039,-0.42736599999999997,0.871202,0.24046199999999998
1630070110048,-0.42761,0.869616,0.241621
1630070110058,-0.427122,0.8708359999999999,0.240889
1630070110067,-0.426634,0.873154,0.241194
1630070110077,-0.42675599999999997,0.874313,0.242414
1630070110087,-0.427,0.87657,0.242719
1630070110096,-0.426207,0.876204,0.243207
1630070110106,-0.426939,0.874374,0.24265799999999998
1630070110115,-0.426085,0.872544,0.244
1630070110125,-0.42645099999999997,0.8723609999999999,0.244244
1630070110135,-0.42675599999999997,0.872422,0.244854
1630070110144,-0.427122,0.872788,0.243756
1630070110154,-0.42675599999999997,0.872422,0.243756
1630070110163,-0.427183,0.8726659999999999,0.243451
1630070110173,-0.428342,0.8729709999999999,0.244
1630070110183,-0.42883,0.873459,0.244244
1630070110192,-0.429257,0.873032,0.243756
1630070110202,-0.429074,0.873642,0.24479299999999998
1630070110211,-0.42858599999999997,0.87413,0.244671
1630070110221,-0.42883,0.8751059999999999,0.245586
1630070110231,-0.429318,0.873764,0.24509799999999998
1630070110240,-0.42919599999999997,0.872727,0.244549
1630070110250,-0.429745,0.872178,0.244732
1630070110259,-0.429013,0.87169,0.244244
1630070110269,-0.428098,0.870653,0.243756
1630070110279,-0.429135,0.870653,0.244244
1630070110288,-0.428769,0.871202,0.244244
1630070110298,-0.429318,0.8708359999999999,0.24583
1630070110307,-0.430233,0.8711409999999999,0.246135
1630070110317,-0.429379,0.8714459999999999,0.247172
1630070110327,-0.429562,0.870348,0.24705
1630070110336,-0.42950099999999997,0.86986,0.247538
1630070110346,-0.430172,0.869494,0.248026
1630070110355,-0.430538,0.86925,0.24820899999999999
1630070110365,-0.431575,0.869616,0.248575
1630070110375,-0.43194099999999996,0.869799,0.247721
1630070110384,-0.431758,0.870897,0.24790399999999999
1630070110394,-0.431758,0.8699209999999999,0.24790399999999999
1630070110403,-0.43249,0.870348,0.246562
1630070110413,-0.433344,0.87169,0.24644
1630070110423,-0.433771,0.8717509999999999,0.24583
1630070110432,-0.434503,0.873642,0.245281
1630070110442,-0.434503,0.8735809999999999,0.245159
1630070110451,-0.43432,0.872727,0.24448799999999998
1630070110461,-0.43493,0.874374,0.245342
1630070110471,-0.434442,0.875594,0.24631799999999998
1630070110480,-0.433283,0.8751059999999999,0.248392
1630070110490,-0.43249,0.869494,0.249673
1630070110499,-0.431758,0.866017,0.251747
1630070110509,-0.430904,0.866932,0.252479
1630070110519,-0.430538,0.86986,0.253455
1630070110528,-0.430599,0.8723,0.252052
1630070110538,-0.430172,0.872788,0.248575
1630070110547,-0.43163599999999996,0.873154,0.24631799999999998
1630070110557,-0.433344,0.874435,0.240828
1630070110567,-0.43249,0.875472,0.238815
1630070110576,-0.432368,0.866749,0.24156
1630070110586,-0.434381,0.864248,0.241011
1630070110595,-0.434137,0.863638,0.241621
1630070110605,-0.435662,0.8635769999999999,0.24174299999999999
1630070110615,-0.435845,0.866322,0.239425
1630070110624,-0.43554,0.867298,0.239364
1630070110634,-0.437126,0.868579,0.23607
1630070110643,-0.436699,0.868945,0.234057
1630070110653,-0.438102,0.869555,0.23216599999999998
1630070110663,-0.43785799999999997,0.870104,0.231312
1630070110672,-0.438224,0.86925,0.23155599999999998
1630070110682,-0.438407,0.869189,0.231434
1630070110691,-0.438346,0.869799,0.232105
1630070110701,-0.43785799999999997,0.869006,0.231434
1630070110711,-0.437919,0.8711409999999999,0.231922
1630070110720,-0.43785799999999997,0.8732759999999999,0.232532
1630070110730,-0.437736,0.873398,0.23216599999999998
1630070110739,-0.436455,0.87108,0.23363
1630070110749,-0.435967,0.870958,0.235216
1630070110759,-0.43511299999999997,0.870653,0.23649699999999999
1630070110768,-0.43554,0.870653,0.236131
1630070110778,-0.435052,0.87108,0.236375
1630070110787,-0.433954,0.871629,0.23680199999999998
1630070110797,-0.434015,0.872788,0.236558
1630070110807,-0.433039,0.873093,0.237168
1630070110816,-0.432734,0.8723,0.23729
1630070110826,-0.432185,0.8720559999999999,0.238388
1630070110835,-0.430904,0.872727,0.238815
1630070110845,-0.431392,0.8723,0.23832699999999998
1630070110855,-0.433039,0.871568,0.237534
1630070110864,-0.432734,0.8723609999999999,0.237595
1630070110874,-0.43249,0.873032,0.236924
1630070110883,-0.432673,0.8732759999999999,0.23588699999999999
1630070110893,-0.433466,0.8744959999999999,0.235643
1630070110903,-0.433161,0.874374,0.23546
1630070110912,-0.433588,0.875045,0.235826
1630070110922,-0.433832,0.8748009999999999,0.23546
1630070110931,-0.434076,0.8741909999999999,0.235765
1630070110941,-0.432795,0.873764,0.236314
1630070110951,-0.43163599999999996,0.87413,0.236558
1630070110960,-0.432002,0.874252,0.236558
1630070110970,-0.43133099999999996,0.8751059999999999,0.237168
1630070110979,-0.430355,0.873947,0.238388
1630070110989,-0.42950099999999997,0.874008,0.238754
1630070110999,-0.428647,0.873947,0.238876
1630070111008,-0.42950099999999997,0.8723,0.238388
1630070111018,-0.428403,0.871324,0.23710699999999998
1630070111027,-0.427305,0.8708359999999999,0.23649699999999999
1630070111037,-0.428037,0.869799,0.236558
1630070111047,-0.428159,0.868274,0.237534
1630070111056,-0.42889099999999997,0.868823,0.23802199999999998
1630070111066,-0.429257,0.870165,0.238144
1630070111075,-0.42944,0.872849,0.237534
1630070111085,-0.429928,0.874923,0.23863199999999998
1630070111095,-0.428769,0.875289,0.238571
1630070111104,-0.429074,0.876387,0.23771699999999998
1630070111114,-0.429257,0.87596,0.237473
1630070111123,-0.428525,0.873215,0.23851
1630070111133,-0.428098,0.8735809999999999,0.239791
1630070111143,-0.42736599999999997,0.874069,0.24034
1630070111152,-0.428464,0.871629,0.23985199999999998
1630070111162,-0.427549,0.871934,0.237595
1630070111171,-0.42889099999999997,0.87535,0.23619199999999999
1630070111181,-0.429928,0.877363,0.23558199999999999
1630070111191,-0.429745,0.873642,0.236009
1630070111200,-0.429257,0.869128,0.238205
1630070111210,-0.428769,0.866444,0.240584
1630070111219,-0.42858599999999997,0.869555,0.241133
1630070111229,-0.42822,0.874557,0.24235299999999999
1630070111239,-0.42761,0.876875,0.242475
1630070111248,-0.427915,0.876204,0.24156
1630070111258,-0.429013,0.875167,0.241682
1630070111267,-0.42858599999999997,0.874862,0.241377
1630070111277,-0.429379,0.8732759999999999,0.241621
1630070111287,-0.429989,0.87169,0.242902
1630070111296,-0.431209,0.871324,0.24156
1630070111306,-0.432124,0.8714459999999999,0.239425
1630070111315,-0.431697,0.872544,0.237656
1630070111325,-0.432795,0.872605,0.236924
1630070111335,-0.434808,0.872788,0.23558199999999999
1630070111344,-0.434076,0.873032,0.235094
1630070111354,-0.43554,0.871934,0.234972
1630070111363,-0.435052,0.872117,0.235399
1630070111373,-0.434808,0.872422,0.234911
1630070111383,-0.435357,0.872178,0.23607
1630070111392,-0.435174,0.870958,0.236924
1630070111402,-0.433832,0.87108,0.23668
1630070111411,-0.434381,0.873459,0.234545
1630070111421,-0.434564,0.874618,0.232898
1630070111431,-0.434686,0.874435,0.233508
1630070111440,-0.435052,0.8708359999999999,0.234362
1630070111450,-0.435296,0.869677,0.234362
1630070111459,-0.434381,0.869494,0.235521
1630070111469,-0.433344,0.87108,0.236375
1630070111479,-0.432856,0.8723609999999999,0.238144
1630070111488,-0.433283,0.873032,0.237473
1630070111498,-0.432917,0.874069,0.237839
1630070111507,-0.43224599999999996,0.8738859999999999,0.23863199999999998
1630070111517,-0.432795,0.873154,0.238388
1630070111527,-0.432063,0.8720559999999999,0.23973
1630070111536,-0.432429,0.871263,0.238693
1630070111546,-0.433161,0.872117,0.238388
1630070111555,-0.433527,0.870714,0.237595
1630070111565,-0.43249,0.8711409999999999,0.237046
1630070111575,-0.432795,0.8717509999999999,0.237351
1630070111584,-0.432002,0.872422,0.236619
1630070111594,-0.432307,0.8720559999999999,0.237595
1630070111603,-0.431514,0.872422,0.237046
1630070111613,-0.432002,0.872788,0.238266
1630070111623,-0.432307,0.8723,0.238815
1630070111632,-0.430965,0.8723609999999999,0.239486
1630070111642,-0.431148,0.872544,0.239425
1630070111651,-0.431392,0.872178,0.240584
1630070111661,-0.431087,0.87291,0.241072
1630070111671,-0.430782,0.87291,0.240584
1630070111680,-0.43133099999999996,0.873032,0.240645
1630070111690,-0.430965,0.873398,0.241194
1630070111699,-0.430599,0.872605,0.239791
1630070111709,-0.430294,0.872483,0.240584
1630070111719,-0.430172,0.871873,0.23954699999999998
1630070111728,-0.428647,0.872422,0.240218
1630070111738,-0.42858599999999997,0.8714459999999999,0.24095
1630070111747,-0.428464,0.871629,0.241194
1630070111757,-0.427488,0.871385,0.241377
1630070111767,-0.42767099999999997,0.8714459999999999,0.241987
1630070111776,-0.428037,0.872483,0.24156
1630070111786,-0.428037,0.873093,0.241316
1630070111795,-0.428708,0.874618,0.24095
1630070111805,-0.429989,0.875472,0.241804
1630070111815,-0.429989,0.8741909999999999,0.241804
1630070111824,-0.429684,0.87291,0.24265799999999998
1630070111834,-0.429562,0.874008,0.241926
1630070111843,-0.430294,0.874862,0.240767
1630070111853,-0.430233,0.8760209999999999,0.238998
1630070111863,-0.430599,0.874435,0.238083
1630070111872,-0.43194099999999996,0.876387,0.237168
1630070111882,-0.432368,0.875655,0.236558
1630070111891,-0.433222,0.871812,0.237046
1630070111901,-0.432795,0.870714,0.237778
1630070111911,-0.431148,0.8720559999999999,0.239486
1630070111920,-0.42980599999999997,0.8738859999999999,0.240218
1630070111930,-0.428342,0.875533,0.240645
1630070111939,-0.42883,0.8748009999999999,0.24046199999999998
1630070111949,-0.428952,0.87352,0.240523
1630070111959,-0.42883,0.8717509999999999,0.239181
1630070111968,-0.429623,0.871202,0.238693
1630070111978,-0.430538,0.87108,0.239974
1630070111987,-0.429867,0.871507,0.23954699999999998
1630070111997,-0.430477,0.87291,0.239364
1630070112007,-0.431392,0.873215,0.23851
1630070112016,-0.431453,0.87413,0.238693
1630070112026,-0.43249,0.87535,0.238388
1630070112035,-0.432612,0.874008,0.237534
1630070112045,-0.43224599999999996,0.8732759999999999,0.237961
1630070112055,-0.43188,0.871324,0.237534
1630070112064,-0.431453,0.871263,0.23802199999999998
1630070112074,-0.432734,0.870348,0.237961
1630070112083,-0.432124,0.87047,0.23863199999999998
1630070112093,-0.432124,0.870653,0.236558
1630070112103,-0.433344,0.874008,0.235094
1630070112112,-0.433344,0.8769359999999999,0.233752
1630070112122,-0.43371,0.875289,0.232837
1630070112131,-0.433283,0.869372,0.23485
1630070112141,-0.433039,0.867359,0.235948
1630070112151,-0.432978,0.868701,0.23558199999999999
1630070112160,-0.432307,0.870592,0.237168
1630070112170,-0.431697,0.873215,0.23649699999999999
1630070112179,-0.430965,0.874008,0.2379
1630070112189,-0.430782,0.8732759999999999,0.238815
1630070112199,-0.42980599999999997,0.872239,0.239303
1630070112208,-0.429623,0.869372,0.24034
1630070112218,-0.430233,0.868457,0.242536
1630070112227,-0.430538,0.869738,0.24204799999999999
1630070112237,-0.431575,0.871019,0.24265799999999998
1630070112247,-0.433588,0.873154,0.241865
1630070112256,-0.434259,0.873703,0.242719
1630070112266,-0.435479,0.875472,0.243146
1630070112275,-0.435906,0.875472,0.244
1630070112285,-0.434747,0.8748009999999999,0.243817
1630070112295,-0.435174,0.87413,0.243817
1630070112304,-0.434503,0.8751059999999999,0.244122
1630070112314,-0.43541799999999997,0.874435,0.244732
1630070112323,-0.434686,0.873947,0.244305
1630070112333,-0.434076,0.87413,0.243024
1630070112343,-0.432734,0.872788,0.244305
1630070112352,-0.43249,0.872239,0.243817
1630070112362,-0.431758,0.870592,0.24235299999999999
1630070112371,-0.431514,0.869738,0.24143799999999999
1630070112381,-0.431148,0.870165,0.240828
1630070112391,-0.43041599999999997,0.870409,0.241011
1630070112400,-0.430965,0.87108,0.241255
1630070112410,-0.429867,0.8708359999999999,0.24046199999999998
1630070112419,-0.42980599999999997,0.869677,0.240889
1630070112429,-0.42980599999999997,0.869189,0.24095
1630070112439,-0.43011099999999997,0.868762,0.241194
1630070112448,-0.430904,0.869738,0.240828
1630070112458,-0.430843,0.869982,0.241926
1630070112467,-0.431514,0.87169,0.24034
1630070112477,-0.432063,0.873093,0.240279
1630070112487,-0.432734,0.872422,0.239608
1630070112496,-0.432734,0.872422,0.24015699999999998
1630070112506,-0.432978,0.874374,0.240218
1630070112515,-0.433527,0.874069,0.239364
1630070112525,-0.433405,0.871812,0.23851
1630070112535,-0.433039,0.873032,0.236558
1630070112544,-0.433893,0.876204,0.235094
1630070112554,-0.433344,0.8732759999999999,0.23424
1630070112563,-0.43249,0.867969,0.235643
1630070112573,-0.43102599999999996,0.864858,0.237351
1630070112583,-0.430355,0.867481,0.238754
1630070112592,-0.429318,0.871202,0.240706
1630070112602,-0.428525,0.873703,0.240279
1630070112611,-0.42883,0.8744959999999999,0.23954699999999998
1630070112621,-0.429623,0.874679,0.23924199999999998
1630070112631,-0.429623,0.873825,0.240218
1630070112640,-0.430599,0.871324,0.241377
1630070112650,-0.429928,0.87108,0.242902
1630070112659,-0.429989,0.8711409999999999,0.244305
1630070112669,-0.43133099999999996,0.871202,0.243146
1630070112679,-0.433283,0.872849,0.242719
1630070112688,-0.433039,0.8744959999999999,0.241621
1630070112698,-0.43432,0.874923,0.24015699999999998
1630070112707,-0.434686,0.874679,0.238388
1630070112717,-0.435052,0.8732759999999999,0.23832699999999998
1630070112727,-0.435479,0.872483,0.23680199999999998
1630070112736,-0.435967,0.872788,0.236253
1630070112746,-0.436821,0.873093,0.234728
1630070112755,-0.436699,0.872483,0.23558199999999999
1630070112765,-0.436455,0.8708359999999999,0.233874
1630070112775,-0.435906,0.871507,0.232532
1630070112784,-0.436699,0.874252,0.232044
1630070112794,-0.43602799999999997,0.874618,0.231983
1630070112803,-0.435784,0.872727,0.231068
1630070112813,-0.436394,0.869311,0.2318
1630070112823,-0.436211,0.868396,0.232288
1630070112832,-0.436516,0.86986,0.232654
1630070112842,-0.434991,0.871568,0.233264
1630070112851,-0.434564,0.873215,0.23247099999999998
1630070112861,-0.434686,0.872544,0.231434
1630070112871,-0.434381,0.87169,0.231617
1630070112880,-0.434015,0.872117,0.231373
1630070112890,-0.433649,0.8702259999999999,0.231922
1630070112899,-0.433649,0.8702259999999999,0.231617
1630070112909,-0.434381,0.869372,0.231373
1630070112919,-0.434137,0.871934,0.23094599999999998
1630070112928,-0.434686,0.8723,0.231007
1630070112938,-0.434747,0.87169,0.230275
1630070112947,-0.433954,0.8729709999999999,0.229848
1630070112957,-0.434991,0.872849,0.229299
1630070112967,-0.434808,0.87291,0.230519
1630070112976,-0.434137,0.873093,0.230275
1630070112986,-0.433222,0.873154,0.230885
1630070112995,-0.434625,0.873642,0.230275
1630070113005,-0.435174,0.8738859999999999,0.231007
1630070113015,-0.433832,0.8735809999999999,0.23125099999999998
1630070113024,-0.434503,0.873947,0.23186099999999998
1630070113034,-0.434198,0.873825,0.2318
1630070113043,-0.433771,0.873642,0.231678
1630070113053,-0.433405,0.874069,0.23186099999999998
1630070113063,-0.432917,0.873764,0.231068
1630070113072,-0.433527,0.873825,0.23125099999999998
1630070113082,-0.433527,0.873825,0.23125099999999998
1630070113091,-0.433588,0.873764,0.23094599999999998
1630070113101,-0.433344,0.873764,0.231373
1630070113111,-0.433649,0.8738859999999999,0.23302
1630070113120,-0.43255099999999996,0.87413,0.234423
1630070113130,-0.431758,0.874618,0.23485
1630070113139,-0.431392,0.875228,0.234789
1630070113149,-0.43066,0.8751059999999999,0.235704
1630070113159,-0.430538,0.875655,0.234789
1630070113168,-0.43041599999999997,0.874313,0.235094
1630070113178,-0.430233,0.873703,0.235155
1630070113187,-0.430904,0.8741909999999999,0.233325
1630070113197,-0.43194099999999996,0.873825,0.231922
1630070113207,-0.431575,0.872544,0.230153
1630070113216,-0.432612,0.875777,0.226554
1630070113226,-0.433588,0.877607,0.226188
1630070113235,-0.433283,0.876814,0.225456
1630070113245,-0.433222,0.87169,0.227042
1630070113255,-0.432917,0.86803,0.227652
1630070113264,-0.432063,0.869738,0.230214
1630070113274,-0.43163599999999996,0.8738859999999999,0.23125099999999998
1630070113283,-0.430904,0.875838,0.23186099999999998
1630070113293,-0.431209,0.877424,0.23119
1630070113303,-0.43127,0.877058,0.230702
1630070113312,-0.43133099999999996,0.875472,0.229482
1630070113322,-0.431209,0.87352,0.230763
1630070113331,-0.431209,0.871202,0.23155599999999998
1630070113341,-0.430172,0.869799,0.232959
1630070113351,-0.430782,0.870592,0.23247099999999998
1630070113360,-0.432124,0.8726659999999999,0.232593
1630070113370,-0.433466,0.874008,0.230397
1630070113379,-0.4331,0.875167,0.228384
1630070113389,-0.434686,0.875472,0.228872
1630070113399,-0.434564,0.874984,0.22813999999999998
1630070113408,-0.434869,0.874984,0.227286
1630070113418,-0.43493,0.874557,0.226188
1630070113427,-0.435296,0.873764,0.228079
1630070113437,-0.434991,0.873215,0.228384
1630070113447,-0.434198,0.871995,0.22936
1630070113456,-0.432856,0.873154,0.22875
1630070113466,-0.435357,0.875533,0.22813999999999998
1630070113475,-0.434686,0.8769359999999999,0.227469
1630070113485,-0.435784,0.874679,0.226249
1630070113495,-0.436211,0.871568,0.226737
1630070113504,-0.435845,0.87108,0.227286
1630070113514,-0.43615,0.873093,0.228262
1630070113523,-0.43602799999999997,0.873947,0.229116
1630070113533,-0.43572299999999997,0.874862,0.22936
1630070113543,-0.435906,0.875655,0.229238
1630070113552,-0.435906,0.875655,0.22997
1630070113562,-0.43572299999999997,0.874313,0.230458
1630070113571,-0.43554,0.872727,0.230275
1630070113581,-0.434747,0.872178,0.229909
1630070113591,-0.435174,0.87169,0.229482
1630070113600,-0.435601,0.8720559999999999,0.230092
1630070113610,-0.436211,0.87291,0.230214
1630070113619,-0.436455,0.87352,0.22875
1630070113629,-0.436699,0.872117,0.228323
1630070113639,-0.437126,0.872788,0.227957
1630070113648,-0.436272,0.873093,0.228994
1630070113658,-0.43633299999999997,0.872483,0.22936
1630070113667,-0.43541799999999997,0.873642,0.228994
1630070113677,-0.434869,0.8741909999999999,0.228872
1630070113687,-0.43493,0.87413,0.229848
1630070113696,-0.43371,0.875167,0.22972599999999999
1630070113706,-0.434198,0.8741909999999999,0.231068
1630070113715,-0.433161,0.873947,0.230824
1630070113725,-0.433161,0.8735809999999999,0.2318
1630070113735,-0.432673,0.872788,0.23186099999999998
1630070113744,-0.43224599999999996,0.873215,0.23125099999999998
1630070113754,-0.431514,0.873093,0.231678
1630070113763,-0.432429,0.871324,0.231434
1630070113773,-0.431758,0.8699209999999999,0.231434
1630070113783,-0.432368,0.870897,0.231922
1630070113792,-0.431697,0.873215,0.23247099999999998
1630070113802,-0.432124,0.874984,0.23241
1630070113811,-0.431758,0.874862,0.232898
1630070113821,-0.43133099999999996,0.874618,0.232532
1630070113831,-0.431392,0.87535,0.231922
1630070113840,-0.432612,0.875594,0.231434
1630070113850,-0.432002,0.8735809999999999,0.232288
1630070113859,-0.43224599999999996,0.873032,0.232654
1630070113869,-0.431758,0.8744959999999999,0.23155599999999998
1630070113879,-0.431758,0.8723609999999999,0.23119
1630070113888,-0.432002,0.871629,0.22942099999999999
1630070113898,-0.43249,0.874374,0.227652
1630070113907,-0.434198,0.87657,0.22661499999999998
1630070113917,-0.435235,0.875289,0.226676
1630070113927,-0.435296,0.86986,0.228811
1630070113936,-0.435479,0.868152,0.23033599999999999
1630070113946,-0.435662,0.870165,0.23155599999999998
1630070113955,-0.434503,0.874618,0.231434
1630070113965,-0.434564,0.877607,0.23155599999999998
1630070113975,-0.434564,0.877302,0.231068
1630070113984,-0.43541799999999997,0.876082,0.230458
1630070113994,-0.435174,0.8741909999999999,0.22972599999999999
1630070114003,-0.43572299999999997,0.871629,0.229604
1630070114013,-0.435784,0.869433,0.22972599999999999
1630070114023,-0.436394,0.867542,0.228994
1630070114032,-0.436882,0.868518,0.228079
1630070114042,-0.438224,0.8705309999999999,0.225883
1630070114051,-0.439566,0.872239,0.224236
1630070114061,-0.439261,0.874313,0.223748
1630070114071,-0.43968799999999997,0.8738859999999999,0.223504
1630070114080,-0.43999299999999997,0.874069,0.22447999999999999
1630070114090,-0.438834,0.8723609999999999,0.22539499999999998
1630070114099,-0.438712,0.87169,0.225639
1630070114109,-0.438834,0.871934,0.226249
1630070114119,-0.438529,0.870653,0.225944
1630070114128,-0.438895,0.871263,0.22569999999999998
1630070114138,-0.440054,0.874435,0.225212
1630070114147,-0.440542,0.875777,0.22326
1630070114157,-0.44103,0.873154,0.223321
1630070114167,-0.440969,0.870043,0.223992
1630070114176,-0.441335,0.869494,0.224419
1630070114186,-0.43981,0.870592,0.225578
1630070114195,-0.43968799999999997,0.871385,0.22630999999999998
1630070114205,-0.438834,0.8714459999999999,0.226981
1630070114215,-0.4392,0.872727,0.226432
1630070114224,-0.439444,0.874008,0.226981
1630070114234,-0.43981,0.872849,0.226737
1630070114243,-0.440176,0.8714459999999999,0.22569999999999998
1630070114253,-0.44042,0.869677,0.227042
1630070114263,-0.44060299999999997,0.8708359999999999,0.22661499999999998
1630070114272,-0.441396,0.871019,0.22569999999999998
1630070114282,-0.442189,0.871568,0.224968
1630070114291,-0.442006,0.8708359999999999,0.22478499999999998
1630070114301,-0.441762,0.86986,0.223931
1630070114311,-0.44164,0.869799,0.224968
1630070114320,-0.440542,0.868213,0.224724
1630070114330,-0.441152,0.869006,0.22722499999999998
1630070114339,-0.441396,0.869677,0.22752999999999998
1630070114349,-0.441274,0.872239,0.229299
1630070114359,-0.440786,0.87352,0.229848
1630070114368,-0.440359,0.873337,0.230763
1630070114378,-0.441762,0.8729709999999999,0.2318
1630070114387,-0.441396,0.871263,0.231373
1630070114397,-0.441945,0.871019,0.23058
1630070114407,-0.440359,0.871324,0.231007
1630070114416,-0.441152,0.870714,0.229909
1630070114426,-0.44103,0.871934,0.228994
1630070114435,-0.44151799999999997,0.871263,0.228323
1630070114445,-0.440786,0.870958,0.227957
1630070114455,-0.440664,0.871324,0.227591
1630070114464,-0.44042,0.870653,0.22783499999999998
1630070114474,-0.438895,0.870714,0.228262
1630070114483,-0.43877299999999997,0.872117,0.226798
1630070114493,-0.438834,0.870592,0.228262
1630070114503,-0.43755299999999997,0.868762,0.228262
1630070114512,-0.43755299999999997,0.869738,0.228018
1630070114522,-0.43737,0.87169,0.227164
1630070114531,-0.438224,0.874374,0.226371
1630070114541,-0.437614,0.874679,0.224846
1630070114551,-0.438712,0.875472,0.225456
1630070114560,-0.438651,0.876997,0.226554
1630070114570,-0.43846799999999997,0.8751059999999999,0.227408
1630070114579,-0.43694299999999997,0.870958,0.228689
1630070114589,-0.435784,0.870348,0.229604
1630070114599,-0.434198,0.872544,0.230214
1630070114608,-0.432917,0.8738859999999999,0.23064099999999998
1630070114618,-0.432002,0.8751059999999999,0.230092
1630070114627,-0.433588,0.875533,0.228994
1630070114637,-0.434076,0.8748009999999999,0.228384
1630070114647,-0.434381,0.873032,0.227957
1630070114656,-0.434076,0.871019,0.227408
1630070114666,-0.434686,0.868579,0.226798
1630070114675,-0.435052,0.869372,0.22752999999999998
1630070114685,-0.435906,0.871202,0.226859
1630070114695,-0.437126,0.8723,0.225212
1630070114704,-0.436394,0.8754109999999999,0.225212
1630070114714,-0.43572299999999997,0.875655,0.225578
1630070114723,-0.436516,0.874984,0.224968
1630070114733,-0.43633299999999997,0.87352,0.226798
1630070114743,-0.436577,0.872178,0.226554
1630070114752,-0.43676,0.87047,0.226493
1630070114762,-0.435845,0.8705309999999999,0.22691999999999998
1630070114771,-0.436089,0.871629,0.22569999999999998
1630070114781,-0.437614,0.875777,0.22539499999999998
1630070114791,-0.438712,0.878217,0.223321
1630070114800,-0.43785799999999997,0.8757159999999999,0.222894
1630070114810,-0.43859,0.870409,0.224236
1630070114819,-0.4392,0.86986,0.224968
1630070114829,-0.438041,0.870287,0.225212
1630070114839,-0.436821,0.87169,0.225578
1630070114848,-0.43724799999999997,0.87291,0.22722499999999998
1630070114858,-0.436882,0.875289,0.227042
1630070114867,-0.43676,0.874252,0.226493
1630070114877,-0.437187,0.874313,0.227652
1630070114887,-0.437492,0.87291,0.227408
1630070114896,-0.43737,0.871019,0.228079
1630070114906,-0.437187,0.870958,0.228567
1630070114915,-0.43663799999999997,0.8717509999999999,0.228079
1630070114925,-0.437919,0.873032,0.228018
1630070114935,-0.43859,0.874923,0.227164
1630070114944,-0.438285,0.8741909999999999,0.225212
1630070114954,-0.439749,0.874252,0.225456
1630070114963,-0.439627,0.875228,0.22691999999999998
1630070114973,-0.439627,0.875045,0.22661499999999998
1630070114983,-0.439322,0.872849,0.226859
1630070114992,-0.438956,0.873093,0.226859
1630070115002,-0.438651,0.873825,0.22661499999999998
1630070115011,-0.43907799999999997,0.8726659999999999,0.227469
1630070115021,-0.43938299999999997,0.87291,0.227652
1630070115031,-0.438956,0.872178,0.227774
1630070115040,-0.438651,0.870958,0.227652
1630070115050,-0.439139,0.869738,0.227164
1630070115059,-0.438529,0.868701,0.22722499999999998
1630070115069,-0.43846799999999997,0.868152,0.227164
1630070115079,-0.439505,0.869616,0.227042
1630070115088,-0.438712,0.870287,0.22813999999999998
1630070115098,-0.4392,0.872178,0.22813999999999998
1630070115107,-0.437797,0.871507,0.22844499999999998
1630070115117,-0.43798,0.872178,0.227896
1630070115127,-0.439627,0.8723609999999999,0.228506
1630070115136,-0.438712,0.870653,0.228567
1630070115146,-0.437736,0.868274,0.229299
1630070115155,-0.437797,0.870653,0.22942099999999999
1630070115165,-0.437309,0.872178,0.229177
1630070115175,-0.437126,0.871568,0.22783499999999998
1630070115184,-0.437675,0.872483,0.227286
1630070115194,-0.439261,0.876448,0.225517
1630070115203,-0.438712,0.8754109999999999,0.225334
1630070115213,-0.438712,0.868396,0.227591
1630070115223,-0.437736,0.865163,0.228933
1630070115232,-0.436516,0.866444,0.231983
1630070115242,-0.434259,0.870958,0.232715
1630070115251,-0.434869,0.87352,0.234057
1630070115261,-0.435052,0.874923,0.233752
1630070115271,-0.43554,0.875289,0.23369099999999998
1630070115280,-0.43602799999999997,0.87413,0.233874
1630070115290,-0.43602799999999997,0.871263,0.23399599999999998
1630070115299,-0.435967,0.869555,0.233752
1630070115309,-0.436516,0.86864,0.234423
1630070115319,-0.436394,0.8705309999999999,0.233813
1630070115328,-0.436699,0.8717509999999999,0.232044
1630070115338,-0.43724799999999997,0.874069,0.231678
1630070115347,-0.43859,0.8741909999999999,0.231434
1630070115357,-0.438285,0.873825,0.23064099999999998
1630070115367,-0.438102,0.87291,0.229909
1630070115376,-0.438285,0.871507,0.229665
1630070115386,-0.439139,0.871019,0.229238
1630070115395,-0.439505,0.8714459999999999,0.228384
1630070115405,-0.438834,0.8717509999999999,0.22875
1630070115415,-0.438529,0.870348,0.228384
1630070115424,-0.438651,0.8732759999999999,0.228384
1630070115434,-0.43968799999999997,0.875228,0.227286
1630070115443,-0.440542,0.874557,0.225334
1630070115453,-0.440481,0.869799,0.226371
1630070115463,-0.441884,0.867115,0.226432
1630070115472,-0.44212799999999997,0.868579,0.226066
1630070115482,-0.441274,0.870592,0.225944
1630070115491,-0.440481,0.872117,0.225456
1630070115501,-0.440969,0.870714,0.225761
1630070115511,-0.44060299999999997,0.869555,0.225212
1630070115520,-0.441274,0.868518,0.225273
1630070115530,-0.44225,0.868762,0.224907
1630070115539,-0.442799,0.869372,0.224419
1630070115549,-0.444446,0.870287,0.224846
1630070115559,-0.444141,0.869555,0.224053
1630070115568,-0.44456799999999996,0.869677,0.223199
1630070115578,-0.444507,0.868945,0.22143
1630070115587,-0.444385,0.867664,0.22082
1630070115597,-0.4453,0.867969,0.22045399999999998
1630070115607,-0.446154,0.869128,0.22082
1630070115616,-0.445788,0.869189,0.221308
1630070115626,-0.445971,0.869616,0.22143
1630070115635,-0.446459,0.869433,0.220637
1630070115645,-0.446398,0.8702259999999999,0.22082
1630070115655,-0.446398,0.870958,0.221247
1630070115664,-0.446459,0.8714459999999999,0.221308
1630070115674,-0.447374,0.871385,0.221308
1630070115683,-0.446764,0.871202,0.222345
1630070115693,-0.446337,0.871385,0.221552
1630070115703,-0.446764,0.869738,0.22265
1630070115712,-0.445544,0.86864,0.222101
1630070115722,-0.444812,0.86803,0.222467
1630070115731,-0.44456799999999996,0.865834,0.222406
1630070115741,-0.445178,0.867603,0.222223
1630070115751,-0.444934,0.867603,0.222345
1630070115760,-0.445361,0.86803,0.222955
1630070115770,-0.445605,0.869677,0.222711
1630070115779,-0.446764,0.868884,0.22143
1630070115789,-0.446642,0.868518,0.221491
1630070115799,-0.446581,0.866749,0.221552
1630070115808,-0.446215,0.869128,0.220942
1630070115818,-0.446642,0.868701,0.221125
1630070115827,-0.447374,0.866932,0.22082
1630070115837,-0.44834999999999997,0.868213,0.220332
1630070115847,-0.44956999999999997,0.872178,0.22014899999999998
1630070115856,-0.44987499999999997,0.8723609999999999,0.21984399999999998
1630070115866,-0.44926499999999997,0.868213,0.221552
1630070115875,-0.449326,0.863943,0.22447999999999999
1630070115885,-0.449143,0.862601,0.226188
1630070115895,-0.448106,0.864736,0.226676
1630070115904,-0.448289,0.867298,0.226432
1630070115914,-0.448411,0.869372,0.225822
1630070115923,-0.449143,0.8699209999999999,0.224419
1630070115933,-0.449204,0.869494,0.224358
1630070115943,-0.449021,0.86864,0.223992
1630070115952,-0.448106,0.867176,0.224846
1630070115962,-0.448533,0.864004,0.225151
1630070115971,-0.448472,0.862723,0.224358
1630070115981,-0.449326,0.864553,0.223748
1630070115991,-0.450363,0.864736,0.222589
1630070116000,-0.450058,0.865224,0.22075899999999998
1630070116010,-0.450668,0.8644919999999999,0.220088
1630070116019,-0.450729,0.86437,0.219722
1630070116029,-0.450973,0.86376,0.21984399999999998
1630070116039,-0.450973,0.86437,0.220271
1630070116048,-0.44956999999999997,0.865041,0.220393
1630070116058,-0.449692,0.86437,0.22167399999999998
1630070116067,-0.449387,0.86376,0.222955
1630070116077,-0.449326,0.86437,0.223016
1630070116087,-0.449997,0.867298,0.225029
1630070116096,-0.450241,0.869555,0.225578
1630070116106,-0.449082,0.869982,0.225944
1630070116115,-0.44987499999999997,0.869128,0.226981
1630070116125,-0.45109499999999997,0.868091,0.227652
1630070116135,-0.450302,0.868884,0.228811
1630070116144,-0.45048499999999997,0.86986,0.228567
1630070116154,-0.450973,0.871324,0.228628
1630070116163,-0.449936,0.870043,0.22844499999999998
1630070116173,-0.45017999999999997,0.868701,0.227713
1630070116183,-0.44987499999999997,0.869006,0.227469
1630070116192,-0.45017999999999997,0.867481,0.227164
1630070116202,-0.45017999999999997,0.86681,0.22722499999999998
1630070116211,-0.44987499999999997,0.865956,0.22752999999999998
1630070116221,-0.450851,0.867176,0.226066
1630070116231,-0.450424,0.867359,0.225944
1630070116240,-0.45139999999999997,0.867542,0.224236
1630070116250,-0.453047,0.869006,0.223748
1630070116259,-0.453413,0.86986,0.222589
1630070116269,-0.453169,0.86925,0.221552
1630070116279,-0.45353499999999997,0.869128,0.220637
1630070116288,-0.454023,0.867298,0.218685
1630070116298,-0.453047,0.867054,0.21801399999999999
1630070116307,-0.451949,0.8662,0.21831899999999999
1630070116317,-0.452437,0.866139,0.217892
1630070116327,-0.451522,0.866871,0.21838
1630070116336,-0.45048499999999997,0.866688,0.218502
1630070116346,-0.45048499999999997,0.866627,0.21862399999999999
1630070116355,-0.449753,0.866383,0.219051
1630070116365,-0.44865499999999997,0.866322,0.218502
1630070116375,-0.448777,0.866383,0.218258
1630070116384,-0.448472,0.865529,0.21862399999999999
1630070116394,-0.44804499999999997,0.866261,0.21801399999999999
1630070116403,-0.44743499999999997,0.865651,0.21831899999999999
1630070116413,-0.44591,0.866993,0.21801399999999999
1630070116423,-0.445666,0.86803,0.21770899999999999
1630070116432,-0.445178,0.868274,0.21862399999999999
1630070116442,-0.44304299999999996,0.86742,0.218685
1630070116451,-0.442494,0.86803,0.218441
1630070116461,-0.443226,0.868518,0.2196
1630070116471,-0.444202,0.867969,0.218746
1630070116480,-0.443897,0.869799,0.218258
1630070116490,-0.445056,0.871324,0.217404
1630070116499,-0.446764,0.8723609999999999,0.21490299999999998
1630070116509,-0.44652,0.874374,0.213744
1630070116519,-0.447313,0.8760209999999999,0.212707
1630070116528,-0.447313,0.874862,0.21246299999999999
1630070116538,-0.447313,0.870348,0.21368299999999998
1630070116547,-0.445178,0.867542,0.21581799999999998
1630070116557,-0.445361,0.868396,0.217648
1630070116567,-0.444873,0.87108,0.217343
1630070116576,-0.445544,0.8723609999999999,0.217831
1630070116586,-0.44591,0.872422,0.217587
1630070116595,-0.444751,0.872544,0.21594
1630070116605,-0.444446,0.8705309999999999,0.216855
1630070116615,-0.444812,0.868762,0.21716
1630070116624,-0.4453,0.865041,0.217343
1630070116634,-0.445544,0.864248,0.217831
1630070116643,-0.44682499999999997,0.86559,0.216367
1630070116653,-0.448106,0.867725,0.217282
1630070116663,-0.448777,0.870653,0.215696
1630070116672,-0.450973,0.871385,0.215452
1630070116682,-0.451766,0.870775,0.215025
1630070116691,-0.451766,0.868518,0.215635
1630070116701,-0.451949,0.868091,0.21551299999999998
1630070116711,-0.452437,0.868762,0.214171
1630070116720,-0.452132,0.867786,0.21337799999999998
1630070116730,-0.451156,0.866627,0.215086
1630070116739,-0.450058,0.868091,0.213866
1630070116749,-0.451949,0.869677,0.214537
1630070116759,-0.45353499999999997,0.87169,0.212707
1630070116768,-0.453352,0.869555,0.213561
1630070116778,-0.453474,0.868945,0.215147
1630070116787,-0.453108,0.86925,0.215574
1630070116797,-0.453352,0.869433,0.21594
1630070116807,-0.453657,0.871812,0.216306
1630070116816,-0.456097,0.874252,0.215574
1630070116826,-0.456097,0.8763259999999999,0.213866
1630070116835,-0.456829,0.877973,0.21307299999999998
1630070116845,-0.455487,0.873764,0.211304
1630070116855,-0.454023,0.868335,0.211121
1630070116864,-0.451766,0.864553,0.212402
1630070116874,-0.450912,0.862235,0.21533
1630070116883,-0.456463,0.850401,0.221735
1630070116893,-0.445605,0.854183,0.216855
1630070116903,-0.444446,0.856501,0.22082
1630070116912,-0.44334799999999996,0.861686,0.216062
1630070116922,-0.44591,0.864004,0.211975
1630070116931,-0.44895999999999997,0.86864,0.211426
1630070116941,-0.449082,0.870592,0.211609
1630070116951,-0.448716,0.870043,0.21228
1630070116960,-0.45109499999999997,0.869616,0.218563
1630070116970,-0.452254,0.869006,0.216733
1630070116979,-0.453596,0.868945,0.216428
1630070116989,-0.453169,0.868762,0.216489
1630070116999,-0.455304,0.869006,0.21655
1630070117008,-0.45627999999999996,0.87047,0.215147
1630070117018,-0.455548,0.869311,0.21551299999999998
1630070117027,-0.456768,0.866993,0.214659
1630070117037,-0.4575,0.867054,0.219722
1630070117047,-0.459086,0.86681,0.21838
1630070117056,-0.458964,0.865224,0.22106399999999998
1630070117066,-0.45811,0.862418,0.221552
1630070117075,-0.458537,0.863211,0.221796
1630070117085,-0.458964,0.861686,0.220942
1630070117095,-0.45945199999999997,0.862479,0.220576
1630070117104,-0.45975699999999997,0.865041,0.220027
1630070117114,-0.459391,0.8647969999999999,0.22075899999999998
1630070117123,-0.460184,0.862418,0.221857
1630070117133,-0.461648,0.8644919999999999,0.219722
1630070117143,-0.462136,0.86315,0.22136899999999998
1630070117152,-0.462441,0.861259,0.223443
1630070117162,-0.464576,0.8632719999999999,0.22356499999999999
1630070117171,-0.465796,0.86864,0.222894
1630070117181,-0.466406,0.869738,0.22106399999999998
1630070117191,-0.46494199999999997,0.865407,0.220698
1630070117200,-0.46299,0.86254,0.220881
1630070117210,-0.462868,0.861686,0.22204
1630070117219,-0.461465,0.860893,0.221552
1630070117229,-0.460001,0.8601,0.221918
1630070117239,-0.459818,0.8614419999999999,0.22197899999999998
1630070117248,-0.458781,0.860466,0.22106399999999998
1630070117258,-0.456097,0.8599169999999999,0.218685
1630070117267,-0.455548,0.8608319999999999,0.21923399999999998
1630070117277,-0.45322999999999997,0.861869,0.220271
1630070117287,-0.45139999999999997,0.865529,0.220088
1630070117296,-0.453474,0.868884,0.22075899999999998
1630070117306,-0.45383999999999997,0.871873,0.22014899999999998
1630070117315,-0.454938,0.873093,0.220027
1630070117325,-0.453596,0.873459,0.219966
1630070117335,-0.453291,0.8729709999999999,0.218746
1630070117344,-0.451949,0.871812,0.217587
1630070117354,-0.45078999999999997,0.869616,0.216794
1630070117363,-0.449753,0.868396,0.218136
1630070117373,-0.447191,0.868091,0.219661
1630070117383,-0.445239,0.867908,0.22204
1630070117392,-0.442921,0.866932,0.222772
1630070117402,-0.441701,0.869006,0.224602
1630070117411,-0.440054,0.868884,0.22417499999999999
1630070117421,-0.437736,0.867786,0.226676
1630070117431,-0.43724799999999997,0.865956,0.227896
1630070117440,-0.436821,0.863638,0.229116
1630070117450,-0.43877299999999997,0.8635769999999999,0.23033599999999999
1630070117459,-0.437004,0.86437,0.229787
1630070117469,-0.434076,0.862723,0.22844499999999998
1630070117479,-0.432978,0.862784,0.225151
1630070117488,-0.432002,0.862723,0.223687
1630070117498,-0.429074,0.862601,0.221796
1630070117507,-0.42950099999999997,0.85827,0.222955
1630070117517,-0.431514,0.855403,0.223748
1630070117527,-0.434137,0.856013,0.225334
1630070117536,-0.43785799999999997,0.858514,0.228567
1630070117546,-0.43859,0.860405,0.228262
1630070117555,-0.440237,0.860954,0.228689
1630070117565,-0.442616,0.862845,0.232227
1630070117575,-0.447557,0.866444,0.231495
1630070117584,-0.450607,0.867969,0.231495
1630070117594,-0.453047,0.869616,0.231068
1630070117603,-0.456219,0.872239,0.230763
1630070117613,-0.457073,0.8757159999999999,0.230275
1630070117623,-0.460916,0.878095,0.228201
1630070117632,-0.461404,0.88145,0.225761
1630070117642,-0.461038,0.88267,0.225151
1630070117651,-0.46097699999999997,0.883707,0.223382
1630070117661,-0.458781,0.881145,0.223626
1630070117671,-0.458415,0.8769359999999999,0.222589
1630070117680,-0.458476,0.876204,0.222894
1630070117690,-0.457012,0.874679,0.223382
1630070117699,-0.454389,0.8723,0.223199
1630070117709,-0.452559,0.870775,0.223931
1630070117719,-0.450973,0.873642,0.223138
1630070117728,-0.448899,0.874679,0.221491
1630070117738,-0.445178,0.874008,0.219722
1630070117747,-0.442921,0.872605,0.218563
1630070117757,-0.44286,0.874008,0.216306
1630070117767,-0.44151799999999997,0.873154,0.21307299999999998
1630070117776,-0.43846799999999997,0.871019,0.20996199999999998
1630070117786,-0.436211,0.868762,0.207339
1630070117795,-0.43432,0.868701,0.206241
1630070117805,-0.434808,0.868457,0.205448
1630070117815,-0.437187,0.8708359999999999,0.20630199999999999
1630070117824,-0.43938299999999997,0.873337,0.207949
1630070117834,-0.442494,0.877912,0.20874199999999998
1630070117843,-0.445117,0.884744,0.209291
1630070117853,-0.443592,0.88389,0.208193
1630070117863,-0.442067,0.881328,0.205387
1630070117872,-0.44060299999999997,0.8760209999999999,0.202215
1630070117882,-0.439871,0.87047,0.198372
1630070117891,-0.43981,0.8651019999999999,0.197274
1630070117901,-0.44060299999999997,0.864065,0.199592
1630070117911,-0.44121299999999997,0.8629669999999999,0.202642
1630070117920,-0.442555,0.86376,0.206546
1630070117930,-0.44273799999999996,0.86742,0.210816
1630070117939,-0.44304299999999996,0.869433,0.213439
1630070117949,-0.44225,0.870409,0.21533
1630070117959,-0.440176,0.868762,0.216672
1630070117968,-0.44029799999999997,0.864858,0.217404
1630070117978,-0.440359,0.864309,0.219295
1630070117987,-0.440054,0.863089,0.21984399999999998
1630070117997,-0.44029799999999997,0.8614419999999999,0.221003
1630070118007,-0.44164,0.86132,0.222955
1630070118016,-0.443104,0.86376,0.222467
1630070118026,-0.445788,0.867603,0.223748
1630070118035,-0.44682499999999997,0.871385,0.222772
1630070118045,-0.448716,0.871324,0.222711
1630070118055,-0.450668,0.869372,0.22265
1630070118064,-0.45139999999999997,0.868213,0.221552
1630070118074,-0.451949,0.868091,0.22106399999999998
1630070118083,-0.452193,0.870897,0.21831899999999999
1630070118093,-0.45414499999999997,0.8738859999999999,0.217831
1630070118103,-0.455304,0.874984,0.215574
1630070118112,-0.455304,0.876204,0.214537
1630070118122,-0.455304,0.875472,0.21289
1630070118131,-0.455914,0.875228,0.211609
1630070118141,-0.456158,0.874069,0.210816
1630070118151,-0.45688999999999996,0.8738859999999999,0.209291
1630070118160,-0.456829,0.872483,0.207095
1630070118170,-0.45688999999999996,0.871263,0.205143
1630070118179,-0.456768,0.870348,0.20349599999999998
1630070118189,-0.454877,0.869738,0.20258099999999998
1630070118199,-0.45444999999999997,0.870287,0.202093
1630070118208,-0.455121,0.8723,0.202398
1630070118218,-0.452498,0.8729709999999999,0.203313
1630070118227,-0.451888,0.871995,0.204777
1630070118237,-0.451583,0.87169,0.206424
1630070118247,-0.450546,0.870714,0.206424
1630070118256,-0.44834999999999997,0.868274,0.208193
1630070118266,-0.448777,0.866505,0.209108
1630070118275,-0.44773999999999997,0.865041,0.20935199999999998
1630070118285,-0.446703,0.864004,0.210267
1630070118295,-0.44652,0.864553,0.210206
1630070118304,-0.447679,0.865285,0.21185299999999999
1630070118314,-0.447069,0.866566,0.212646
1630070118323,-0.448472,0.867542,0.212219
1630070118333,-0.449814,0.866993,0.212341
1630070118343,-0.450607,0.865712,0.212646
1630070118352,-0.451278,0.866505,0.21276799999999998
1630070118362,-0.45231499999999997,0.867176,0.21154799999999999
1630070118371,-0.453352,0.864553,0.21106
1630070118381,-0.453779,0.864065,0.20935199999999998
1630070118391,-0.455182,0.864919,0.209779
1630070118400,-0.45597499999999996,0.866383,0.209596
1630070118410,-0.457317,0.864919,0.21167
1630070118419,-0.45811,0.862784,0.21411
1630070118429,-0.457439,0.86254,0.217099
1630070118439,-0.45597499999999996,0.8641869999999999,0.218502
1630070118448,-0.454206,0.867176,0.219417
1630070118458,-0.454328,0.868274,0.21984399999999998
1630070118467,-0.454389,0.868579,0.219478
1630070118477,-0.455426,0.867664,0.22014899999999998
1630070118487,-0.457195,0.865346,0.219905
1630070118496,-0.455792,0.863455,0.22075899999999998
1630070118506,-0.45536499999999996,0.862906,0.222223
1630070118515,-0.456158,0.864004,0.221613
1630070118525,-0.455121,0.866322,0.22197899999999998
1630070118535,-0.454328,0.867847,0.221552
1630070118544,-0.453596,0.86742,0.221186
1630070118554,-0.45353499999999997,0.867908,0.221491
1630070118563,-0.454267,0.868274,0.221247
1630070118573,-0.453962,0.867054,0.22082
1630070118583,-0.45414499999999997,0.867115,0.220576
1630070118592,-0.454938,0.868274,0.21984399999999998
1630070118602,-0.454816,0.867847,0.21923399999999998
1630070118611,-0.45383999999999997,0.868884,0.217221
1630070118621,-0.455731,0.870409,0.215879
1630070118631,-0.455731,0.872178,0.215025
1630070118640,-0.456463,0.871995,0.213012
1630070118650,-0.455792,0.86803,0.211792
1630070118659,-0.456097,0.865468,0.211365
1630070118669,-0.457012,0.8651019999999999,0.21185299999999999
1630070118679,-0.455426,0.865041,0.21215799999999999
1630070118688,-0.454877,0.865712,0.212036
1630070118698,-0.454572,0.865895,0.21215799999999999
1630070118707,-0.45444999999999997,0.866383,0.210877
1630070118717,-0.454938,0.865956,0.211182
1630070118727,-0.455182,0.866566,0.21106
1630070118736,-0.454877,0.866688,0.21215799999999999
1630070118746,-0.45566999999999996,0.867847,0.21154799999999999
1630070118755,-0.456097,0.867725,0.210694
1630070118765,-0.456158,0.867908,0.20874199999999998
1630070118775,-0.45536499999999996,0.866261,0.208925
1630070118784,-0.454694,0.865346,0.208254
1630070118794,-0.453901,0.864858,0.207339
1630070118803,-0.454267,0.864065,0.206119
1630070118813,-0.45414499999999997,0.862906,0.205509
1630070118823,-0.454389,0.8638819999999999,0.205936
1630070118832,-0.455304,0.8644919999999999,0.207034
1630070118842,-0.45444999999999997,0.866261,0.207034
1630070118851,-0.455121,0.866688,0.208681
1630070118861,-0.456036,0.866261,0.207949
1630070118871,-0.456402,0.865346,0.207461
1630070118880,-0.456829,0.864248,0.207339
1630070118890,-0.4575,0.864126,0.207156
1630070118899,-0.457134,0.865651,0.207278
1630070118909,-0.45688999999999996,0.866505,0.20691199999999998
1630070118919,-0.45597499999999996,0.865773,0.20801
1630070118928,-0.456463,0.86681,0.20691199999999998
1630070118938,-0.457378,0.867176,0.207644
1630070118947,-0.457317,0.865346,0.207888
1630070118957,-0.457927,0.866993,0.206973
1630070118967,-0.457988,0.8662,0.206668
1630070118976,-0.45933,0.865163,0.205326
1630070118986,-0.460123,0.86559,0.203435
1630070118995,-0.46177,0.869189,0.202642
1630070119005,-0.46280699999999997,0.870897,0.201727
1630070119015,-0.463234,0.86681,0.201544
1630070119024,-0.461404,0.861808,0.203984
1630070119034,-0.461465,0.860771,0.205631
1630070119043,-0.46055,0.86315,0.207644
1630070119053,-0.458232,0.867542,0.207705
1630070119063,-0.457683,0.870043,0.207705
1630070119072,-0.458964,0.870165,0.207766
1630070119082,-0.459025,0.867603,0.207888
1630070119091,-0.458781,0.8651019999999999,0.209474
1630070119101,-0.459391,0.861869,0.210572
1630070119111,-0.45884199999999997,0.859429,0.21154799999999999
1630070119120,-0.45914699999999997,0.858148,0.212951
1630070119130,-0.459574,0.859246,0.21289
1630070119139,-0.460306,0.8620519999999999,0.212585
1630070119149,-0.460794,0.8635769999999999,0.211914
1630070119159,-0.462075,0.864309,0.211365
1630070119168,-0.462441,0.8651019999999999,0.20965699999999998
1630070119178,-0.464271,0.864736,0.209779
1630070119187,-0.465064,0.864675,0.210328
1630070119197,-0.46604,0.864309,0.21106
1630070119207,-0.46585699999999997,0.864248,0.212036
1630070119216,-0.46524699999999997,0.862601,0.211182
1630070119226,-0.464149,0.862906,0.210877
1630070119235,-0.465491,0.866078,0.210145
1630070119245,-0.465369,0.867847,0.209474
1630070119255,-0.465186,0.8644919999999999,0.209291
1630070119264,-0.465308,0.859795,0.210938
1630070119274,-0.464515,0.857111,0.211731
1630070119283,-0.46463699999999997,0.8583919999999999,0.21246299999999999
1630070119293,-0.46311199999999997,0.858941,0.213317
1630070119303,-0.462868,0.860649,0.214659
1630070119312,-0.46280699999999997,0.86132,0.215574
1630070119322,-0.461526,0.861503,0.216184
1630070119331,-0.46177,0.8601,0.218197
1630070119341,-0.462136,0.859978,0.218807
1630070119351,-0.46219699999999997,0.858941,0.21984399999999998
1630070119360,-0.463234,0.85949,0.219905
1630070119370,-0.462746,0.860344,0.219112
1630070119379,-0.46341699999999997,0.861076,0.218868
1630070119389,-0.463966,0.861991,0.218807
1630070119399,-0.46433199999999997,0.8620519999999999,0.219173
1630070119408,-0.464576,0.86254,0.219783
1630070119418,-0.464576,0.8623569999999999,0.220271
1630070119427,-0.46421,0.861808,0.220637
1630070119437,-0.463905,0.86132,0.21984399999999998
1630070119447,-0.464271,0.861564,0.21892899999999998
1630070119456,-0.46421,0.86193,0.218746
1630070119466,-0.46311199999999997,0.861015,0.21770899999999999
1630070119475,-0.463539,0.8611369999999999,0.217953
1630070119485,-0.463356,0.8605269999999999,0.21801399999999999
1630070119495,-0.46299,0.8605269999999999,0.21770899999999999
1630070119504,-0.46280699999999997,0.860466,0.21899
1630070119514,-0.461099,0.8611369999999999,0.219417
1630070119523,-0.461953,0.861015,0.220027
1630070119533,-0.460733,0.860771,0.220332
1630070119543,-0.46219699999999997,0.8623569999999999,0.219051
1630070119552,-0.46311199999999997,0.860344,0.21953899999999998
1630070119562,-0.46177,0.859429,0.219661
1630070119571,-0.46177,0.8602219999999999,0.219112
1630070119581,-0.460916,0.86071,0.21892899999999998
1630070119591,-0.461038,0.861686,0.217038
1630070119600,-0.46238,0.862723,0.215635
1630070119610,-0.46311199999999997,0.865041,0.21533
1630070119619,-0.462929,0.863333,0.216062
1630070119629,-0.462014,0.858575,0.217831
1630070119639,-0.460184,0.8568669999999999,0.219173
1630070119648,-0.459269,0.85949,0.220088
1630070119658,-0.457744,0.863394,0.221247
1630070119667,-0.457439,0.866078,0.22136899999999998
1630070119677,-0.457439,0.865163,0.221552
1630070119687,-0.458476,0.8647969999999999,0.220881
1630070119696,-0.459086,0.863516,0.220576
1630070119706,-0.458903,0.861686,0.21984399999999998
1630070119715,-0.458537,0.859551,0.218563
1630070119725,-0.45933,0.8601,0.217038
1630070119735,-0.45945199999999997,0.8601,0.216001
1630070119744,-0.458171,0.861503,0.216001
1630070119754,-0.457683,0.861381,0.21594
1630070119763,-0.457744,0.861625,0.21594
1630070119773,-0.458171,0.861991,0.216489
1630070119783,-0.458598,0.86315,0.217831
1630070119792,-0.458537,0.864553,0.218685
1630070119802,-0.45945199999999997,0.864675,0.219112
1630070119811,-0.460001,0.865163,0.219051
1630070119821,-0.45994,0.864309,0.220393
1630070119831,-0.459208,0.863516,0.21899
1630070119840,-0.45994,0.8662,0.218502
1630070119850,-0.461831,0.868213,0.217892
1630070119859,-0.462136,0.868396,0.215635
1630070119869,-0.46177,0.863699,0.21581799999999998
1630070119879,-0.461709,0.8614419999999999,0.216428
1630070119888,-0.460794,0.8635769999999999,0.216611
1630070119898,-0.46036699999999997,0.865529,0.215879
1630070119907,-0.45914699999999997,0.866749,0.216306
1630070119917,-0.458903,0.865895,0.215879
1630070119927,-0.459269,0.864858,0.215757
1630070119936,-0.457744,0.862723,0.215147
1630070119946,-0.458659,0.861076,0.21551299999999998
1630070119955,-0.457805,0.8596119999999999,0.214781
1630070119965,-0.457561,0.859856,0.214354
1630070119975,-0.458171,0.861381,0.21472
1630070119984,-0.459269,0.8626619999999999,0.213622
1630070119994,-0.45933,0.8632719999999999,0.21289
1630070120003,-0.459391,0.86376,0.21215799999999999
1630070120013,-0.460123,0.86315,0.21185299999999999
1630070120023,-0.46036699999999997,0.8632719999999999,0.21228
1630070120032,-0.459635,0.8635769999999999,0.2135
1630070120042,-0.46055,0.863455,0.214049
1630070120051,-0.46067199999999997,0.863821,0.213256
1630070120061,-0.460428,0.86376,0.212829
1630070120071,-0.461038,0.864004,0.21429299999999998
1630070120080,-0.45975699999999997,0.863333,0.21520799999999998
1630070120090,-0.459696,0.862296,0.215879
1630070120099,-0.458964,0.86071,0.217038
1630070120109,-0.458781,0.8611369999999999,0.217343
1630070120119,-0.458476,0.861381,0.217465
1630070120128,-0.458415,0.8632719999999999,0.218807
1630070120138,-0.458171,0.8641869999999999,0.217648
1630070120147,-0.45811,0.8651019999999999,0.217221
1630070120157,-0.458903,0.864614,0.217526
1630070120167,-0.459879,0.8638819999999999,0.217831
1630070120176,-0.457561,0.862418,0.217221
1630070120186,-0.457744,0.863333,0.217038
1630070120195,-0.45872,0.865407,0.216001
1630070120205,-0.45933,0.865773,0.213561
1630070120215,-0.460184,0.8641869999999999,0.211792
1630070120224,-0.460733,0.86681,0.210816
1630070120234,-0.462136,0.865956,0.210206
1630070120243,-0.463173,0.8614419999999999,0.21276799999999998
1630070120253,-0.46128199999999997,0.8596119999999999,0.214232
1630070120263,-0.459269,0.863211,0.214537
1630070120272,-0.459269,0.866383,0.216733
1630070120282,-0.457744,0.867786,0.216306
1630070120291,-0.457256,0.866566,0.216489
1630070120301,-0.456829,0.863089,0.216306
1630070120311,-0.456951,0.86132,0.216062
1630070120320,-0.457927,0.8605269999999999,0.215757
1630070120330,-0.458537,0.8601,0.216184
1630070120339,-0.458964,0.861869,0.216733
1630070120349,-0.458476,0.8635769999999999,0.216733
1630070120359,-0.459086,0.8641869999999999,0.21594
1630070120368,-0.45933,0.865224,0.21520799999999998
1630070120378,-0.45933,0.8651019999999999,0.214842
1630070120387,-0.46067199999999997,0.864614,0.213805
1630070120397,-0.460245,0.863028,0.21472
1630070120407,-0.46036699999999997,0.862418,0.212951
1630070120416,-0.461221,0.861869,0.211609
1630070120426,-0.461526,0.863455,0.21167
1630070120435,-0.46128199999999997,0.863211,0.212524
1630070120445,-0.460428,0.8611369999999999,0.211121
1630070120455,-0.460428,0.862418,0.20984
1630070120464,-0.460489,0.866017,0.209535
1630070120474,-0.46158699999999997,0.868701,0.208681
1630070120483,-0.462258,0.863455,0.209291
1630070120493,-0.462746,0.85827,0.209901
1630070120503,-0.462014,0.8583919999999999,0.21045
1630070120512,-0.461953,0.861808,0.211243
1630070120522,-0.461831,0.864248,0.212036
1630070120531,-0.46299,0.865346,0.210938
1630070120541,-0.462136,0.866017,0.211182
1630070120551,-0.461221,0.865529,0.212036
1630070120560,-0.461343,0.864858,0.212036
1630070120570,-0.461038,0.862906,0.212829
1630070120579,-0.459635,0.861015,0.21337799999999998
1630070120589,-0.460245,0.861259,0.214537
1630070120599,-0.460611,0.861808,0.213317
1630070120608,-0.46116,0.86376,0.212097
1630070120618,-0.46158699999999997,0.864431,0.212097
1630070120627,-0.461831,0.864553,0.211975
1630070120637,-0.462258,0.864675,0.21228
1630070120647,-0.46158699999999997,0.864126,0.21289
1630070120656,-0.461221,0.863211,0.21459799999999998
1630070120666,-0.461099,0.86376,0.215696
1630070120675,-0.46116,0.863089,0.217221
1630070120685,-0.462136,0.864614,0.216855
1630070120695,-0.46219699999999997,0.864919,0.217465
1630070120704,-0.462929,0.8647969999999999,0.216794
1630070120714,-0.462868,0.864126,0.21612299999999998
1630070120723,-0.462258,0.862418,0.21612299999999998
1630070120733,-0.461526,0.8601,0.216916
1630070120743,-0.46250199999999997,0.86132,0.216794
1630070120752,-0.462014,0.860954,0.216733
1630070120762,-0.46189199999999997,0.862601,0.216367
1630070120771,-0.461526,0.863089,0.21581799999999998
1630070120781,-0.460855,0.862418,0.215574
1630070120791,-0.462136,0.862418,0.214476
1630070120800,-0.462075,0.8617469999999999,0.2135
1630070120810,-0.461221,0.858575,0.213805
1630070120819,-0.460794,0.858331,0.213561
1630070120829,-0.461465,0.861991,0.21307299999999998
1630070120839,-0.461831,0.861869,0.211365
1630070120848,-0.462868,0.863455,0.209596
1630070120858,-0.46433199999999997,0.868457,0.207339
1630070120867,-0.465064,0.869189,0.207034
1630070120877,-0.46463699999999997,0.8617469999999999,0.20813199999999998
1630070120887,-0.463661,0.854305,0.20965699999999998
1630070120896,-0.463661,0.854488,0.210999
1630070120906,-0.462624,0.858453,0.211182
1630070120915,-0.461648,0.862784,0.21215799999999999
1630070120925,-0.462685,0.863211,0.21215799999999999
1630070120935,-0.461831,0.862174,0.210633
1630070120944,-0.461709,0.860649,0.210206
1630070120954,-0.462014,0.859734,0.210206
1630070120963,-0.461404,0.8593069999999999,0.211426
1630070120973,-0.463051,0.859368,0.212219
1630070120983,-0.462868,0.8611369999999999,0.21167
1630070120992,-0.46341699999999997,0.8635769999999999,0.211731
1630070121002,-0.46402699999999997,0.864858,0.211426
1630070121011,-0.463356,0.865834,0.21045
1630070121021,-0.465125,0.865285,0.211365
1630070121031,-0.465003,0.863394,0.211914
1630070121040,-0.465186,0.862174,0.210633
1630070121050,-0.465064,0.862296,0.210084
1630070121059,-0.465186,0.8632719999999999,0.210145
1630070121069,-0.46524699999999997,0.86437,0.210999
1630070121079,-0.465064,0.863699,0.210755
1630070121088,-0.46482,0.862601,0.212951
1630070121098,-0.46463699999999997,0.862906,0.211792
1630070121107,-0.465064,0.865346,0.212585
1630070121117,-0.46646699999999996,0.865651,0.210816
1630070121127,-0.46555199999999997,0.864004,0.210023
1630070121136,-0.46543,0.861564,0.209169
1630070121146,-0.465674,0.861686,0.209108
1630070121155,-0.465674,0.862601,0.20904699999999998
1630070121165,-0.465979,0.863699,0.208071
1630070121175,-0.465491,0.864004,0.207705
1630070121184,-0.465003,0.864736,0.206668
1630070121194,-0.464149,0.864309,0.20630199999999999
1630070121203,-0.46372199999999997,0.861869,0.206485
1630070121213,-0.46372199999999997,0.860649,0.20679
1630070121223,-0.4636,0.859795,0.207034
1630070121232,-0.463173,0.858941,0.206851
1630070121242,-0.46341699999999997,0.858819,0.20660699999999999
1630070121251,-0.46402699999999997,0.860466,0.206485
1630070121261,-0.46482,0.861381,0.205936
1630070121271,-0.46482,0.861564,0.205021
1630070121280,-0.464576,0.8608319999999999,0.206424
1630070121290,-0.465003,0.860771,0.207583
1630070121299,-0.464576,0.860405,0.207888
1630070121309,-0.464271,0.860039,0.208681
1630070121319,-0.464759,0.860344,0.210694
1630070121328,-0.463356,0.861625,0.210389
1630070121338,-0.46421,0.861381,0.21106
1630070121347,-0.464698,0.860771,0.211304
1630070121357,-0.46494199999999997,0.8614419999999999,0.211426
1630070121367,-0.46524699999999997,0.8620519999999999,0.211609
1630070121376,-0.464759,0.861686,0.21154799999999999
1630070121386,-0.464271,0.860405,0.211731
1630070121395,-0.464271,0.859246,0.21246299999999999
1630070121405,-0.465064,0.8586969999999999,0.21185299999999999
1630070121415,-0.464576,0.859429,0.212524
1630070121424,-0.465064,0.861076,0.21167
1630070121434,-0.46463699999999997,0.861198,0.212097
1630070121443,-0.46463699999999997,0.862235,0.213195
1630070121453,-0.46421,0.862479,0.211304
1630070121463,-0.464759,0.862113,0.211792
1630070121472,-0.46463699999999997,0.863089,0.21154799999999999
1630070121482,-0.464149,0.8620519999999999,0.212097
1630070121491,-0.464515,0.862174,0.213256
1630070121501,-0.463966,0.862296,0.213134
1630070121511,-0.464881,0.862235,0.21167
1630070121520,-0.465613,0.8651019999999999,0.210938
1630070121530,-0.465369,0.867481,0.20965699999999998
1630070121539,-0.465003,0.865712,0.209596
1630070121549,-0.464393,0.859795,0.211426
1630070121559,-0.4636,0.85644,0.212707
1630070121568,-0.46238,0.857111,0.213866
1630070121578,-0.46250199999999997,0.8611369999999999,0.213439
1630070121587,-0.462136,0.8651019999999999,0.214842
1630070121597,-0.462136,0.866322,0.2135
1630070121607,-0.461709,0.866017,0.212585
1630070121616,-0.461953,0.863943,0.212341
1630070121626,-0.46067199999999997,0.862113,0.21307299999999998
1630070121635,-0.46280699999999997,0.860161,0.214049
1630070121645,-0.46177,0.858941,0.21368299999999998
1630070121655,-0.462258,0.8602219999999999,0.212646
1630070121664,-0.462685,0.8620519999999999,0.21167
1630070121674,-0.462441,0.863516,0.20984
1630070121683,-0.463783,0.863943,0.207888
1630070121693,-0.464088,0.863333,0.207583
1630070121703,-0.46433199999999997,0.8635769999999999,0.20801
1630070121712,-0.46421,0.863028,0.20752199999999998
1630070121722,-0.4636,0.8623569999999999,0.207034
1630070121731,-0.464271,0.8620519999999999,0.206363
1630070121741,-0.464088,0.8620519999999999,0.206485
1630070121751,-0.46433199999999997,0.861015,0.206058
1630070121760,-0.463661,0.861198,0.20599699999999999
1630070121770,-0.464149,0.8635769999999999,0.20630199999999999
1630070121779,-0.46463699999999997,0.865041,0.204472
1630070121789,-0.46341699999999997,0.8641869999999999,0.204411
1630070121799,-0.463234,0.862113,0.205204
1630070121808,-0.463661,0.8620519999999999,0.206363
1630070121818,-0.462929,0.861869,0.206546
1630070121827,-0.46280699999999997,0.8632719999999999,0.207766
1630070121837,-0.46189199999999997,0.86437,0.207644
1630070121847,-0.460794,0.864675,0.207705
1630070121856,-0.461221,0.86559,0.207034
1630070121866,-0.461038,0.86498,0.20691199999999998
1630070121875,-0.46067199999999997,0.863516,0.2074
1630070121885,-0.460306,0.8632719999999999,0.207461
1630070121895,-0.460611,0.862906,0.207278
1630070121904,-0.460855,0.863455,0.207034
1630070121914,-0.460733,0.864553,0.20660699999999999
1630070121923,-0.460733,0.865529,0.205936
1630070121933,-0.461099,0.8644919999999999,0.205753
1630070121943,-0.461648,0.864248,0.205814
1630070121952,-0.461709,0.865224,0.205082
1630070121962,-0.461038,0.865163,0.20496
1630070121971,-0.460428,0.865407,0.206241
1630070121981,-0.46067199999999997,0.865529,0.207339
1630070121991,-0.460489,0.866322,0.207705
1630070122000,-0.46067199999999997,0.866627,0.206668
1630070122010,-0.460306,0.865773,0.207705
1630070122019,-0.460306,0.865224,0.207644
1630070122029,-0.460123,0.864858,0.2074
1630070122039,-0.461099,0.8644919999999999,0.207156
1630070122048,-0.46055,0.864004,0.206668
1630070122058,-0.461404,0.864065,0.20618
1630070122067,-0.46116,0.86498,0.205204
1630070122077,-0.46177,0.86437,0.204716
1630070122087,-0.462014,0.864431,0.20410599999999998
1630070122096,-0.46116,0.862784,0.20410599999999998
1630070122106,-0.46036699999999997,0.8620519999999999,0.205753
1630070122115,-0.461648,0.862418,0.205814
1630070122125,-0.46116,0.864004,0.20630199999999999
1630070122135,-0.460733,0.863943,0.206851
1630070122144,-0.460611,0.86498,0.206668
1630070122154,-0.460794,0.865163,0.206485
1630070122163,-0.46219699999999997,0.865468,0.206485
1630070122173,-0.46177,0.864858,0.206241
1630070122183,-0.462014,0.864919,0.20721699999999998
1630070122192,-0.461343,0.865407,0.20721699999999998
1630070122202,-0.461343,0.86376,0.205143
1630070122211,-0.461526,0.863394,0.204655
1630070122221,-0.462868,0.866322,0.204472
1630070122231,-0.463661,0.868823,0.20288599999999998
1630070122240,-0.462075,0.864248,0.203923
1630070122250,-0.46189199999999997,0.858636,0.206485
1630070122259,-0.460245,0.8574769999999999,0.20782699999999998
1630070122269,-0.459513,0.861381,0.210206
1630070122279,-0.45933,0.865346,0.211182
1630070122288,-0.45933,0.867786,0.210816
1630070122298,-0.460306,0.86803,0.210206
1630070122307,-0.459818,0.867237,0.210389
1630070122317,-0.45945199999999997,0.864736,0.20984
1630070122327,-0.460611,0.863028,0.210816
1630070122336,-0.46067199999999997,0.861808,0.211243
1630070122346,-0.46055,0.8614419999999999,0.211182
1630070122355,-0.46097699999999997,0.863028,0.21045
1630070122365,-0.462258,0.865346,0.20965699999999998
1630070122375,-0.462746,0.864919,0.20782699999999998
1630070122384,-0.462868,0.864614,0.206485
1630070122394,-0.46311199999999997,0.8635769999999999,0.206485
1630070122403,-0.46311199999999997,0.862845,0.20679
1630070122413,-0.463478,0.863516,0.206485
1630070122423,-0.46402699999999997,0.863638,0.20630199999999999
1630070122432,-0.464088,0.863638,0.207888
1630070122442,-0.463844,0.861991,0.208559
1630070122451,-0.463173,0.862479,0.206973
1630070122461,-0.46299,0.864858,0.20721699999999998
1630070122471,-0.464515,0.866383,0.204899
1630070122480,-0.465674,0.864309,0.20569199999999999
1630070122490,-0.465003,0.860466,0.206058
1630070122499,-0.46482,0.860466,0.205936
1630070122509,-0.464759,0.860893,0.207156
1630070122519,-0.463905,0.863394,0.206973
1630070122528,-0.464271,0.864553,0.206851
1630070122538,-0.464088,0.865529,0.207339
1630070122547,-0.463478,0.86437,0.20630199999999999
1630070122557,-0.464088,0.863699,0.207766
1630070122567,-0.463661,0.8629669999999999,0.20691199999999998
1630070122576,-0.463173,0.862784,0.207034
1630070122586,-0.463539,0.86193,0.207461
1630070122595,-0.463356,0.863699,0.207156
1630070122605,-0.46402699999999997,0.864431,0.206424
1630070122615,-0.46421,0.864553,0.20660699999999999
1630070122624,-0.46463699999999997,0.8635769999999999,0.206424
1630070122634,-0.464088,0.86254,0.20679
1630070122643,-0.462868,0.862174,0.208193
1630070122653,-0.462746,0.862479,0.20813199999999998
1630070122663,-0.461648,0.863455,0.20904699999999998
1630070122672,-0.461831,0.863638,0.209779
1630070122682,-0.46128199999999997,0.8632719999999999,0.20984
1630070122691,-0.46116,0.86437,0.210206
1630070122701,-0.460489,0.86559,0.211182
1630070122711,-0.460184,0.864858,0.210877
1630070122720,-0.461343,0.864126,0.210389
1630070122730,-0.460123,0.8651019999999999,0.210938
1630070122739,-0.45994,0.865346,0.211304
1630070122749,-0.46036699999999997,0.8632719999999999,0.211731
1630070122759,-0.46116,0.86254,0.210938
1630070122768,-0.45975699999999997,0.862418,0.21228
1630070122778,-0.459818,0.862418,0.211487
1630070122787,-0.460306,0.862296,0.212036
1630070122797,-0.461038,0.8626619999999999,0.211731
1630070122807,-0.46189199999999997,0.86315,0.211365
1630070122816,-0.460428,0.8635769999999999,0.211426
1630070122826,-0.46128199999999997,0.865224,0.211182
1630070122835,-0.461343,0.8644919999999999,0.210694
1630070122845,-0.461465,0.86559,0.211365
1630070122855,-0.461404,0.864004,0.211182
1630070122864,-0.46116,0.862296,0.210389
1630070122874,-0.460794,0.862113,0.210206
1630070122883,-0.462319,0.86254,0.210694
1630070122893,-0.46158699999999997,0.8644919999999999,0.208864
1630070122903,-0.461526,0.864614,0.20679
1630070122912,-0.463661,0.867298,0.206241
1630070122922,-0.463844,0.866749,0.206546
1630070122931,-0.463478,0.862845,0.20984
1630070122941,-0.461831,0.859673,0.21106
1630070122951,-0.46067199999999997,0.86254,0.212585
1630070122960,-0.458598,0.865224,0.2135
1630070122970,-0.457988,0.866261,0.213439
1630070122979,-0.458476,0.865407,0.21289
1630070122989,-0.458598,0.864004,0.212341
1630070122999,-0.458354,0.8629669999999999,0.21154799999999999
1630070123008,-0.459879,0.861503,0.211365
1630070123018,-0.460001,0.8620519999999999,0.210999
1630070123027,-0.460245,0.861564,0.211487
1630070123037,-0.460428,0.8611369999999999,0.210999
1630070123047,-0.46116,0.863211,0.210206
1630070123056,-0.461038,0.864065,0.209169
1630070123066,-0.46189199999999997,0.865346,0.20935199999999998
1630070123075,-0.46280699999999997,0.864736,0.207888
1630070123085,-0.463356,0.864675,0.207644
1630070123095,-0.463783,0.863943,0.207339
1630070123104,-0.46402699999999997,0.8635769999999999,0.20782699999999998
1630070123114,-0.464454,0.863394,0.208498
1630070123123,-0.46463699999999997,0.861991,0.207644
1630070123133,-0.463478,0.864126,0.206241
1630070123143,-0.465125,0.866078,0.205204
1630070123152,-0.465369,0.868152,0.203252
1630070123162,-0.46494199999999997,0.86498,0.203618
1630070123171,-0.464454,0.859368,0.20599699999999999
1630070123181,-0.465491,0.858453,0.206424
1630070123191,-0.464759,0.8590019999999999,0.20599699999999999
1630070123200,-0.464759,0.8620519999999999,0.20630199999999999
1630070123210,-0.46433199999999997,0.864004,0.20691199999999998
1630070123219,-0.463966,0.8651019999999999,0.207095
1630070123229,-0.46372199999999997,0.864309,0.207766
1630070123239,-0.464515,0.862906,0.207888
1630070123248,-0.463478,0.861991,0.208803
1630070123258,-0.46372199999999997,0.860649,0.208376
1630070123267,-0.464149,0.860466,0.208193
1630070123277,-0.465613,0.8611369999999999,0.2074
1630070123287,-0.465979,0.861198,0.206546
1630070123296,-0.465796,0.86193,0.20630199999999999
1630070123306,-0.466284,0.861503,0.205631
1630070123315,-0.46585699999999997,0.863089,0.207034
1630070123325,-0.465674,0.863333,0.207766
1630070123335,-0.465918,0.862784,0.20843699999999998
1630070123344,-0.465064,0.863394,0.208315
1630070123354,-0.464576,0.863455,0.208986
1630070123363,-0.46433199999999997,0.863516,0.208986
1630070123373,-0.463966,0.8635769999999999,0.209108
1630070123383,-0.463905,0.864126,0.209413
1630070123392,-0.463966,0.862845,0.209169
1630070123402,-0.463783,0.862174,0.209596
1630070123411,-0.46421,0.86132,0.209535
1630070123421,-0.464271,0.86254,0.20996199999999998
1630070123431,-0.463356,0.862906,0.210694
1630070123440,-0.463051,0.8614419999999999,0.211609
1630070123450,-0.46311199999999997,0.862235,0.211487
1630070123459,-0.463966,0.861564,0.210572
1630070123469,-0.463844,0.863211,0.210206
1630070123479,-0.462075,0.8638819999999999,0.21045
1630070123488,-0.46299,0.863699,0.210328
1630070123498,-0.462746,0.863943,0.21045
1630070123507,-0.463051,0.86437,0.209535
1630070123517,-0.46280699999999997,0.863089,0.210694
1630070123527,-0.462441,0.862296,0.211243
1630070123536,-0.46177,0.864126,0.211914
1630070123546,-0.462014,0.866017,0.21185299999999999
1630070123555,-0.46189199999999997,0.867115,0.209718
1630070123565,-0.462075,0.864553,0.208864
1630070123575,-0.463173,0.866505,0.20752199999999998
1630070123584,-0.463966,0.864004,0.206424
1630070123594,-0.462746,0.860466,0.20813199999999998
1630070123603,-0.460855,0.858453,0.209779
1630070123613,-0.459635,0.859429,0.211609
1630070123623,-0.458537,0.8635769999999999,0.212646
1630070123632,-0.458232,0.866993,0.213561
1630070123642,-0.458171,0.866932,0.212524
1630070123651,-0.458049,0.865163,0.21246299999999999
1630070123661,-0.458598,0.863333,0.21215799999999999
1630070123671,-0.45914699999999997,0.862174,0.211914
1630070123680,-0.459818,0.861564,0.21154799999999999
1630070123690,-0.459696,0.861076,0.210511
1630070123699,-0.46128199999999997,0.861198,0.210572
1630070123709,-0.46177,0.863455,0.208803
1630070123719,-0.46250199999999997,0.864126,0.20843699999999998
1630070123728,-0.46250199999999997,0.865956,0.207278
1630070123738,-0.462929,0.865285,0.206851
1630070123747,-0.46341699999999997,0.864919,0.206546
1630070123757,-0.463234,0.862174,0.206973
1630070123767,-0.463356,0.8620519999999999,0.20679
1630070123776,-0.462929,0.86193,0.206851
1630070123786,-0.463173,0.859795,0.207644
1630070123795,-0.463173,0.8601,0.207034
1630070123805,-0.462868,0.8632719999999999,0.206729
1630070123815,-0.464759,0.86803,0.206729
1630070123824,-0.464698,0.868823,0.205875
1630070123834,-0.464698,0.863455,0.206668
1630070123843,-0.464393,0.8586969999999999,0.207461
1630070123853,-0.46482,0.860039,0.208559
1630070123863,-0.46482,0.862174,0.208498
1630070123872,-0.46482,0.864675,0.20782699999999998
1630070123882,-0.464454,0.865712,0.208254
1630070123891,-0.465003,0.865163,0.207156
1630070123901,-0.46543,0.8644919999999999,0.205631
1630070123911,-0.46494199999999997,0.8638819999999999,0.20599699999999999
1630070123920,-0.46494199999999997,0.862723,0.20679
1630070123930,-0.465064,0.862174,0.206363
1630070123939,-0.464698,0.86254,0.20721699999999998
1630070123949,-0.464454,0.862235,0.206119
1630070123959,-0.46482,0.863028,0.204533
1630070123968,-0.46494199999999997,0.8635769999999999,0.204838
1630070123978,-0.464515,0.863638,0.204472
1630070123987,-0.464576,0.863821,0.204472
1630070123997,-0.46402699999999997,0.8638819999999999,0.205265
1630070124007,-0.463966,0.862784,0.20557
1630070124016,-0.463295,0.861686,0.206668
1630070124026,-0.463173,0.8602219999999999,0.206546
1630070124035,-0.463478,0.859856,0.206729
1630070124045,-0.464149,0.861869,0.207644
1630070124055,-0.464454,0.863455,0.208376
1630070124064,-0.46341699999999997,0.86376,0.20965699999999998
1630070124074,-0.463844,0.865285,0.210084
1630070124083,-0.464515,0.865407,0.210877
1630070124093,-0.464576,0.864431,0.210755
1630070124103,-0.464515,0.862479,0.210999
1630070124112,-0.46421,0.862174,0.210938
1630070124122,-0.46372199999999997,0.86193,0.20984
1630070124131,-0.462746,0.861259,0.210023
1630070124141,-0.462685,0.8620519999999999,0.209779
1630070124151,-0.4636,0.862174,0.21045
1630070124160,-0.46177,0.8626619999999999,0.210267
1630070124170,-0.461953,0.863394,0.20996199999999998
1630070124179,-0.461526,0.862845,0.210511
1630070124189,-0.46177,0.862723,0.210145
1630070124199,-0.46067199999999997,0.8626619999999999,0.21045
1630070124208,-0.459208,0.862479,0.211304
1630070124218,-0.459818,0.86376,0.21106
1630070124227,-0.45945199999999997,0.863394,0.211304
1630070124237,-0.460489,0.863821,0.211426
1630070124247,-0.46158699999999997,0.86681,0.20984
1630070124256,-0.461526,0.868823,0.209291
1630070124266,-0.46055,0.864858,0.210328
1630070124275,-0.460916,0.8596119999999999,0.21276799999999998
1630070124285,-0.45945199999999997,0.8577819999999999,0.213805
1630070124295,-0.458903,0.861015,0.214537
1630070124304,-0.459086,0.865468,0.21490299999999998
1630070124314,-0.458537,0.868091,0.21398799999999998
1630070124323,-0.458293,0.869189,0.213195
1630070124333,-0.458903,0.867237,0.212646
1630070124343,-0.45914699999999997,0.8651019999999999,0.213317
1630070124352,-0.459391,0.86254,0.214049
1630070124362,-0.459269,0.861686,0.21472
1630070124371,-0.459269,0.8605269999999999,0.21533
1630070124381,-0.46006199999999997,0.8611369999999999,0.21472
1630070124391,-0.461709,0.862601,0.213195
1630070124400,-0.46238,0.862906,0.211426
1630070124410,-0.461221,0.864919,0.21045
1630070124419,-0.463051,0.864248,0.208986
1630070124429,-0.46299,0.8632719999999999,0.208376
1630070124439,-0.463356,0.862174,0.207888
1630070124448,-0.464271,0.862296,0.206973
1630070124458,-0.464454,0.861869,0.20660699999999999
1630070124467,-0.464698,0.862296,0.206546
1630070124477,-0.4636,0.862174,0.20630199999999999
1630070124487,-0.46372199999999997,0.862418,0.205448
1630070124496,-0.46372199999999997,0.8641869999999999,0.204838
1630070124506,-0.463356,0.86498,0.20374
1630070124515,-0.46421,0.863028,0.203618
1630070124525,-0.464393,0.860771,0.202825
1630070124535,-0.464088,0.861076,0.20410599999999998
1630070124544,-0.463539,0.861869,0.20557
1630070124554,-0.46311199999999997,0.862601,0.205814
1630070124563,-0.463295,0.864126,0.207278
1630070124573,-0.462929,0.8651019999999999,0.205509
1630070124583,-0.463478,0.8641869999999999,0.205204
1630070124592,-0.462929,0.863699,0.204777
1630070124602,-0.463051,0.86315,0.204716
1630070124611,-0.463478,0.862906,0.205753
1630070124621,-0.462075,0.862601,0.205936
1630070124631,-0.462075,0.8635769999999999,0.205326
1630070124640,-0.4636,0.864858,0.205387
1630070124650,-0.464088,0.8644919999999999,0.205326
1630070124659,-0.463783,0.8644919999999999,0.204716
1630070124669,-0.464454,0.86437,0.204533
1630070124679,-0.463905,0.865163,0.204533
1630070124688,-0.463539,0.864248,0.204533
1630070124698,-0.4636,0.864126,0.205448
1630070124707,-0.463234,0.864309,0.205204
1630070124717,-0.462624,0.864004,0.205814
1630070124727,-0.46299,0.865773,0.206668
1630070124736,-0.463173,0.865956,0.206668
1630070124746,-0.46280699999999997,0.86559,0.2074
1630070124755,-0.463173,0.8651019999999999,0.207766
1630070124765,-0.462258,0.865285,0.207644
1630070124775,-0.462014,0.863394,0.20801
1630070124784,-0.46116,0.863821,0.20874199999999998
1630070124794,-0.46067199999999997,0.8638819999999999,0.207461
1630070124803,-0.46055,0.863028,0.207339
1630070124813,-0.460184,0.863089,0.2074
1630070124823,-0.459818,0.862906,0.208071
1630070124832,-0.45914699999999997,0.86376,0.207644
1630070124842,-0.45975699999999997,0.864553,0.208315
1630070124851,-0.45811,0.864919,0.20843699999999998
1630070124861,-0.457866,0.863943,0.208376
1630070124871,-0.459086,0.865224,0.20874199999999998
1630070124880,-0.458293,0.8644919999999999,0.20935199999999998
1630070124890,-0.458476,0.8644919999999999,0.209596
1630070124899,-0.457927,0.865895,0.20984
1630070124909,-0.458171,0.865834,0.20874199999999998
1630070124919,-0.457988,0.864614,0.208498
1630070124928,-0.458415,0.867908,0.207278
1630070124938,-0.45872,0.869128,0.206729
1630070124947,-0.457256,0.865163,0.20752199999999998
1630070124957,-0.45688999999999996,0.858758,0.209108
1630070124967,-0.456768,0.858453,0.211975
1630070124976,-0.456463,0.861869,0.212341
1630070124986,-0.45444999999999997,0.866322,0.213927
1630070124995,-0.454999,0.868518,0.214049
1630070125005,-0.455609,0.8702259999999999,0.213195
1630070125015,-0.455304,0.869006,0.21368299999999998
1630070125024,-0.454999,0.8662,0.214537
1630070125034,-0.454816,0.864004,0.214964
1630070125043,-0.455304,0.8620519999999999,0.21490299999999998
1630070125053,-0.455426,0.860588,0.213561
1630070125063,-0.457683,0.861991,0.211731
1630070125072,-0.458293,0.86437,0.210633
1630070125082,-0.458964,0.867969,0.210084
1630070125091,-0.459696,0.870592,0.20904699999999998
1630070125101,-0.45975699999999997,0.869982,0.209596
1630070125111,-0.459513,0.868213,0.209108
1630070125120,-0.45975699999999997,0.868152,0.210206
1630070125130,-0.45945199999999997,0.866017,0.210694
1630070125139,-0.458598,0.865651,0.210755
1630070125149,-0.458476,0.8644919999999999,0.210572
1630070125159,-0.457073,0.865346,0.209108
1630070125168,-0.45811,0.868152,0.209413
1630070125178,-0.457927,0.870043,0.20801
1630070125187,-0.457744,0.868152,0.207278
1630070125197,-0.457866,0.863821,0.207644
1630070125207,-0.456829,0.86193,0.208864
1630070125216,-0.456829,0.861869,0.208071
1630070125226,-0.456524,0.864126,0.20904699999999998
1630070125235,-0.456158,0.865895,0.20813199999999998
1630070125245,-0.455731,0.867054,0.207949
1630070125255,-0.455792,0.867725,0.20721699999999998
1630070125264,-0.456463,0.867847,0.206241
1630070125274,-0.456951,0.86681,0.20679
1630070125283,-0.458415,0.865773,0.205631
1630070125293,-0.458659,0.865712,0.205448
1630070125303,-0.458964,0.86437,0.205265
1630070125312,-0.459025,0.8647969999999999,0.204045
1630070125322,-0.461099,0.8641869999999999,0.203679
1630070125331,-0.46097699999999997,0.865407,0.202947
1630070125341,-0.461038,0.866017,0.202642
1630070125351,-0.461099,0.866566,0.20313
1630070125360,-0.46097699999999997,0.866139,0.203069
1630070125370,-0.46116,0.865651,0.20349599999999998
1630070125379,-0.46055,0.864736,0.204228
1630070125389,-0.45994,0.865346,0.204411
1630070125399,-0.45994,0.86559,0.205082
1630070125408,-0.459879,0.864858,0.206058
1630070125418,-0.459391,0.8651019999999999,0.20691199999999998
1630070125427,-0.45914699999999997,0.86437,0.207644
1630070125437,-0.459269,0.865346,0.20813199999999998
1630070125447,-0.459391,0.865712,0.20843699999999998
1630070125456,-0.459696,0.866383,0.207766
1630070125466,-0.45933,0.865712,0.208498
1630070125475,-0.458964,0.864736,0.207766
1630070125485,-0.45975699999999997,0.864004,0.208986
1630070125495,-0.459696,0.865956,0.20874199999999998
1630070125504,-0.458659,0.865529,0.208193
1630070125514,-0.459025,0.866566,0.20752199999999998
1630070125523,-0.45945199999999997,0.867847,0.20843699999999998
1630070125533,-0.459574,0.867176,0.20660699999999999
1630070125543,-0.460184,0.867237,0.205875
1630070125552,-0.459879,0.867725,0.20679
1630070125562,-0.45945199999999997,0.86498,0.208071
1630070125571,-0.458354,0.864309,0.20862
1630070125581,-0.4575,0.865468,0.208315
1630070125591,-0.457683,0.865285,0.20813199999999998
1630070125600,-0.457744,0.866566,0.206973
1630070125610,-0.457744,0.868396,0.207034
1630070125619,-0.457256,0.87047,0.207156
1630070125629,-0.458354,0.86681,0.207766
1630070125639,-0.457134,0.862723,0.210084
1630070125648,-0.45597499999999996,0.862784,0.21228
1630070125658,-0.454267,0.865895,0.213012
1630070125667,-0.453779,0.86803,0.21368299999999998
1630070125677,-0.45261999999999997,0.869433,0.21337799999999998
1630070125687,-0.454023,0.868274,0.212402
1630070125696,-0.454206,0.867298,0.21185299999999999
1630070125706,-0.454023,0.865651,0.21106
1630070125715,-0.455792,0.864248,0.210877
1630070125725,-0.455853,0.863028,0.211243
1630070125735,-0.456402,0.863211,0.210816
1630070125744,-0.45688999999999996,0.864004,0.210206
1630070125754,-0.4575,0.865895,0.208681
1630070125763,-0.457927,0.866261,0.207461
1630070125773,-0.459086,0.866749,0.206851
1630070125783,-0.45884199999999997,0.866627,0.20691199999999998
1630070125792,-0.459513,0.865346,0.207156
1630070125802,-0.45994,0.864736,0.208254
1630070125811,-0.45945199999999997,0.863821,0.209718
1630070125821,-0.45914699999999997,0.863943,0.20996199999999998
1630070125831,-0.457927,0.864858,0.208986
1630070125840,-0.459818,0.868396,0.208986
1630070125850,-0.460794,0.8711409999999999,0.207278
1630070125859,-0.459635,0.869555,0.207156
1630070125869,-0.459513,0.86498,0.20801
1630070125879,-0.458476,0.863089,0.209901
1630070125888,-0.458964,0.862784,0.211182
1630070125898,-0.458476,0.865468,0.211182
1630070125907,-0.457256,0.868152,0.21215799999999999
1630070125917,-0.457134,0.869311,0.21106
1630070125927,-0.457256,0.868762,0.210572
1630070125936,-0.457134,0.866688,0.21106
1630070125946,-0.456768,0.865407,0.210511
1630070125955,-0.457012,0.865468,0.211426
1630070125965,-0.457256,0.865712,0.210938
1630070125975,-0.457378,0.865956,0.209474
1630070125984,-0.4575,0.865712,0.208803
1630070125994,-0.458537,0.86498,0.20862
1630070126003,-0.459208,0.865956,0.208864
1630070126013,-0.459025,0.8662,0.209108
1630070126023,-0.458476,0.867786,0.208986
1630070126032,-0.45872,0.8662,0.209291
1630070126042,-0.459269,0.866566,0.209535
1630070126051,-0.458964,0.866444,0.20996199999999998
1630070126061,-0.458232,0.86559,0.210938
1630070126071,-0.457805,0.865468,0.211243
1630070126080,-0.45872,0.8638819999999999,0.210023
1630070126090,-0.458964,0.8638819999999999,0.209291
1630070126099,-0.458415,0.8641869999999999,0.208986
1630070126109,-0.458598,0.863699,0.208498
1630070126119,-0.458476,0.864309,0.20904699999999998
1630070126128,-0.458293,0.864126,0.209169
1630070126138,-0.45872,0.864614,0.209779
1630070126147,-0.458171,0.86376,0.210755
1630070126157,-0.458354,0.8644919999999999,0.211609
1630070126167,-0.456341,0.864675,0.212036
1630070126176,-0.45688999999999996,0.8651019999999999,0.212097
1630070126186,-0.45658499999999996,0.86498,0.212219
1630070126195,-0.45627999999999996,0.865468,0.213012
1630070126205,-0.456524,0.864065,0.2135
1630070126215,-0.455792,0.86315,0.215086
1630070126224,-0.455121,0.86498,0.215757
1630070126234,-0.454938,0.868457,0.215635
1630070126243,-0.454328,0.86925,0.214781
1630070126253,-0.454999,0.865834,0.21472
1630070126263,-0.457195,0.868701,0.213561
1630070126272,-0.456524,0.869189,0.21411
1630070126282,-0.455792,0.865041,0.214659
1630070126291,-0.455182,0.862296,0.216733
1630070126301,-0.45536499999999996,0.863455,0.218258
1630070126311,-0.453291,0.867359,0.219295
1630070126320,-0.452742,0.8705309999999999,0.219478
1630070126330,-0.453047,0.871019,0.21923399999999998
1630070126339,-0.45292499999999997,0.868945,0.218685
1630070126349,-0.452742,0.867969,0.21777
1630070126359,-0.453108,0.866444,0.217343
1630070126368,-0.452864,0.86376,0.219051
1630070126378,-0.453718,0.862479,0.218685
1630070126387,-0.453413,0.8638819999999999,0.21862399999999999
1630070126397,-0.453962,0.8644919999999999,0.217526
1630070126407,-0.455182,0.8647969999999999,0.216977
1630070126416,-0.45505999999999996,0.86742,0.216367
1630070126426,-0.454999,0.868335,0.216184
1630070126435,-0.456646,0.867603,0.214415
1630070126445,-0.457561,0.866566,0.21429299999999998
1630070126455,-0.45688999999999996,0.866688,0.214659
1630070126464,-0.457317,0.865346,0.214415
1630070126474,-0.455487,0.863638,0.215391
1630070126483,-0.454816,0.8644919999999999,0.21368299999999998
1630070126493,-0.455792,0.868701,0.213866
1630070126503,-0.454938,0.870348,0.212524
1630070126512,-0.454938,0.868091,0.212524
1630070126522,-0.45566999999999996,0.862723,0.21337799999999998
1630070126531,-0.454999,0.8602219999999999,0.214049
1630070126541,-0.455304,0.860954,0.214171
1630070126551,-0.455121,0.863455,0.21551299999999998
1630070126560,-0.454633,0.865895,0.215635
1630070126570,-0.455914,0.867359,0.21520799999999998
1630070126579,-0.455121,0.867603,0.214232
1630070126589,-0.454938,0.86803,0.21551299999999998
1630070126599,-0.454877,0.867725,0.215391
1630070126608,-0.455426,0.866749,0.217465
1630070126618,-0.45566999999999996,0.865773,0.218075
1630070126627,-0.455609,0.86559,0.216916
1630070126637,-0.455914,0.866444,0.216428
1630070126647,-0.456951,0.865834,0.214232
1630070126656,-0.456768,0.866444,0.21307299999999998
1630070126666,-0.45688999999999996,0.866749,0.21289
1630070126675,-0.456158,0.867542,0.212402
1630070126685,-0.457317,0.867115,0.21276799999999998
1630070126695,-0.456463,0.866932,0.21289
1630070126704,-0.456768,0.866078,0.214171
1630070126714,-0.45566999999999996,0.865773,0.21459799999999998
1630070126723,-0.455304,0.8662,0.214964
1630070126733,-0.454938,0.866627,0.216245
1630070126743,-0.454938,0.867176,0.216184
1630070126752,-0.455182,0.867542,0.216733
1630070126762,-0.454572,0.866688,0.216489
1630070126771,-0.45414499999999997,0.866993,0.217282
1630070126781,-0.453596,0.865224,0.217221
1630070126791,-0.45353499999999997,0.864919,0.217404
1630070126800,-0.454084,0.866261,0.216672
1630070126810,-0.454328,0.8662,0.217038
1630070126819,-0.453718,0.86742,0.217221
1630070126829,-0.45322999999999997,0.867847,0.217526
1630070126839,-0.45383999999999997,0.866932,0.216306
1630070126848,-0.453779,0.866444,0.215086
1630070126858,-0.454999,0.866688,0.213744
1630070126867,-0.454633,0.865163,0.213744
1630070126877,-0.45353499999999997,0.865712,0.213012
1630070126887,-0.453596,0.86742,0.21307299999999998
1630070126896,-0.454206,0.865956,0.212646
1630070126906,-0.45444999999999997,0.8662,0.21106
1630070126915,-0.454938,0.869006,0.210023
1630070126925,-0.455304,0.871324,0.208559
1630070126935,-0.45536499999999996,0.868274,0.208681
1630070126944,-0.454328,0.860954,0.210572
1630070126954,-0.453718,0.858453,0.211487
1630070126963,-0.452559,0.861808,0.21307299999999998
1630070126973,-0.452742,0.867786,0.213317
1630070126983,-0.452254,0.870958,0.21246299999999999
1630070126992,-0.45231499999999997,0.871385,0.21289
1630070127002,-0.45292499999999997,0.870348,0.21215799999999999
1630070127011,-0.451888,0.868945,0.212524
1630070127021,-0.451766,0.866383,0.213561
1630070127031,-0.45139999999999997,0.864736,0.215147
1630070127040,-0.452498,0.864614,0.215086
1630070127050,-0.451522,0.865712,0.21472
1630070127059,-0.452498,0.868274,0.21411
1630070127069,-0.452803,0.869677,0.212707
1630070127079,-0.45383999999999997,0.870653,0.21276799999999998
1630070127088,-0.452742,0.869067,0.211975
1630070127098,-0.453047,0.868335,0.211914
1630070127107,-0.452132,0.868152,0.211426
1630070127117,-0.452437,0.86803,0.211304
1630070127127,-0.452193,0.868274,0.210694
1630070127136,-0.45261999999999997,0.86803,0.210572
1630070127146,-0.451766,0.868152,0.210145
1630070127155,-0.452193,0.868518,0.210023
1630070127165,-0.453352,0.870409,0.20935199999999998
1630070127175,-0.454084,0.8723,0.20862
1630070127184,-0.454084,0.869738,0.208986
1630070127194,-0.453901,0.86681,0.210145
1630070127203,-0.453657,0.866932,0.210145
1630070127213,-0.454206,0.867176,0.210084
1630070127223,-0.454877,0.868396,0.209474
1630070127232,-0.454206,0.869494,0.208681
1630070127242,-0.454877,0.8699209999999999,0.2074
1630070127251,-0.45536499999999996,0.869006,0.206973
1630070127261,-0.453962,0.868335,0.207278
1630070127271,-0.454206,0.867237,0.208681
1630070127280,-0.453962,0.865895,0.208681
1630070127290,-0.452803,0.866444,0.208498
1630070127299,-0.453413,0.867298,0.207644
1630070127309,-0.454023,0.867908,0.20801
1630070127319,-0.454816,0.868152,0.207461
1630070127328,-0.45475499999999996,0.867664,0.207339
1630070127338,-0.454267,0.868213,0.207644
1630070127347,-0.454206,0.867786,0.207095
1630070127357,-0.454694,0.867542,0.206363
1630070127367,-0.45505999999999996,0.867054,0.207583
1630070127376,-0.454511,0.867542,0.20679
1630070127386,-0.454328,0.867786,0.207644
1630070127395,-0.453779,0.86803,0.207888
1630070127405,-0.454206,0.867786,0.208254
1630070127415,-0.453718,0.867603,0.207888
1630070127424,-0.454328,0.866932,0.208986
1630070127434,-0.453779,0.866322,0.208803
1630070127443,-0.453596,0.865712,0.209718
1630070127453,-0.453596,0.865895,0.21045
1630070127463,-0.453962,0.867603,0.209169
1630070127472,-0.455182,0.868762,0.209169
1630070127482,-0.454999,0.868518,0.20935199999999998
1630070127491,-0.454572,0.867908,0.208376
1630070127501,-0.455548,0.866688,0.20813199999999998
1630070127511,-0.45566999999999996,0.868762,0.209474
1630070127520,-0.455121,0.869128,0.209474
1630070127530,-0.454328,0.868274,0.210145
1630070127539,-0.454084,0.86925,0.209474
1630070127549,-0.453596,0.868152,0.209291
1630070127559,-0.453474,0.867664,0.208193
1630070127568,-0.45322999999999997,0.870043,0.207156
1630070127578,-0.452986,0.872788,0.20691199999999998
1630070127587,-0.452742,0.87047,0.207339
1630070127597,-0.45292499999999997,0.86498,0.208681
1630070127607,-0.452254,0.8629669999999999,0.210694
1630070127616,-0.450424,0.8647969999999999,0.21276799999999998
1630070127626,-0.45048499999999997,0.868579,0.213866
1630070127635,-0.449814,0.8717509999999999,0.213256
1630070127645,-0.449997,0.872849,0.211731
1630070127655,-0.449936,0.871568,0.21167
1630070127664,-0.450119,0.87047,0.21246299999999999
1630070127674,-0.450668,0.867786,0.21228
1630070127683,-0.449997,0.865895,0.213622
1630070127693,-0.449448,0.8662,0.213195
1630070127703,-0.449936,0.867481,0.212341
1630070127712,-0.449936,0.869311,0.211731
1630070127722,-0.450302,0.8708359999999999,0.209474
1630070127731,-0.451339,0.871385,0.20862
1630070127741,-0.450851,0.869555,0.20752199999999998
1630070127751,-0.452376,0.86681,0.20752199999999998
1630070127760,-0.451583,0.866566,0.208193
1630070127770,-0.452254,0.868091,0.207644
1630070127779,-0.452803,0.86864,0.207156
1630070127789,-0.452071,0.868518,0.207644
1630070127799,-0.451827,0.868213,0.207766
1630070127808,-0.452803,0.8711409999999999,0.207766
1630070127818,-0.452193,0.873032,0.207705
1630070127827,-0.451766,0.870348,0.206729
1630070127837,-0.451949,0.865346,0.207644
1630070127847,-0.452681,0.864919,0.20801
1630070127856,-0.452071,0.865956,0.20923
1630070127866,-0.452132,0.866322,0.209901
1630070127875,-0.45231499999999997,0.867176,0.20965699999999998
1630070127885,-0.452254,0.868396,0.20996199999999998
1630070127895,-0.451583,0.86925,0.210084
1630070127904,-0.45200999999999997,0.869494,0.210511
1630070127914,-0.451949,0.868396,0.209901
1630070127923,-0.453169,0.86803,0.210877
1630070127933,-0.453352,0.867115,0.21167
1630070127943,-0.454572,0.868518,0.211792
1630070127952,-0.45383999999999997,0.868335,0.21154799999999999
1630070127962,-0.453596,0.867786,0.212097
1630070127971,-0.454267,0.868335,0.211914
1630070127981,-0.453718,0.867542,0.21167
1630070127991,-0.453962,0.866566,0.21215799999999999
1630070128000,-0.454084,0.867298,0.212219
1630070128010,-0.45566999999999996,0.869494,0.212585
1630070128019,-0.455182,0.87047,0.213439
1630070128029,-0.45475499999999996,0.870653,0.21307299999999998
1630070128039,-0.454328,0.870287,0.213317
1630070128048,-0.454694,0.869372,0.213256
1630070128058,-0.454999,0.867725,0.213866
1630070128067,-0.454267,0.867054,0.213866
1630070128077,-0.454267,0.866383,0.21411
1630070128087,-0.453779,0.866566,0.212951
1630070128096,-0.453779,0.866261,0.21307299999999998
1630070128106,-0.453047,0.8662,0.212219
1630070128115,-0.452803,0.866688,0.21276799999999998
1630070128125,-0.453657,0.866505,0.213012
1630070128135,-0.453352,0.867237,0.213256
1630070128144,-0.453413,0.867481,0.212707
1630070128154,-0.454267,0.868823,0.21167
1630070128163,-0.45414499999999997,0.867176,0.212097
1630070128173,-0.45383999999999997,0.86498,0.212951
1630070128183,-0.453779,0.867359,0.213256
1630070128192,-0.45383999999999997,0.86803,0.213012
1630070128202,-0.454938,0.866627,0.211121
1630070128211,-0.454694,0.866871,0.209779
1630070128221,-0.454694,0.868701,0.208681
1630070128231,-0.455914,0.870592,0.209474
1630070128240,-0.45536499999999996,0.868701,0.209779
1630070128250,-0.453962,0.864065,0.211792
1630070128259,-0.453657,0.86315,0.213195
1630070128269,-0.452254,0.866444,0.214476
1630070128279,-0.450607,0.868457,0.21490299999999998
1630070128288,-0.449204,0.870775,0.21459799999999998
1630070128298,-0.449753,0.870348,0.215269
1630070128307,-0.449082,0.868518,0.21472
1630070128317,-0.448899,0.866688,0.215452
1630070128327,-0.450058,0.86559,0.216062
1630070128336,-0.449448,0.8647969999999999,0.216184
1630070128346,-0.449021,0.865346,0.216062
1630070128355,-0.449936,0.867725,0.216184
1630070128365,-0.449387,0.868274,0.215574
1630070128375,-0.44987499999999997,0.869433,0.21472
1630070128384,-0.450424,0.870653,0.213805
1630070128394,-0.450607,0.869616,0.212524
1630070128403,-0.450912,0.869494,0.213805
1630070128413,-0.451766,0.869311,0.21307299999999998
1630070128423,-0.45231499999999997,0.869189,0.213805
1630070128432,-0.452498,0.868762,0.214232
1630070128442,-0.451949,0.869006,0.212646
1630070128451,-0.452986,0.8720559999999999,0.212036
1630070128461,-0.45231499999999997,0.87474,0.210694
1630070128471,-0.452437,0.8735809999999999,0.209108
1630070128480,-0.452986,0.867603,0.210633
1630070128490,-0.451827,0.865285,0.21106
1630070128499,-0.452071,0.865712,0.212402
1630070128509,-0.451156,0.868884,0.213012
1630070128519,-0.451156,0.87108,0.21228
1630070128528,-0.450851,0.8726659999999999,0.211487
1630070128538,-0.45109499999999997,0.8726659999999999,0.211792
1630070128547,-0.451827,0.869738,0.211914
1630070128557,-0.451827,0.868762,0.212402
1630070128567,-0.452742,0.868152,0.212585
1630070128576,-0.452681,0.868701,0.211792
1630070128586,-0.452681,0.868945,0.210755
1630070128595,-0.453108,0.869311,0.210328
1630070128605,-0.453718,0.868762,0.208376
1630070128615,-0.453474,0.86742,0.20935199999999998
1630070128624,-0.453413,0.867603,0.20904699999999998
1630070128634,-0.453413,0.866383,0.208986
1630070128643,-0.453596,0.866871,0.20965699999999998
1630070128653,-0.454267,0.868457,0.210145
1630070128663,-0.453474,0.868579,0.210389
1630070128672,-0.453901,0.86803,0.210328
1630070128682,-0.454023,0.866749,0.210511
1630070128691,-0.453657,0.865041,0.210816
1630070128701,-0.453474,0.865346,0.211365
1630070128711,-0.452986,0.866261,0.21167
1630070128720,-0.453779,0.865956,0.211914
1630070128730,-0.454023,0.8662,0.211792
1630070128739,-0.45322999999999997,0.865956,0.211975
1630070128749,-0.453962,0.867115,0.21215799999999999
1630070128759,-0.454023,0.867054,0.21215799999999999
1630070128768,-0.454023,0.866627,0.21154799999999999
1630070128778,-0.45414499999999997,0.867054,0.21185299999999999
1630070128787,-0.454206,0.867176,0.210633
1630070128797,-0.453596,0.865956,0.211975
1630070128807,-0.453108,0.8647969999999999,0.21276799999999998
1630070128816,-0.452498,0.866444,0.212524
1630070128826,-0.45292499999999997,0.869677,0.21246299999999999
1630070128835,-0.453047,0.87108,0.21228
1630070128845,-0.452864,0.869189,0.21045
1630070128855,-0.45383999999999997,0.868884,0.21154799999999999
1630070128864,-0.45353499999999997,0.8702259999999999,0.210816
1630070128874,-0.453657,0.866932,0.212036
1630070128883,-0.453413,0.86376,0.215086
1630070128893,-0.452254,0.8632719999999999,0.21770899999999999
1630070128903,-0.450668,0.866993,0.219417
1630070128912,-0.449936,0.871629,0.220698
1630070128922,-0.449509,0.873459,0.221125
1630070128931,-0.450424,0.873337,0.220027
1630070128941,-0.450668,0.871507,0.219051
1630070128951,-0.450973,0.869677,0.218502
1630070128960,-0.451583,0.868091,0.219112
1630070128970,-0.450912,0.86559,0.219112
1630070128979,-0.451156,0.8651019999999999,0.218136
1630070128989,-0.451583,0.866688,0.216977
1630070128999,-0.452864,0.869128,0.215086
1630070129008,-0.451766,0.870104,0.214842
1630070129018,-0.452498,0.869067,0.212646
1630070129027,-0.452986,0.869067,0.21289
1630070129037,-0.451766,0.866993,0.21289
1630070129047,-0.451888,0.865468,0.2135
1630070129056,-0.452254,0.865163,0.212951
1630070129066,-0.451156,0.864675,0.214354
1630070129075,-0.450973,0.865468,0.213622
1630070129085,-0.451522,0.868518,0.21185299999999999
1630070129095,-0.452559,0.873154,0.211792
1630070129104,-0.452254,0.873764,0.210145
1630070129114,-0.452559,0.868274,0.211304
1630070129123,-0.45322999999999997,0.8644919999999999,0.211975
1630070129133,-0.45231499999999997,0.86315,0.21289
1630070129143,-0.453596,0.8651019999999999,0.212646
1630070129152,-0.451644,0.868579,0.211975
1630070129162,-0.451034,0.869799,0.212097
1630070129171,-0.451827,0.869372,0.212036
1630070129181,-0.45170499999999997,0.868823,0.210633
1630070129191,-0.45078999999999997,0.867969,0.21106
1630070129200,-0.450729,0.867298,0.21154799999999999
1630070129210,-0.451217,0.867298,0.21246299999999999
1630070129219,-0.450668,0.86742,0.212646
1630070129229,-0.450119,0.867908,0.212951
1630070129239,-0.450546,0.867908,0.212219
1630070129248,-0.45139999999999997,0.868701,0.21167
1630070129258,-0.451583,0.868823,0.212341
1630070129267,-0.45139999999999997,0.869616,0.21215799999999999
1630070129277,-0.450363,0.870958,0.212646
1630070129287,-0.449997,0.870104,0.213195
1630070129296,-0.450302,0.869616,0.2135
1630070129306,-0.450729,0.869067,0.214171
1630070129315,-0.45109499999999997,0.86925,0.21429299999999998
1630070129325,-0.45109499999999997,0.869616,0.21472
1630070129335,-0.45200999999999997,0.869616,0.214842
1630070129344,-0.451583,0.8702259999999999,0.21520799999999998
1630070129354,-0.451522,0.869616,0.215086
1630070129363,-0.451949,0.869128,0.21551299999999998
1630070129373,-0.452376,0.867786,0.216062
1630070129383,-0.452803,0.867298,0.21581799999999998
1630070129392,-0.45261999999999997,0.867237,0.215147
1630070129402,-0.453291,0.867664,0.215025
1630070129411,-0.45322999999999997,0.86925,0.21368299999999998
1630070129421,-0.452559,0.868396,0.212829
1630070129431,-0.452376,0.867908,0.213256
1630070129440,-0.452559,0.867603,0.213134
1630070129450,-0.453108,0.868457,0.213134
1630070129459,-0.452376,0.867176,0.21276799999999998
1630070129469,-0.450546,0.867359,0.213012
1630070129479,-0.451217,0.868518,0.213134
1630070129488,-0.451888,0.866932,0.212219
1630070129498,-0.452498,0.866566,0.211487
1630070129507,-0.452071,0.870958,0.210572
1630070129517,-0.452498,0.871873,0.210694
1630070129527,-0.451949,0.86925,0.210084
1630070129536,-0.452254,0.862479,0.212097
1630070129546,-0.45048499999999997,0.8602219999999999,0.214781
1630070129555,-0.450119,0.864065,0.21551299999999998
1630070129565,-0.450668,0.867115,0.215757
1630070129575,-0.449326,0.870592,0.216367
1630070129584,-0.45017999999999997,0.871324,0.215635
1630070129594,-0.449997,0.870714,0.214415
1630070129603,-0.450424,0.867542,0.214659
1630070129613,-0.45017999999999997,0.8651019999999999,0.21472
1630070129623,-0.450302,0.864126,0.216184
1630070129632,-0.45048499999999997,0.8651019999999999,0.21655
1630070129642,-0.451034,0.865895,0.216306
1630070129651,-0.452071,0.86803,0.21472
1630070129661,-0.45322999999999997,0.868213,0.213439
1630070129671,-0.453291,0.868945,0.212524
1630070129680,-0.453901,0.86864,0.212097
1630070129690,-0.45475499999999996,0.869189,0.211487
1630070129699,-0.454694,0.868274,0.212036
1630070129709,-0.454572,0.869128,0.211426
1630070129719,-0.454206,0.869006,0.212219
1630070129728,-0.453413,0.867725,0.212524
1630070129738,-0.452376,0.866932,0.213012
1630070129747,-0.452254,0.867237,0.21307299999999998
1630070129757,-0.453901,0.868884,0.212524
1630070129767,-0.453352,0.871812,0.210816
1630070129776,-0.453169,0.86925,0.21106
1630070129786,-0.453352,0.867054,0.211121
1630070129795,-0.452986,0.867237,0.212402
1630070129805,-0.451644,0.868091,0.21246299999999999
1630070129815,-0.452864,0.869128,0.213439
1630070129824,-0.452132,0.87108,0.213317
1630070129834,-0.451766,0.870165,0.212036
1630070129843,-0.451888,0.869189,0.212829
1630070129853,-0.451827,0.869372,0.212524
1630070129863,-0.451888,0.867725,0.212646
1630070129872,-0.450851,0.867542,0.212219
1630070129882,-0.45078999999999997,0.868396,0.212219
1630070129891,-0.45109499999999997,0.868335,0.212524
1630070129901,-0.450973,0.869128,0.211243
1630070129911,-0.45170499999999997,0.868823,0.210206
1630070129920,-0.451888,0.869738,0.21045
1630070129930,-0.452071,0.869128,0.20874199999999998
1630070129939,-0.451949,0.870104,0.209108
1630070129949,-0.451461,0.869311,0.20862
1630070129959,-0.451522,0.869067,0.209535
1630070129968,-0.450912,0.869738,0.210328
1630070129978,-0.449997,0.869311,0.21106
1630070129987,-0.449753,0.868152,0.211731
1630070129997,-0.449814,0.868457,0.21167
1630070130007,-0.450119,0.868762,0.211121
1630070130016,-0.449753,0.869006,0.210389
1630070130026,-0.449448,0.868884,0.211121
1630070130035,-0.449326,0.868091,0.210755
1630070130045,-0.449204,0.868152,0.21106
1630070130055,-0.449387,0.867603,0.211975
1630070130064,-0.44926499999999997,0.868213,0.21167
1630070130074,-0.44895999999999997,0.868945,0.211975
1630070130083,-0.448533,0.869189,0.212036
1630070130093,-0.448716,0.869311,0.21307299999999998
1630070130103,-0.448472,0.870287,0.212219
1630070130112,-0.449387,0.871324,0.212585
1630070130122,-0.448777,0.871385,0.21276799999999998
1630070130131,-0.448716,0.870043,0.214049
1630070130141,-0.448533,0.87108,0.21411
1630070130151,-0.44865499999999997,0.869616,0.214049
1630070130160,-0.448228,0.868762,0.21154799999999999
1630070130170,-0.448594,0.869799,0.210572
1630070130179,-0.449448,0.874252,0.210267
1630070130189,-0.449936,0.873947,0.20996199999999998
1630070130199,-0.449143,0.868335,0.21106
1630070130208,-0.448167,0.864431,0.213317
1630070130218,-0.44834999999999997,0.864858,0.215696
1630070130227,-0.447252,0.869799,0.216489
1630070130237,-0.446215,0.873398,0.216184
1630070130247,-0.447313,0.8744959999999999,0.215025
1630070130256,-0.447496,0.874862,0.21490299999999998
1630070130266,-0.447862,0.872849,0.213927
1630070130275,-0.448106,0.87047,0.214964
1630070130285,-0.447984,0.869006,0.21612299999999998
1630070130295,-0.447984,0.866749,0.216428
1630070130304,-0.44834999999999997,0.867176,0.215086
1630070130314,-0.44926499999999997,0.869189,0.213622
1630070130323,-0.449753,0.868762,0.212097
1630070130333,-0.45017999999999997,0.870287,0.210572
1630070130343,-0.450851,0.87108,0.208986
1630070130352,-0.451644,0.869738,0.208681
1630070130362,-0.45078999999999997,0.868457,0.20782699999999998
1630070130371,-0.450973,0.869006,0.208559
1630070130381,-0.450851,0.869189,0.208986
1630070130391,-0.450729,0.86864,0.208681
1630070130400,-0.450424,0.86681,0.209718
1630070130410,-0.450241,0.867725,0.20874199999999998
1630070130419,-0.451461,0.869982,0.208559
1630070130429,-0.451034,0.87169,0.207156
1630070130439,-0.451156,0.869982,0.207583
1630070130448,-0.451034,0.867298,0.20782699999999998
1630070130458,-0.451827,0.866139,0.20813199999999998
1630070130467,-0.451522,0.86803,0.208803
1630070130477,-0.451888,0.868884,0.209474
1630070130487,-0.451827,0.8702259999999999,0.209596
1630070130496,-0.45231499999999997,0.870348,0.209413
1630070130506,-0.451217,0.8702259999999999,0.209474
1630070130515,-0.451583,0.86925,0.210572
1630070130525,-0.451522,0.867786,0.210633
1630070130535,-0.451888,0.867115,0.211609
1630070130544,-0.451522,0.867542,0.21185299999999999
1630070130554,-0.451827,0.868579,0.211182
1630070130563,-0.453047,0.868091,0.211365
1630070130573,-0.452986,0.869128,0.211487
1630070130583,-0.452254,0.86986,0.210633
1630070130592,-0.454084,0.870348,0.210023
1630070130602,-0.45383999999999997,0.868945,0.210755
1630070130611,-0.453169,0.870165,0.211365
1630070130621,-0.453352,0.87047,0.211914
1630070130631,-0.452132,0.870775,0.21276799999999998
1630070130640,-0.45292499999999997,0.870348,0.21246299999999999
1630070130650,-0.452864,0.870714,0.213439
1630070130659,-0.452132,0.8702259999999999,0.213439
1630070130669,-0.452071,0.869982,0.213134
1630070130679,-0.452498,0.8705309999999999,0.212402
1630070130688,-0.451949,0.869982,0.211487
1630070130698,-0.45078999999999997,0.869128,0.212402
1630070130707,-0.450363,0.869372,0.211731
1630070130717,-0.44956999999999997,0.867786,0.212707
1630070130727,-0.448594,0.866627,0.21228
1630070130736,-0.44834999999999997,0.866383,0.211792
1630070130746,-0.448533,0.866017,0.213134
1630070130755,-0.448716,0.865956,0.213012
1630070130765,-0.449021,0.867115,0.213439
1630070130775,-0.447862,0.868884,0.213866
1630070130784,-0.447618,0.870287,0.21398799999999998
1630070130794,-0.448228,0.869982,0.213744
1630070130803,-0.449631,0.870348,0.213256
1630070130813,-0.448777,0.86925,0.213439
1630070130823,-0.449326,0.868396,0.21411
1630070130832,-0.448777,0.869372,0.213744
1630070130842,-0.44895999999999997,0.869738,0.212585
1630070130851,-0.451034,0.869677,0.210877
1630070130861,-0.450912,0.870714,0.208864
1630070130871,-0.45048499999999997,0.873703,0.208254
1630070130880,-0.45170499999999997,0.873947,0.208986
1630070130890,-0.450729,0.869738,0.209169
1630070130899,-0.450546,0.86437,0.211426
1630070130909,-0.448777,0.8644919999999999,0.21337799999999998
1630070130919,-0.44804499999999997,0.867359,0.214537
1630070130928,-0.447008,0.8699209999999999,0.21533
1630070130938,-0.447069,0.871019,0.21520799999999998
1630070130947,-0.447801,0.870897,0.21533
1630070130957,-0.448289,0.870653,0.213805
1630070130967,-0.44865499999999997,0.869433,0.21429299999999998
1630070130976,-0.449509,0.867115,0.215574
1630070130986,-0.449753,0.867481,0.215452
1630070130995,-0.450302,0.867786,0.215452
1630070131005,-0.449631,0.869311,0.214232
1630070131015,-0.450668,0.869738,0.21429299999999998
1630070131024,-0.451156,0.870592,0.21368299999999998
1630070131034,-0.451034,0.8699209999999999,0.21472
1630070131043,-0.451156,0.870287,0.21472
1630070131053,-0.451583,0.8708359999999999,0.214049
1630070131063,-0.45200999999999997,0.870409,0.21368299999999998
1630070131072,-0.451949,0.8702259999999999,0.213866
1630070131082,-0.452071,0.869433,0.214415
1630070131091,-0.451278,0.867786,0.212402
1630070131101,-0.451766,0.868152,0.21154799999999999
1630070131111,-0.452559,0.871385,0.210633
1630070131120,-0.45170499999999997,0.872178,0.208864
1630070131130,-0.451583,0.867542,0.20984
1630070131139,-0.451339,0.863638,0.210511
1630070131149,-0.45048499999999997,0.864675,0.211304
1630070131159,-0.451339,0.866749,0.211609
1630070131168,-0.450363,0.869006,0.212585
1630070131178,-0.449936,0.870409,0.21185299999999999
1630070131187,-0.450912,0.870714,0.212585
1630070131197,-0.450973,0.870104,0.21276799999999998
1630070131207,-0.450546,0.868335,0.213134
1630070131216,-0.450668,0.868457,0.213744
1630070131226,-0.451522,0.868701,0.21411
1630070131235,-0.45139999999999997,0.869067,0.213744
1630070131245,-0.451217,0.868457,0.213561
1630070131255,-0.450424,0.869067,0.213622
1630070131264,-0.45170499999999997,0.869006,0.213561
1630070131274,-0.450668,0.869128,0.213134
1630070131283,-0.451156,0.869006,0.214659
1630070131293,-0.451156,0.870104,0.215086
1630070131303,-0.451522,0.8702259999999999,0.215879
1630070131312,-0.450546,0.869555,0.216245
1630070131322,-0.451644,0.8708359999999999,0.21612299999999998
1630070131331,-0.451827,0.869433,0.216428
1630070131341,-0.451278,0.868884,0.21594
1630070131351,-0.450973,0.869433,0.216062
1630070131360,-0.450973,0.867969,0.216062
1630070131370,-0.450851,0.867664,0.215696
1630070131379,-0.450302,0.867786,0.215696
1630070131389,-0.450241,0.867664,0.21581799999999998
1630070131399,-0.450058,0.866749,0.217038
1630070131408,-0.449631,0.866993,0.217465
1630070131418,-0.450058,0.867176,0.217282
1630070131427,-0.44956999999999997,0.866932,0.217831
1630070131437,-0.44865499999999997,0.867176,0.21770899999999999
1630070131447,-0.449021,0.868823,0.218441
1630070131456,-0.449143,0.868518,0.21716
1630070131466,-0.448777,0.868518,0.218136
1630070131475,-0.449082,0.868518,0.217892
1630070131485,-0.448899,0.866566,0.217892
1630070131495,-0.448472,0.865956,0.217465
1630070131504,-0.44743499999999997,0.866993,0.217831
1630070131514,-0.448594,0.8705309999999999,0.217404
1630070131523,-0.446947,0.871873,0.216062
1630070131533,-0.448228,0.868335,0.21594
1630070131543,-0.447984,0.869311,0.215269
1630070131552,-0.447984,0.870897,0.216245
1630070131562,-0.447679,0.867969,0.217526
1630070131571,-0.44712999999999997,0.864004,0.21923399999999998
1630070131581,-0.445788,0.8641869999999999,0.221003
1630070131591,-0.445666,0.866871,0.222406
1630070131600,-0.444507,0.870409,0.222101
1630070131610,-0.445361,0.872178,0.22197899999999998
1630070131619,-0.446459,0.871629,0.221613
1630070131629,-0.447923,0.870592,0.22075899999999998
1630070131639,-0.448716,0.868579,0.219478
1630070131648,-0.448838,0.867664,0.219783
1630070131658,-0.44895999999999997,0.868152,0.21984399999999998
1630070131667,-0.450424,0.868518,0.219722
1630070131677,-0.450546,0.868701,0.21923399999999998
1630070131687,-0.450912,0.869677,0.21831899999999999
1630070131696,-0.451278,0.868823,0.21551299999999998
1630070131706,-0.451339,0.869494,0.215696
1630070131715,-0.452193,0.869006,0.21551299999999998
1630070131725,-0.452132,0.868396,0.215391
1630070131735,-0.452437,0.868579,0.215696
1630070131744,-0.45200999999999997,0.868274,0.215147
1630070131754,-0.452437,0.867481,0.217099
1630070131763,-0.450973,0.86681,0.21581799999999998
1630070131773,-0.45139999999999997,0.868396,0.214659
1630070131783,-0.45139999999999997,0.871507,0.214537
1630070131792,-0.45139999999999997,0.871263,0.212829
1630070131802,-0.452498,0.867054,0.21337799999999998
1630070131811,-0.45261999999999997,0.862845,0.21411
1630070131821,-0.452071,0.863028,0.21520799999999998
1630070131831,-0.452376,0.865773,0.215635
1630070131840,-0.45231499999999997,0.868701,0.216062
1630070131850,-0.451766,0.870714,0.216794
1630070131859,-0.45170499999999997,0.8702259999999999,0.216184
1630070131869,-0.451278,0.868335,0.216367
1630070131879,-0.451217,0.867542,0.216001
1630070131888,-0.451583,0.866261,0.216672
1630070131898,-0.451583,0.865773,0.217587
1630070131907,-0.45231499999999997,0.866627,0.217587
1630070131917,-0.452071,0.866078,0.21777
1630070131927,-0.451522,0.866261,0.216733
1630070131936,-0.450363,0.866688,0.216672
1630070131946,-0.45139999999999997,0.867786,0.216184
1630070131955,-0.450363,0.867908,0.217221
1630070131965,-0.451034,0.866932,0.217648
1630070131975,-0.450729,0.86803,0.21831899999999999
1630070131984,-0.449814,0.868762,0.218685
1630070131994,-0.449326,0.868884,0.220027
1630070132003,-0.448838,0.868823,0.220881
1630070132013,-0.448838,0.8699209999999999,0.221186
1630070132023,-0.447984,0.869311,0.221552
1630070132032,-0.447862,0.86925,0.221918
1630070132042,-0.448472,0.868518,0.222406
1630070132051,-0.448167,0.867664,0.221552
1630070132061,-0.448106,0.868213,0.221308
1630070132071,-0.44834999999999997,0.866993,0.221247
1630070132080,-0.447679,0.866322,0.22197899999999998
1630070132090,-0.447557,0.867359,0.222467
1630070132099,-0.447252,0.866627,0.222345
1630070132109,-0.44773999999999997,0.866871,0.222833
1630070132119,-0.448167,0.867176,0.223077
1630070132128,-0.448411,0.867298,0.223382
1630070132138,-0.449021,0.868396,0.223138
1630070132147,-0.449326,0.868945,0.22265
1630070132157,-0.450363,0.868091,0.220637
1630070132167,-0.450668,0.868213,0.22045399999999998
1630070132176,-0.45078999999999997,0.867603,0.220393
1630070132186,-0.451339,0.867237,0.220515
1630070132195,-0.451217,0.86681,0.21984399999999998
1630070132205,-0.451217,0.867054,0.219722
1630070132215,-0.451766,0.866322,0.217404
1630070132224,-0.453169,0.86864,0.21581799999999998
1630070132234,-0.453596,0.871263,0.214781
1630070132243,-0.453901,0.86864,0.213805
1630070132253,-0.453352,0.8620519999999999,0.215086
1630070132263,-0.452864,0.859246,0.216428
1630070132272,-0.452681,0.861381,0.217343
1630070132282,-0.451888,0.863943,0.218075
1630070132291,-0.452742,0.867969,0.217587
1630070132301,-0.451827,0.868396,0.21655
1630070132311,-0.453047,0.868396,0.21490299999999998
1630070132320,-0.453901,0.866017,0.21472
1630070132330,-0.45414499999999997,0.864614,0.214415
1630070132339,-0.45414499999999997,0.864431,0.216001
1630070132349,-0.454694,0.863943,0.216428
1630070132359,-0.456219,0.864675,0.215574
1630070132368,-0.45566999999999996,0.865529,0.213622
1630070132378,-0.45658499999999996,0.866505,0.212646
1630070132387,-0.457622,0.866871,0.211182
1630070132397,-0.4575,0.867298,0.210206
