timestamp,ax,ay,az
1630070702484,-0.8036139999999999,0.523258,-0.254492
1630070702494,-0.804651,0.523258,-0.253882
1630070702503,-0.8057489999999999,0.527345,-0.253821
1630070702513,-0.806603,0.529419,-0.255346
1630070702523,-0.8069689999999999,0.528809,-0.256932
1630070702532,-0.804712,0.526674,-0.25973799999999997
1630070702542,-0.8023939999999999,0.523563,-0.26034799999999997
1630070702551,-0.8005639999999999,0.521733,-0.258884
1630070702561,-0.798185,0.5210009999999999,-0.257786
1630070702571,-0.79605,0.521672,-0.256932
1630070702580,-0.796294,0.5240509999999999,-0.254858
1630070702590,-0.795806,0.524478,-0.255102
1630070702599,-0.796477,0.526247,-0.255041
1630070702609,-0.796416,0.526979,-0.256078
1630070702619,-0.79666,0.525942,-0.257115
1630070702628,-0.798002,0.524966,-0.257969
1630070702638,-0.799222,0.52521,-0.259067
1630070702647,-0.7987339999999999,0.526308,-0.260409
1630070702657,-0.799161,0.527589,-0.260836
1630070702667,-0.798856,0.526857,-0.259799
1630070702676,-0.7990389999999999,0.527101,-0.260897
1630070702686,-0.798978,0.526064,-0.259677
1630070702695,-0.799405,0.525698,-0.25864
1630070702705,-0.7990389999999999,0.525576,-0.257786
1630070702715,-0.799161,0.523929,-0.256749
1630070702724,-0.8008689999999999,0.52582,-0.255407
1630070702734,-0.800991,0.525332,-0.254126
1630070702743,-0.8017839999999999,0.52582,-0.25254
1630070702753,-0.8011739999999999,0.527894,-0.252235
1630070702763,-0.800686,0.528077,-0.251991
1630070702772,-0.800991,0.527162,-0.251076
1630070702782,-0.800991,0.527833,-0.251076
1630070108062,-0.801113,0.526979,-0.251198
1630070108072,-0.799832,0.52582,-0.251015
1630070108082,-0.799771,0.524783,-0.250344
1630070108091,-0.799161,0.524783,-0.251259
1630070108101,-0.798795,0.525759,-0.251076
1630070108110,-0.798673,0.525698,-0.252784
1630070108120,-0.797575,0.526308,-0.252845
1630070108130,-0.797697,0.526308,-0.253699
1630070108139,-0.79849,0.525332,-0.254187
1630070108149,-0.7991,0.525393,-0.254797
1630070108158,-0.799222,0.525881,-0.25699299999999997
1630070108168,-0.79971,0.526125,-0.257176
1630070108178,-0.800076,0.526796,-0.25729799999999997
1630070108187,-0.799893,0.526308,-0.25925
1630070108197,-0.7996489999999999,0.526186,-0.259494
1630070108206,-0.800076,0.526064,-0.259372
1630070108216,-0.800808,0.525332,-0.258884
1630070108226,-0.801235,0.525637,-0.25864
1630070108235,-0.8008689999999999,0.526674,-0.257969
1630070108245,-0.8011739999999999,0.525637,-0.258274
1630070108254,-0.800137,0.525332,-0.257664
1630070108264,-0.799222,0.524722,-0.257786
1630070108274,-0.799161,0.523502,-0.258396
1630070108283,-0.798612,0.5246,-0.25943299999999997
1630070108293,-0.798124,0.524783,-0.25882299999999997
1630070108302,-0.798612,0.525332,-0.258579
1630070108312,-0.798124,0.524844,-0.258701
1630070108322,-0.798368,0.523563,-0.257054
1630070108331,-0.797819,0.5237459999999999,-0.25864
1630070108341,-0.797514,0.523014,-0.25912799999999997
1630070108350,-0.798551,0.522587,-0.258274
1630070108360,-0.799405,0.52399,-0.25925
1630070108370,-0.79788,0.523685,-0.2623
1630070108379,-0.799832,0.523624,-0.262849
1630070108389,-0.798917,0.524112,-0.26352
1630070108398,-0.7987339999999999,0.523258,-0.262727
1630070108408,-0.7999539999999999,0.520757,-0.261934
1630070108418,-0.8011739999999999,0.52094,-0.26156799999999997
1630070108427,-0.801235,0.521794,-0.261202
1630070108437,-0.801845,0.5240509999999999,-0.26095799999999997
1630070108446,-0.802516,0.526308,-0.262483
1630070108456,-0.801906,0.525576,-0.264191
1630070108466,-0.802211,0.524295,-0.265838
1630070108475,-0.801723,0.521367,-0.264191
1630070108485,-0.7999539999999999,0.520208,-0.263337
1630070108494,-0.7990389999999999,0.519964,-0.262605
1630070108504,-0.797148,0.519964,-0.26156799999999997
1630070108514,-0.797209,0.5216109999999999,-0.260775
1630070108523,-0.797026,0.522038,-0.261141
1630070108533,-0.7984289999999999,0.523014,-0.261324
1630070108542,-0.798368,0.5234409999999999,-0.26126299999999997
1630070108552,-0.798856,0.521794,-0.26108
1630070108562,-0.7987339999999999,0.520208,-0.260836
1630070108571,-0.7990389999999999,0.519354,-0.26108
1630070108581,-0.8005639999999999,0.5206959999999999,-0.261507
1630070108590,-0.802821,0.52277,-0.263032
1630070108600,-0.802821,0.524356,-0.262605
1630070108610,-0.803248,0.523868,-0.26291
1630070108619,-0.8030039999999999,0.5234409999999999,-0.26291
1630070108629,-0.801906,0.522404,-0.263154
1630070108638,-0.802028,0.521855,-0.26187299999999997
1630070108648,-0.801906,0.5213059999999999,-0.25973799999999997
1630070108658,-0.8023939999999999,0.522343,-0.258274
1630070108667,-0.802821,0.521245,-0.256139
1630070108677,-0.801723,0.52399,-0.255407
1630070108686,-0.8011739999999999,0.525698,-0.25498
1630070108696,-0.800625,0.525149,-0.254797
1630070108706,-0.801418,0.524783,-0.255956
1630070108715,-0.800808,0.523258,-0.255712
1630070108725,-0.800381,0.523075,-0.256017
1630070108734,-0.800808,0.522099,-0.256566
1630070108744,-0.7999539999999999,0.521794,-0.25681
1630070108754,-0.799466,0.522648,-0.256749
1630070108763,-0.799283,0.5225259999999999,-0.257664
1630070108773,-0.800442,0.524539,-0.257237
1630070108782,-0.800808,0.524356,-0.258152
1630070108792,-0.800686,0.523807,-0.258091
1630070108802,-0.801418,0.523258,-0.25821299999999997
1630070108811,-0.80093,0.52338,-0.258701
1630070108821,-0.800808,0.523807,-0.258945
1630070108830,-0.8005639999999999,0.524905,-0.25882299999999997
1630070108840,-0.801662,0.524722,-0.259189
1630070108850,-0.80154,0.525332,-0.25912799999999997
1630070108859,-0.801845,0.524356,-0.25925
1630070108869,-0.8014789999999999,0.52399,-0.25882299999999997
1630070108878,-0.800198,0.5237459999999999,-0.259006
1630070108888,-0.7999539999999999,0.523319,-0.258579
1630070108898,-0.7990389999999999,0.5237459999999999,-0.258335
1630070108907,-0.799161,0.523685,-0.258396
1630070108917,-0.799222,0.524295,-0.25790799999999997
1630070108926,-0.7993439999999999,0.523807,-0.25864
1630070108936,-0.799161,0.524478,-0.258884
1630070108946,-0.799222,0.523502,-0.259616
1630070108955,-0.797819,0.5234409999999999,-0.259555
1630070108965,-0.799588,0.524234,-0.260592
1630070108974,-0.800686,0.524539,-0.26095799999999997
1630070108984,-0.8005639999999999,0.525149,-0.260836
1630070108994,-0.800503,0.524173,-0.261385
1630070109003,-0.799771,0.523563,-0.26108
1630070109013,-0.798673,0.523502,-0.261751
1630070109022,-0.799405,0.52277,-0.26169
1630070109032,-0.79849,0.521428,-0.261751
1630070109042,-0.799832,0.5237459999999999,-0.26187299999999997
1630070109051,-0.7987339999999999,0.52338,-0.262605
1630070109061,-0.7987339999999999,0.523929,-0.264496
1630070109070,-0.797514,0.52216,-0.264679
1630070109080,-0.798002,0.5225259999999999,-0.26352
1630070109090,-0.797819,0.52216,-0.262605
1630070109099,-0.799588,0.5219159999999999,-0.261629
1630070109109,-0.80154,0.524661,-0.263032
1630070109118,-0.8026989999999999,0.528077,-0.26187299999999997
1630070109128,-0.802211,0.529846,-0.264008
1630070109138,-0.8011739999999999,0.52887,-0.265899
1630070109147,-0.80093,0.524966,-0.26718
1630070109157,-0.8005639999999999,0.521794,-0.267302
1630070109166,-0.8002589999999999,0.520757,-0.267851
1630070109176,-0.798185,0.520879,-0.266326
1630070109186,-0.797819,0.520757,-0.265716
1630070109195,-0.796111,0.522038,-0.265106
1630070109205,-0.795867,0.524905,-0.265106
1630070109214,-0.797026,0.524844,-0.264313
1630070109224,-0.796233,0.525515,-0.26413
1630070109234,-0.796172,0.5240509999999999,-0.262971
1630070109243,-0.795745,0.523502,-0.263581
1630070109253,-0.797148,0.523075,-0.262422
1630070109262,-0.796782,0.522709,-0.262178
1630070109272,-0.797514,0.523502,-0.262483
1630070109282,-0.799283,0.525454,-0.263093
1630070109291,-0.798978,0.526674,-0.262788
1630070109301,-0.799466,0.526064,-0.263215
1630070109310,-0.798795,0.526308,-0.263093
1630070109320,-0.797026,0.525515,-0.263337
1630070109330,-0.797087,0.52338,-0.261629
1630070109339,-0.798551,0.524417,-0.261324
1630070109349,-0.79971,0.524356,-0.25973799999999997
1630070109358,-0.799832,0.526796,-0.259555
1630070109368,-0.8002589999999999,0.529358,-0.25925
1630070109378,-0.801296,0.529297,-0.258945
1630070109387,-0.8017839999999999,0.527711,-0.259067
1630070109397,-0.801052,0.526186,-0.260104
1630070109406,-0.800991,0.524844,-0.259006
1630070109416,-0.800198,0.524478,-0.259494
1630070109426,-0.7996489999999999,0.5246,-0.259067
1630070109435,-0.798673,0.52521,-0.259311
1630070109445,-0.7991,0.527223,-0.259982
1630070109454,-0.7990389999999999,0.526247,-0.26047
1630070109464,-0.798246,0.526308,-0.259006
1630070109474,-0.798307,0.526247,-0.258152
1630070109483,-0.7993439999999999,0.526613,-0.25851799999999997
1630070109493,-0.799222,0.526857,-0.258701
1630070109502,-0.800076,0.527894,-0.258884
1630070109512,-0.798612,0.527162,-0.259494
1630070109522,-0.79849,0.52765,-0.260104
1630070109531,-0.799283,0.527345,-0.26047
1630070109541,-0.79971,0.52704,-0.260714
1630070109550,-0.798917,0.527894,-0.261751
1630070109560,-0.797636,0.527528,-0.262117
1630070109570,-0.797819,0.527467,-0.262666
1630070109579,-0.797148,0.526735,-0.262788
1630070109589,-0.795501,0.525942,-0.263703
1630070109598,-0.794769,0.526552,-0.263642
1630070109608,-0.794342,0.526735,-0.264374
1630070109618,-0.79483,0.526491,-0.264618
1630070109627,-0.79422,0.52582,-0.264923
1630070109637,-0.793793,0.525881,-0.264252
1630070109646,-0.793427,0.52765,-0.264435
1630070109656,-0.794464,0.527528,-0.265167
1630070109666,-0.79483,0.526735,-0.265838
1630070109675,-0.795013,0.527406,-0.265289
1630070109685,-0.794769,0.526308,-0.265594
1630070109694,-0.794098,0.525881,-0.265472
1630070109704,-0.794159,0.525088,-0.264801
1630070109714,-0.794891,0.527101,-0.264435
1630070109723,-0.794708,0.527833,-0.264679
1630070109733,-0.794525,0.527223,-0.265716
1630070109742,-0.79483,0.526125,-0.265594
1630070109752,-0.795562,0.525393,-0.265533
1630070109762,-0.795379,0.524722,-0.263886
1630070109771,-0.796904,0.526003,-0.263581
1630070109781,-0.798551,0.527833,-0.263947
1630070109790,-0.800198,0.52948,-0.264252
1630070109800,-0.800686,0.531493,-0.264374
1630070109810,-0.801235,0.531432,-0.264618
1630070109819,-0.799527,0.529175,-0.265594
1630070109829,-0.798673,0.525942,-0.267302
1630070109838,-0.79849,0.52338,-0.26596
1630070109848,-0.796782,0.522953,-0.265228
1630070109858,-0.796416,0.52338,-0.264191
1630070109867,-0.796294,0.5240509999999999,-0.263642
1630070109877,-0.795318,0.52521,-0.262544
1630070109886,-0.795318,0.527528,-0.261751
1630070109896,-0.795745,0.528077,-0.26169
1630070109906,-0.796782,0.527833,-0.260287
1630070109915,-0.796477,0.528443,-0.259982
1630070109925,-0.796477,0.527772,-0.260592
1630070109934,-0.797026,0.526796,-0.259921
1630070109944,-0.798246,0.526979,-0.260104
1630070109954,-0.798063,0.527101,-0.260531
1630070109963,-0.797819,0.52765,-0.261995
1630070109973,-0.797941,0.527406,-0.261141
1630070109982,-0.798612,0.528199,-0.25986
1630070109992,-0.798002,0.52948,-0.260226
1630070110002,-0.797148,0.526003,-0.258762
1630070110011,-0.798368,0.524661,-0.257542
1630070110021,-0.799222,0.5240509999999999,-0.255956
1630070110030,-0.800076,0.5246,-0.255285
1630070110040,-0.799771,0.527833,-0.255651
1630070110050,-0.80093,0.530334,-0.25498
1630070110059,-0.801906,0.531188,-0.254675
1630070110069,-0.8011739999999999,0.528382,-0.254675
1630070110078,-0.800442,0.526796,-0.255285
1630070110088,-0.80154,0.526064,-0.255102
1630070110098,-0.800442,0.526125,-0.255529
1630070110107,-0.7990389999999999,0.527223,-0.256139
1630070110117,-0.797697,0.526552,-0.256627
1630070110126,-0.797392,0.526308,-0.256322
1630070110136,-0.79666,0.527223,-0.25742
1630070110146,-0.797026,0.526003,-0.257542
1630070110155,-0.797819,0.526186,-0.256627
1630070110165,-0.797575,0.527589,-0.256932
1630070110174,-0.79727,0.527589,-0.256749
1630070110184,-0.798856,0.528016,-0.257542
1630070110194,-0.79849,0.528138,-0.258152
1630070110203,-0.798368,0.527772,-0.258579
1630070110213,-0.79788,0.528382,-0.25912799999999997
1630070110222,-0.798246,0.527345,-0.260409
1630070110232,-0.797819,0.52826,-0.260226
1630070110242,-0.7987339999999999,0.528992,-0.259494
1630070110251,-0.798612,0.529114,-0.259555
1630070110261,-0.7987339999999999,0.529724,-0.259555
1630070110270,-0.798063,0.52948,-0.25851799999999997
1630070110280,-0.797758,0.529236,-0.258884
1630070110290,-0.797636,0.52887,-0.25882299999999997
1630070110299,-0.795806,0.528565,-0.259921
1630070110309,-0.795562,0.529846,-0.258884
1630070110318,-0.796904,0.529053,-0.25973799999999997
1630070110328,-0.796904,0.529114,-0.258091
1630070110338,-0.795074,0.528687,-0.258579
1630070110347,-0.795623,0.529114,-0.258762
1630070110357,-0.794952,0.530273,-0.25864
1630070110366,-0.794342,0.530151,-0.25912799999999997
1630070110376,-0.793793,0.529541,-0.25851799999999997
1630070110386,-0.793305,0.529907,-0.259372
1630070110395,-0.794342,0.529663,-0.258396
1630070110405,-0.795318,0.529724,-0.257786
1630070110414,-0.794952,0.530151,-0.25668799999999997
1630070110424,-0.79422,0.529236,-0.25803
1630070110434,-0.795074,0.529907,-0.256505
1630070110443,-0.795989,0.5307,-0.254797
1630070110453,-0.796172,0.5307,-0.25315
1630070110462,-0.797392,0.530456,-0.253699
1630070110472,-0.797209,0.531432,-0.25437
1630070110482,-0.798124,0.533079,-0.254675
1630070110491,-0.798612,0.535641,-0.25638299999999997
1630070110501,-0.798246,0.537654,-0.25742
1630070110510,-0.797331,0.535031,-0.256627
1630070110520,-0.796843,0.531249,-0.25729799999999997
1630070110530,-0.796416,0.53009,-0.258396
1630070110539,-0.795196,0.528016,-0.258335
1630070110549,-0.794891,0.526308,-0.257542
1630070110558,-0.793854,0.524112,-0.256444
1630070110568,-0.791963,0.5206959999999999,-0.254675
1630070110578,-0.792146,0.529419,-0.254919
1630070110587,-0.794769,0.53375,-0.25790799999999997
1630070110597,-0.795379,0.535458,-0.25803
1630070110606,-0.796477,0.5361899999999999,-0.257176
1630070110616,-0.796721,0.533872,-0.25790799999999997
1630070110626,-0.796233,0.532042,-0.256871
1630070110635,-0.796416,0.530883,-0.256017
1630070110645,-0.797453,0.530456,-0.254248
1630070110654,-0.797514,0.529785,-0.253272
1630070110664,-0.797026,0.52948,-0.252174
1630070110674,-0.796965,0.530334,-0.250527
1630070110683,-0.797819,0.529114,-0.249917
1630070110693,-0.798063,0.530944,-0.247721
1630070110702,-0.796965,0.529236,-0.246684
1630070110712,-0.79727,0.529175,-0.246501
1630070110722,-0.798063,0.530334,-0.24570799999999998
1630070110731,-0.798673,0.52887,-0.244671
1630070110741,-0.79849,0.530029,-0.243817
1630070110750,-0.800625,0.532042,-0.244122
1630070110760,-0.800991,0.531432,-0.24326799999999998
1630070110770,-0.801357,0.531432,-0.243939
1630070110779,-0.801967,0.531676,-0.24448799999999998
1630070110789,-0.80215,0.530578,-0.24461
1630070110798,-0.8017839999999999,0.529419,-0.24418299999999998
1630070110808,-0.801418,0.528504,-0.245769
1630070110818,-0.8017839999999999,0.52826,-0.24644
1630070110827,-0.80093,0.528809,-0.247172
1630070110837,-0.801052,0.52948,-0.248697
1630070110846,-0.800503,0.528199,-0.24912399999999998
1630070110856,-0.801052,0.529175,-0.248575
1630070110866,-0.801906,0.529114,-0.24827
1630070110875,-0.802272,0.529114,-0.24942899999999998
1630070110885,-0.80154,0.529114,-0.24973399999999998
1630070110894,-0.802028,0.527833,-0.249368
1630070110904,-0.8017839999999999,0.527406,-0.249246
1630070110914,-0.801357,0.52704,-0.250771
1630070110923,-0.801357,0.527223,-0.250161
1630070110933,-0.800747,0.527101,-0.2501
1630070110942,-0.80093,0.52704,-0.251076
1630070110952,-0.80154,0.52582,-0.250832
1630070110962,-0.801601,0.525271,-0.251137
1630070110971,-0.801967,0.525271,-0.25193
1630070110981,-0.801418,0.525942,-0.252479
1630070110990,-0.8020889999999999,0.525637,-0.253272
1630070111000,-0.802455,0.525454,-0.252906
1630070111010,-0.8017839999999999,0.524844,-0.252174
1630070111019,-0.8008689999999999,0.524112,-0.252052
1630070111029,-0.801052,0.522892,-0.252662
1630070111038,-0.800503,0.523807,-0.250832
1630070111048,-0.799527,0.524478,-0.251137
1630070111058,-0.799771,0.524356,-0.251076
1630070111067,-0.799161,0.524295,-0.250832
1630070111077,-0.7996489999999999,0.523929,-0.251991
1630070111086,-0.801357,0.522953,-0.252113
1630070111096,-0.8002589999999999,0.522099,-0.252784
1630070111106,-0.800076,0.5216109999999999,-0.252357
1630070111115,-0.8017839999999999,0.522282,-0.252662
1630070111125,-0.801662,0.524417,-0.254065
1630070111134,-0.802577,0.525393,-0.255102
1630070111144,-0.802028,0.524417,-0.255529
1630070111154,-0.802455,0.525393,-0.254492
1630070111163,-0.80276,0.525027,-0.253394
1630070111173,-0.804346,0.5246,-0.252296
1630070111182,-0.805078,0.524478,-0.251991
1630070111192,-0.805627,0.526308,-0.250954
1630070111202,-0.804163,0.529541,-0.251625
1630070111211,-0.802882,0.529419,-0.252479
1630070111221,-0.802455,0.527955,-0.252235
1630070111230,-0.802028,0.524478,-0.253272
1630070111240,-0.802028,0.523075,-0.25254
1630070111250,-0.800747,0.523075,-0.252906
1630070111259,-0.799466,0.5240509999999999,-0.25254
1630070111269,-0.799588,0.524539,-0.251625
1630070111278,-0.799893,0.525698,-0.252479
1630070111288,-0.799893,0.527955,-0.252967
1630070111298,-0.799771,0.528687,-0.253333
1630070111307,-0.800442,0.529419,-0.251076
1630070111317,-0.799283,0.528199,-0.251015
1630070111326,-0.800503,0.528199,-0.250527
1630070111336,-0.799466,0.527162,-0.250588
1630070111346,-0.799405,0.52765,-0.252296
1630070111355,-0.799222,0.527772,-0.252906
1630070111365,-0.799283,0.527833,-0.252662
1630070111374,-0.798917,0.527772,-0.252723
1630070111384,-0.800076,0.528443,-0.252357
1630070111394,-0.799588,0.529236,-0.252601
1630070111403,-0.798124,0.527284,-0.251747
1630070111413,-0.799588,0.527955,-0.250832
1630070111422,-0.800442,0.528382,-0.248636
1630070111432,-0.800076,0.527528,-0.24705
1630070111442,-0.799832,0.529907,-0.24644
1630070111451,-0.800747,0.532042,-0.245891
1630070111461,-0.800381,0.531188,-0.246562
1630070111470,-0.8002589999999999,0.528931,-0.246745
1630070111480,-0.80032,0.528504,-0.247721
1630070111490,-0.800198,0.527955,-0.24827
1630070111499,-0.79971,0.527528,-0.24827
1630070111509,-0.799161,0.52643,-0.249063
1630070111518,-0.7987339999999999,0.527223,-0.249978
1630070111528,-0.79971,0.52887,-0.250832
1630070111538,-0.799466,0.529297,-0.250832
1630070111547,-0.798551,0.529114,-0.251076
1630070111557,-0.798917,0.528626,-0.250527
1630070111566,-0.799405,0.528992,-0.251198
1630070111576,-0.799222,0.528321,-0.251808
1630070111586,-0.7999539999999999,0.52704,-0.253821
1630070111595,-0.7991,0.528199,-0.253455
1630070111605,-0.799466,0.528565,-0.254492
1630070111614,-0.8008689999999999,0.528504,-0.254248
1630070111624,-0.801662,0.528443,-0.255468
1630070111634,-0.800747,0.52826,-0.255346
1630070111643,-0.800442,0.528199,-0.255712
1630070111653,-0.7996489999999999,0.528138,-0.255102
1630070111662,-0.798917,0.52765,-0.254553
1630070111672,-0.797941,0.526857,-0.254187
1630070111682,-0.7999539999999999,0.526125,-0.254004
1630070111691,-0.799588,0.527772,-0.25376
1630070111701,-0.799588,0.527467,-0.254004
1630070111710,-0.799466,0.527223,-0.254553
1630070111720,-0.801113,0.526552,-0.254553
1630070111730,-0.800442,0.52704,-0.254309
1630070111739,-0.800076,0.527528,-0.254919
1630070111749,-0.8002589999999999,0.526491,-0.25437
1630070111758,-0.799405,0.526735,-0.254431
1630070111768,-0.800015,0.527284,-0.255041
1630070111778,-0.800503,0.525454,-0.255346
1630070111787,-0.800381,0.525759,-0.255224
1630070111797,-0.7999539999999999,0.524844,-0.255102
1630070111806,-0.800076,0.525942,-0.253394
1630070111816,-0.8014789999999999,0.527955,-0.254858
1630070111826,-0.800015,0.527223,-0.255102
1630070111835,-0.799771,0.526796,-0.255224
1630070111845,-0.799832,0.525576,-0.255224
1630070111854,-0.800015,0.525515,-0.25376
1630070111864,-0.799893,0.524478,-0.252845
1630070111874,-0.80215,0.527162,-0.252723
1630070111883,-0.8036139999999999,0.530212,-0.25315
1630070111893,-0.804041,0.532774,-0.253028
1630070111902,-0.804285,0.533079,-0.254431
1630070111912,-0.802882,0.529175,-0.255163
1630070111922,-0.8011739999999999,0.525393,-0.257115
1630070111931,-0.80032,0.523502,-0.256566
1630070111941,-0.799832,0.523624,-0.25681
1630070111950,-0.798978,0.524539,-0.255285
1630070111960,-0.798246,0.52582,-0.253699
1630070111970,-0.797514,0.525698,-0.254248
1630070111979,-0.797697,0.526857,-0.253028
1630070111989,-0.79849,0.527528,-0.252906
1630070111998,-0.7990389999999999,0.527833,-0.252296
1630070112008,-0.7993439999999999,0.527833,-0.251808
1630070112018,-0.8005639999999999,0.528626,-0.250466
1630070112027,-0.800625,0.52887,-0.250832
1630070112037,-0.800015,0.526125,-0.249795
1630070112046,-0.7993439999999999,0.52704,-0.249673
1630070112056,-0.799405,0.529236,-0.249917
1630070112066,-0.800381,0.529541,-0.251076
1630070112075,-0.799222,0.529968,-0.250466
1630070112085,-0.7990389999999999,0.529846,-0.2501
1630070112094,-0.797941,0.526735,-0.24881899999999998
1630070112104,-0.799161,0.525698,-0.24766
1630070112114,-0.799832,0.526491,-0.248026
1630070112123,-0.800198,0.527162,-0.248697
1630070112133,-0.800076,0.530456,-0.249002
1630070112142,-0.801052,0.532835,-0.249856
1630070112152,-0.80215,0.532408,-0.250161
1630070112162,-0.8011739999999999,0.530639,-0.251137
1630070112171,-0.80154,0.528077,-0.251564
1630070112181,-0.800747,0.527223,-0.252357
1630070112190,-0.799771,0.526979,-0.253394
1630070112200,-0.797636,0.527345,-0.253089
1630070112210,-0.797026,0.528504,-0.253943
1630070112219,-0.795684,0.528382,-0.255041
1630070112229,-0.796965,0.528138,-0.254736
1630070112238,-0.796233,0.528992,-0.254675
1630070112248,-0.79666,0.528931,-0.254797
1630070112258,-0.797148,0.52948,-0.255529
1630070112267,-0.798002,0.531005,-0.2562
1630070112277,-0.7993439999999999,0.531249,-0.256444
1630070112286,-0.7991,0.532652,-0.257664
1630070112296,-0.798856,0.532591,-0.257664
1630070112306,-0.7991,0.531676,-0.25851799999999997
1630070112315,-0.7984289999999999,0.53192,-0.259189
1630070112325,-0.798978,0.531249,-0.258579
1630070112334,-0.798917,0.5307,-0.25851799999999997
1630070112344,-0.798002,0.529907,-0.258335
1630070112354,-0.796843,0.530029,-0.25925
1630070112363,-0.797331,0.529846,-0.256627
1630070112373,-0.797697,0.529236,-0.25681
1630070112382,-0.797514,0.528748,-0.254736
1630070112392,-0.796904,0.528687,-0.253455
1630070112402,-0.797575,0.527955,-0.253272
1630070112411,-0.798246,0.527406,-0.253272
1630070112421,-0.79727,0.528077,-0.252723
1630070112430,-0.798124,0.527711,-0.253272
1630070112440,-0.798002,0.528321,-0.253394
1630070112450,-0.798246,0.528382,-0.253089
1630070112459,-0.799222,0.528138,-0.252784
1630070112469,-0.798368,0.527162,-0.251442
1630070112478,-0.7987339999999999,0.527955,-0.25132
1630070112488,-0.798856,0.52887,-0.251503
1630070112498,-0.79788,0.526796,-0.252296
1630070112507,-0.798978,0.526003,-0.253638
1630070112517,-0.7993439999999999,0.52826,-0.252662
1630070112526,-0.798612,0.527894,-0.252357
1630070112536,-0.798856,0.52704,-0.251442
1630070112546,-0.8011739999999999,0.52765,-0.251076
1630070112555,-0.8026989999999999,0.529053,-0.250832
1630070112565,-0.802638,0.532164,-0.251991
1630070112574,-0.802882,0.53314,-0.253089
1630070112584,-0.8020889999999999,0.531005,-0.254736
1630070112594,-0.801662,0.52765,-0.254736
1630070112603,-0.8008689999999999,0.525576,-0.255224
1630070112613,-0.8005639999999999,0.524356,-0.253272
1630070112622,-0.799161,0.52399,-0.253089
1630070112632,-0.798612,0.525515,-0.25193
1630070112642,-0.796904,0.525027,-0.252235
1630070112651,-0.797941,0.527711,-0.252601
1630070112661,-0.798185,0.529358,-0.252723
1630070112670,-0.799466,0.530761,-0.252845
1630070112680,-0.799527,0.529297,-0.251808
1630070112690,-0.799222,0.529724,-0.250405
1630070112699,-0.799527,0.528748,-0.250405
1630070112709,-0.798856,0.528382,-0.250588
1630070112718,-0.798368,0.528077,-0.251137
1630070112728,-0.799161,0.529114,-0.250771
1630070112738,-0.798551,0.529968,-0.251381
1630070112747,-0.798307,0.528138,-0.251259
1630070112757,-0.798856,0.53009,-0.250466
1630070112766,-0.797758,0.529236,-0.250222
1630070112776,-0.798978,0.527894,-0.250039
1630070112786,-0.799832,0.528809,-0.24912399999999998
1630070112795,-0.800503,0.527345,-0.247538
1630070112805,-0.8011739999999999,0.528748,-0.24631799999999998
1630070112814,-0.80093,0.531615,-0.24509799999999998
1630070112824,-0.8017839999999999,0.530944,-0.24461
1630070112834,-0.8023939999999999,0.529724,-0.244305
1630070112843,-0.80154,0.529114,-0.244549
1630070112853,-0.802333,0.527711,-0.243939
1630070112862,-0.8017839999999999,0.527955,-0.24339
1630070112872,-0.800381,0.526857,-0.24265799999999998
1630070112882,-0.8005639999999999,0.526491,-0.241621
1630070112891,-0.801601,0.527162,-0.241804
1630070112901,-0.801052,0.527894,-0.242719
1630070112910,-0.800686,0.527772,-0.241316
1630070112920,-0.801052,0.528138,-0.241926
1630070112930,-0.802028,0.52765,-0.24217
1630070112939,-0.8023939999999999,0.528077,-0.24357299999999998
1630070112949,-0.802943,0.526979,-0.243634
1630070112958,-0.80215,0.528016,-0.244122
1630070112968,-0.803126,0.52826,-0.24387799999999998
1630070112978,-0.8030039999999999,0.52826,-0.244854
1630070112987,-0.803065,0.527467,-0.245159
1630070112997,-0.8036139999999999,0.526918,-0.245891
1630070113006,-0.803553,0.526613,-0.246684
1630070113016,-0.802882,0.526186,-0.246135
1630070113026,-0.803675,0.526552,-0.246745
1630070113035,-0.8030039999999999,0.52643,-0.246928
1630070113045,-0.802272,0.526003,-0.24631799999999998
1630070113054,-0.802516,0.52643,-0.245769
1630070113064,-0.80215,0.525454,-0.245586
1630070113074,-0.8030039999999999,0.526552,-0.245037
1630070113083,-0.803553,0.526247,-0.244366
1630070113093,-0.80398,0.525881,-0.244427
1630070113102,-0.803553,0.52643,-0.244732
1630070113112,-0.803858,0.526003,-0.244854
1630070113122,-0.803858,0.525881,-0.246196
1630070113131,-0.804102,0.525088,-0.246196
1630070113141,-0.803492,0.524356,-0.24759899999999999
1630070113150,-0.802577,0.524356,-0.247172
1630070113160,-0.802882,0.523014,-0.248636
1630070113170,-0.803492,0.524417,-0.248392
1630070113179,-0.8036139999999999,0.523868,-0.248392
1630070113189,-0.803492,0.5237459999999999,-0.248636
1630070113198,-0.803431,0.524783,-0.247477
1630070113208,-0.80398,0.52399,-0.245769
1630070113218,-0.804407,0.522953,-0.244671
1630070113227,-0.8060539999999999,0.524417,-0.244915
1630070113237,-0.80703,0.525454,-0.24479299999999998
1630070113246,-0.80642,0.527162,-0.243817
1630070113256,-0.807213,0.529541,-0.24461
1630070113266,-0.807762,0.528565,-0.245952
1630070113275,-0.806298,0.524295,-0.245952
1630070113285,-0.804956,0.522282,-0.246562
1630070113294,-0.804163,0.520452,-0.24448799999999998
1630070113304,-0.803675,0.521062,-0.243939
1630070113314,-0.802333,0.521489,-0.243451
1630070113323,-0.802943,0.52277,-0.243024
1630070113333,-0.802516,0.524112,-0.244
1630070113342,-0.802028,0.526125,-0.244671
1630070113352,-0.802882,0.526796,-0.243817
1630070113362,-0.803736,0.526003,-0.242414
1630070113371,-0.803553,0.525332,-0.242536
1630070113381,-0.803736,0.524783,-0.241804
1630070113390,-0.803431,0.524844,-0.24204799999999999
1630070113400,-0.804102,0.525332,-0.242536
1630070113410,-0.8042239999999999,0.526247,-0.242902
1630070113419,-0.804407,0.525698,-0.24418299999999998
1630070113429,-0.80398,0.525393,-0.24570799999999998
1630070113438,-0.80459,0.526735,-0.24357299999999998
1630070113448,-0.804651,0.528016,-0.244366
1630070113458,-0.803675,0.52582,-0.244244
1630070113467,-0.8052,0.526186,-0.242597
1630070113477,-0.805383,0.527223,-0.241865
1630070113486,-0.8052,0.526308,-0.24015699999999998
1630070113496,-0.806176,0.528382,-0.238815
1630070113506,-0.805993,0.528565,-0.238998
1630070113515,-0.805566,0.528382,-0.23912
1630070113525,-0.8048339999999999,0.528382,-0.239974
1630070113534,-0.804956,0.528016,-0.240096
1630070113544,-0.804407,0.525942,-0.24095
1630070113554,-0.803248,0.525515,-0.240828
1630070113563,-0.802516,0.524417,-0.241804
1630070113573,-0.80093,0.525576,-0.242841
1630070113582,-0.800442,0.526613,-0.243085
1630070113592,-0.801113,0.526613,-0.24296299999999998
1630070113602,-0.801662,0.526918,-0.243756
1630070113611,-0.802272,0.526979,-0.24326799999999998
1630070113621,-0.8023939999999999,0.528321,-0.243695
1630070113630,-0.802882,0.528138,-0.243085
1630070113640,-0.8042239999999999,0.527528,-0.24265799999999998
1630070113650,-0.804346,0.528687,-0.244305
1630070113659,-0.804468,0.527589,-0.24418299999999998
1630070113669,-0.803553,0.526003,-0.244366
1630070113678,-0.802516,0.525515,-0.24448799999999998
1630070113688,-0.80398,0.524661,-0.244366
1630070113698,-0.804773,0.525271,-0.243451
1630070113707,-0.80398,0.52521,-0.24357299999999998
1630070113717,-0.80459,0.526552,-0.243634
1630070113726,-0.8057489999999999,0.52704,-0.24296299999999998
1630070113736,-0.8052,0.526369,-0.24326799999999998
1630070113746,-0.80459,0.525698,-0.243512
1630070113755,-0.804468,0.52582,-0.24296299999999998
1630070113765,-0.803248,0.525027,-0.242475
1630070113774,-0.803736,0.525515,-0.243695
1630070113784,-0.803248,0.525759,-0.243634
1630070113794,-0.804041,0.524173,-0.244732
1630070113803,-0.803492,0.524783,-0.24522
1630070113813,-0.8039189999999999,0.524173,-0.24644
1630070113822,-0.803675,0.523624,-0.246928
1630070113832,-0.804041,0.523319,-0.246989
1630070113842,-0.804895,0.523685,-0.246196
1630070113851,-0.8045289999999999,0.523807,-0.246684
1630070113861,-0.805017,0.525149,-0.24766
1630070113870,-0.805627,0.525881,-0.247172
1630070113880,-0.8054439999999999,0.524661,-0.246562
1630070113890,-0.805261,0.525027,-0.244976
1630070113899,-0.804407,0.524234,-0.244732
1630070113909,-0.805566,0.523563,-0.243146
1630070113918,-0.805932,0.526796,-0.242536
1630070113928,-0.806481,0.529663,-0.24217
1630070113938,-0.8060539999999999,0.532042,-0.243329
1630070113947,-0.805261,0.529846,-0.243146
1630070113957,-0.8033089999999999,0.52582,-0.244122
1630070113966,-0.802882,0.5237459999999999,-0.24357299999999998
1630070113976,-0.802028,0.524173,-0.243329
1630070113986,-0.80154,0.523624,-0.243329
1630070113995,-0.801662,0.5240509999999999,-0.242719
1630070114005,-0.7999539999999999,0.526186,-0.242902
1630070114014,-0.799283,0.527772,-0.24174299999999999
1630070114024,-0.799893,0.529907,-0.240401
1630070114034,-0.800076,0.529602,-0.240401
1630070114043,-0.8014789999999999,0.528992,-0.240035
1630070114053,-0.8011739999999999,0.527345,-0.239181
1630070114062,-0.802272,0.526735,-0.23802199999999998
1630070114072,-0.803126,0.527589,-0.238876
1630070114082,-0.803492,0.527772,-0.23985199999999998
1630070114091,-0.804346,0.530395,-0.240523
1630070114101,-0.804407,0.530944,-0.241316
1630070114110,-0.804651,0.531188,-0.240706
1630070114120,-0.804468,0.53192,-0.239303
1630070114130,-0.801845,0.528687,-0.238266
1630070114139,-0.8033089999999999,0.527772,-0.237168
1630070114149,-0.802638,0.528382,-0.235338
1630070114158,-0.803492,0.529297,-0.23363
1630070114168,-0.803736,0.532103,-0.234362
1630070114178,-0.803126,0.532286,-0.234484
1630070114187,-0.8042239999999999,0.532103,-0.235216
1630070114197,-0.803248,0.531371,-0.235765
1630070114206,-0.803248,0.531127,-0.23729
1630070114216,-0.80398,0.530822,-0.236436
1630070114226,-0.803065,0.529846,-0.236558
1630070114235,-0.8023939999999999,0.529297,-0.237168
1630070114245,-0.801662,0.530578,-0.238205
1630070114254,-0.802455,0.531615,-0.238693
1630070114264,-0.801723,0.53131,-0.238876
1630070114274,-0.801723,0.53131,-0.237778
1630070114283,-0.8023939999999999,0.531737,-0.2379
1630070114293,-0.802638,0.53192,-0.237961
1630070114302,-0.801845,0.531615,-0.237656
1630070114312,-0.801601,0.532286,-0.23802199999999998
1630070114322,-0.800625,0.531432,-0.237961
1630070114331,-0.801052,0.531371,-0.238571
1630070114341,-0.80215,0.532652,-0.238205
1630070114350,-0.802211,0.531676,-0.239486
1630070114360,-0.801235,0.531249,-0.239791
1630070114370,-0.80032,0.53131,-0.239425
1630070114379,-0.800015,0.531981,-0.240279
1630070114389,-0.800015,0.531371,-0.240218
1630070114398,-0.8002589999999999,0.531554,-0.239974
1630070114408,-0.800137,0.531554,-0.239425
1630070114418,-0.798917,0.532103,-0.239791
1630070114427,-0.798551,0.530761,-0.24015699999999998
1630070114437,-0.79849,0.529236,-0.24046199999999998
1630070114446,-0.798612,0.529358,-0.241194
1630070114456,-0.79971,0.529846,-0.24235299999999999
1630070114466,-0.800442,0.530151,-0.24296299999999998
1630070114475,-0.8002589999999999,0.529785,-0.243756
1630070114485,-0.8017839999999999,0.528809,-0.244366
1630070114494,-0.8033089999999999,0.530456,-0.243512
1630070114504,-0.802516,0.5307,-0.24339
1630070114514,-0.802272,0.529602,-0.243451
1630070114523,-0.801723,0.528748,-0.243756
1630070114533,-0.803858,0.528443,-0.241316
1630070114542,-0.802577,0.526064,-0.240096
1630070114552,-0.804346,0.525942,-0.239364
1630070114562,-0.805993,0.528687,-0.239791
1630070114571,-0.807823,0.532652,-0.23954699999999998
1630070114581,-0.807701,0.535092,-0.240401
1630070114590,-0.8066639999999999,0.533445,-0.241255
1630070114600,-0.8048339999999999,0.528809,-0.241194
1630070114610,-0.804041,0.526003,-0.240523
1630070114619,-0.80337,0.524112,-0.24143799999999999
1630070114629,-0.802821,0.52399,-0.241682
1630070114638,-0.802882,0.524539,-0.24143799999999999
1630070114648,-0.802943,0.525881,-0.241621
1630070114658,-0.802638,0.527223,-0.241255
1630070114667,-0.802333,0.528626,-0.241316
1630070114677,-0.803736,0.529236,-0.24143799999999999
1630070114686,-0.803126,0.528016,-0.241682
1630070114696,-0.802638,0.527223,-0.239669
1630070114706,-0.803431,0.526125,-0.240096
1630070114715,-0.80276,0.525637,-0.24095
1630070114725,-0.80276,0.525942,-0.240584
1630070114734,-0.803553,0.528138,-0.24015699999999998
1630070114744,-0.803797,0.528687,-0.239913
1630070114754,-0.804285,0.529297,-0.24046199999999998
1630070114763,-0.8033089999999999,0.530151,-0.239486
1630070114773,-0.800808,0.526796,-0.237778
1630070114782,-0.802638,0.525027,-0.23729
1630070114792,-0.804651,0.526125,-0.23741199999999998
1630070114802,-0.8048339999999999,0.526491,-0.236619
1630070114811,-0.8042239999999999,0.530578,-0.237168
1630070114821,-0.804346,0.532408,-0.236436
1630070114830,-0.804773,0.530761,-0.237839
1630070114840,-0.805566,0.529236,-0.238205
1630070114850,-0.804102,0.52765,-0.239181
1630070114859,-0.803858,0.52704,-0.239791
1630070114869,-0.8026989999999999,0.52643,-0.239669
1630070114878,-0.80337,0.526735,-0.24034
1630070114888,-0.802943,0.528504,-0.240279
1630070114898,-0.80337,0.529724,-0.241072
1630070114907,-0.803248,0.530456,-0.240401
1630070114917,-0.803675,0.531127,-0.240279
1630070114926,-0.80459,0.530334,-0.239303
1630070114936,-0.804102,0.529602,-0.238876
1630070114946,-0.8042239999999999,0.529602,-0.23893699999999998
1630070114955,-0.805322,0.529846,-0.238815
1630070114965,-0.805566,0.530822,-0.239791
1630070114974,-0.803797,0.530761,-0.240584
1630070114984,-0.8033089999999999,0.530212,-0.239913
1630070114994,-0.804346,0.53009,-0.239181
1630070115003,-0.802821,0.530456,-0.24015699999999998
1630070115013,-0.803858,0.531005,-0.239974
1630070115022,-0.804041,0.530578,-0.239669
1630070115032,-0.803797,0.530395,-0.240218
1630070115042,-0.80215,0.530944,-0.239303
1630070115051,-0.80215,0.53131,-0.238571
1630070115061,-0.80154,0.531371,-0.239303
1630070115070,-0.800625,0.531005,-0.23912
1630070115080,-0.799832,0.529602,-0.238815
1630070115090,-0.800381,0.529785,-0.239486
1630070115099,-0.798978,0.528504,-0.238876
1630070115109,-0.799771,0.528565,-0.239974
1630070115118,-0.798978,0.527101,-0.239364
1630070115128,-0.800076,0.527467,-0.239791
1630070115138,-0.8005639999999999,0.528809,-0.24046199999999998
1630070115147,-0.800015,0.528748,-0.241621
1630070115157,-0.800686,0.52826,-0.241804
1630070115166,-0.8023939999999999,0.529663,-0.243207
1630070115176,-0.8017839999999999,0.529297,-0.24265799999999998
1630070115186,-0.8017839999999999,0.527833,-0.242414
1630070115195,-0.804468,0.528809,-0.241987
1630070115205,-0.805261,0.530883,-0.242109
1630070115214,-0.805566,0.533933,-0.241621
1630070115224,-0.805627,0.5361899999999999,-0.243024
1630070115234,-0.8030039999999999,0.534482,-0.24387799999999998
1630070115243,-0.8014789999999999,0.529114,-0.24448799999999998
1630070115253,-0.801296,0.52643,-0.245891
1630070115262,-0.800137,0.526186,-0.244549
1630070115272,-0.79971,0.526064,-0.244366
1630070115282,-0.799222,0.527101,-0.244549
1630070115291,-0.799527,0.527345,-0.243451
1630070115301,-0.798978,0.529297,-0.24418299999999998
1630070115310,-0.7987339999999999,0.531554,-0.243512
1630070115320,-0.8008689999999999,0.532042,-0.244427
1630070115330,-0.801235,0.53192,-0.244244
1630070115339,-0.801113,0.529724,-0.24448799999999998
1630070115349,-0.801906,0.530578,-0.24479299999999998
1630070115358,-0.802638,0.530151,-0.24448799999999998
1630070115368,-0.802638,0.530883,-0.24570799999999998
1630070115378,-0.803492,0.531432,-0.24570799999999998
1630070115387,-0.802882,0.531676,-0.24479299999999998
1630070115397,-0.80276,0.531432,-0.244427
1630070115406,-0.8033089999999999,0.532469,-0.244366
1630070115416,-0.801662,0.530029,-0.244061
1630070115426,-0.80093,0.527406,-0.24217
1630070115435,-0.802577,0.528931,-0.24204799999999999
1630070115445,-0.803187,0.52948,-0.23924199999999998
1630070115454,-0.80276,0.531554,-0.237046
1630070115464,-0.802943,0.535702,-0.236314
1630070115474,-0.804346,0.534726,-0.235155
1630070115483,-0.8039189999999999,0.532652,-0.234484
1630070115493,-0.8023939999999999,0.5307,-0.233447
1630070115502,-0.802882,0.530029,-0.233874
1630070115512,-0.800625,0.530883,-0.231922
1630070115522,-0.799893,0.531188,-0.231678
1630070115531,-0.799527,0.531676,-0.232288
1630070115541,-0.800137,0.531798,-0.232715
1630070115550,-0.800137,0.531676,-0.23302
1630070115560,-0.8002589999999999,0.531981,-0.233874
1630070115570,-0.8008689999999999,0.532652,-0.233325
1630070115579,-0.800991,0.531981,-0.232898
1630070115589,-0.8005639999999999,0.533079,-0.232715
1630070115598,-0.801662,0.533811,-0.232715
1630070115608,-0.8023939999999999,0.53558,-0.233508
1630070115618,-0.803492,0.534848,-0.233752
1630070115627,-0.8042239999999999,0.534848,-0.233569
1630070115637,-0.802943,0.534238,-0.232898
1630070115646,-0.803492,0.535031,-0.232654
1630070115656,-0.803065,0.534848,-0.232654
1630070115666,-0.802821,0.535824,-0.231739
1630070115675,-0.804163,0.535458,-0.231312
1630070115685,-0.8045289999999999,0.535336,-0.23064099999999998
1630070115694,-0.80276,0.535702,-0.230702
1630070115704,-0.802943,0.535458,-0.23064099999999998
1630070115714,-0.8036139999999999,0.53436,-0.228811
1630070115723,-0.801906,0.535031,-0.23003099999999999
1630070115733,-0.801357,0.534848,-0.230702
1630070115742,-0.803248,0.535275,-0.230275
1630070115752,-0.802333,0.534482,-0.23094599999999998
1630070115762,-0.8011739999999999,0.533811,-0.230763
1630070115771,-0.8023939999999999,0.534787,-0.233264
1630070115781,-0.802028,0.536312,-0.231678
1630070115790,-0.80276,0.534482,-0.230824
1630070115800,-0.801723,0.534909,-0.230763
1630070115810,-0.802577,0.535824,-0.231434
1630070115819,-0.801662,0.534299,-0.230214
1630070115829,-0.8014789999999999,0.536007,-0.229543
1630070115838,-0.801052,0.536617,-0.228323
1630070115848,-0.803126,0.537166,-0.22722499999999998
1630070115858,-0.8036139999999999,0.537532,-0.227774
1630070115867,-0.8036139999999999,0.540948,-0.227286
1630070115877,-0.80215,0.543998,-0.22630999999999998
1630070115886,-0.801235,0.544059,-0.227896
1630070115896,-0.799283,0.541924,-0.227042
1630070115906,-0.798612,0.538691,-0.227591
1630070115915,-0.798246,0.537654,-0.225883
1630070115925,-0.796416,0.535641,-0.22569999999999998
1630070115934,-0.795867,0.535519,-0.226859
1630070115944,-0.793244,0.535702,-0.227347
1630070115954,-0.792512,0.536739,-0.228811
1630070115963,-0.792207,0.538447,-0.230153
1630070115973,-0.790621,0.539057,-0.231739
1630070115982,-0.790682,0.539606,-0.232532
1630070115992,-0.791414,0.538996,-0.232044
1630070116002,-0.792512,0.5389349999999999,-0.231434
1630070116011,-0.792512,0.539484,-0.232044
1630070116021,-0.792268,0.539423,-0.232715
1630070116030,-0.792939,0.540216,-0.23302
1630070116040,-0.794525,0.5407649999999999,-0.234789
1630070116050,-0.79483,0.541863,-0.235826
1630070116059,-0.79483,0.541009,-0.236558
1630070116069,-0.796599,0.541131,-0.234911
1630070116078,-0.795806,0.542168,-0.234362
1630070116088,-0.795806,0.542656,-0.23424
1630070116098,-0.798124,0.5435099999999999,-0.233752
1630070116107,-0.797392,0.542839,-0.23155599999999998
1630070116117,-0.798124,0.5441199999999999,-0.229787
1630070116126,-0.799527,0.545889,-0.229299
1630070116136,-0.800503,0.5459499999999999,-0.228567
1630070116146,-0.8005639999999999,0.546133,-0.226371
1630070116155,-0.8017839999999999,0.546499,-0.227591
1630070116165,-0.800442,0.546011,-0.22752999999999998
1630070116174,-0.798673,0.544669,-0.227164
1630070116184,-0.797514,0.544364,-0.227164
1630070116194,-0.797026,0.543937,-0.227042
1630070116203,-0.796965,0.544913,-0.227896
1630070116213,-0.795013,0.544669,-0.228994
1630070116222,-0.794464,0.542961,-0.229055
1630070116232,-0.796233,0.5428999999999999,-0.228262
1630070116242,-0.795562,0.5435099999999999,-0.230153
1630070116251,-0.79666,0.544303,-0.230702
1630070116261,-0.79666,0.5450349999999999,-0.23125099999999998
1630070116270,-0.796599,0.544486,-0.232288
1630070116280,-0.796294,0.543022,-0.231495
1630070116290,-0.796294,0.543083,-0.23119
1630070116299,-0.79605,0.543388,-0.23033599999999999
1630070116309,-0.795501,0.541863,-0.230702
1630070116318,-0.794952,0.5404599999999999,-0.23064099999999998
1630070116328,-0.795074,0.540216,-0.231983
1630070116338,-0.795806,0.539911,-0.230458
1630070116347,-0.79605,0.5398499999999999,-0.229604
1630070116357,-0.796172,0.539179,-0.229238
1630070116366,-0.795379,0.539362,-0.227713
1630070116376,-0.796111,0.537959,-0.227042
1630070116386,-0.796172,0.538874,-0.226859
1630070116395,-0.797758,0.5383249999999999,-0.225944
1630070116405,-0.798124,0.536617,-0.224846
1630070116414,-0.798978,0.5371049999999999,-0.223931
1630070116424,-0.798795,0.536373,-0.224968
1630070116434,-0.799771,0.535214,-0.224846
1630070116443,-0.799405,0.535702,-0.226493
1630070116453,-0.8005639999999999,0.535763,-0.226798
1630070116462,-0.801906,0.536312,-0.22752999999999998
1630070116472,-0.802333,0.537349,-0.227347
1630070116482,-0.80398,0.538081,-0.228079
1630070116491,-0.804956,0.537593,-0.22661499999999998
1630070116501,-0.805566,0.537959,-0.225578
1630070116510,-0.805505,0.535763,-0.224907
1630070116520,-0.806176,0.536007,-0.22569999999999998
1630070116530,-0.806542,0.536983,-0.22539499999999998
1630070116539,-0.807396,0.541131,-0.22539499999999998
1630070116549,-0.807518,0.542717,-0.226798
1630070116558,-0.8072739999999999,0.5410699999999999,-0.22752999999999998
1630070116568,-0.805688,0.538569,-0.22844499999999998
1630070116578,-0.804712,0.536007,-0.227042
1630070116587,-0.802211,0.535519,-0.226798
1630070116597,-0.800991,0.53497,-0.226493
1630070116606,-0.799405,0.534177,-0.226127
1630070116616,-0.7996489999999999,0.535946,-0.225883
1630070116626,-0.798795,0.536678,-0.225883
1630070116635,-0.799161,0.538447,-0.224968
1630070116645,-0.800076,0.539484,-0.223321
1630070116654,-0.798978,0.5386299999999999,-0.22386999999999999
1630070116664,-0.799466,0.537776,-0.222345
1630070116674,-0.799771,0.5386299999999999,-0.222467
1630070116683,-0.800991,0.540216,-0.222406
1630070116693,-0.800198,0.539362,-0.223748
1630070116702,-0.8002589999999999,0.5395449999999999,-0.223748
1630070116712,-0.79971,0.540826,-0.222772
1630070116722,-0.799466,0.541436,-0.222528
1630070116731,-0.7993439999999999,0.540826,-0.22167399999999998
1630070116741,-0.798185,0.537593,-0.221552
1630070116750,-0.799832,0.535458,-0.220027
1630070116760,-0.802577,0.538081,-0.219905
1630070116770,-0.801296,0.537471,-0.2196
1630070116779,-0.803187,0.539057,-0.22045399999999998
1630070116789,-0.804712,0.5416799999999999,-0.220332
1630070116798,-0.805078,0.541558,-0.221186
1630070116808,-0.806481,0.541558,-0.221552
1630070116818,-0.808616,0.541558,-0.22167399999999998
1630070116827,-0.810751,0.542046,-0.22106399999999998
1630070116837,-0.809958,0.539606,-0.22143
1630070116846,-0.809775,0.538752,-0.221308
1630070116856,-0.804346,0.539728,-0.222162
1630070116866,-0.802333,0.537166,-0.223504
1630070116875,-0.800625,0.536312,-0.224297
1630070116885,-0.80337,0.55083,-0.223199
1630070116894,-0.80154,0.547414,-0.227103
1630070116904,-0.7920849999999999,0.533323,-0.22936
1630070116914,-0.793305,0.529175,-0.228506
1630070116923,-0.793549,0.524539,-0.226432
1630070116933,-0.796355,0.5231359999999999,-0.22447999999999999
1630070116942,-0.796599,0.52582,-0.225029
1630070116952,-0.7987339999999999,0.526552,-0.223748
1630070116962,-0.7987339999999999,0.529968,-0.229238
1630070116971,-0.805261,0.537044,-0.226188
1630070116981,-0.806786,0.536983,-0.223931
1630070116990,-0.805932,0.538691,-0.226249
1630070117000,-0.80703,0.539728,-0.226371
1630070117010,-0.808616,0.541314,-0.225029
1630070117019,-0.808982,0.540948,-0.225273
1630070117029,-0.8078839999999999,0.539972,-0.224297
1630070117038,-0.807335,0.544059,-0.22691999999999998
1630070117048,-0.806298,0.543266,-0.226493
1630070117058,-0.806908,0.546377,-0.227347
1630070117067,-0.80581,0.545218,-0.228079
1630070117077,-0.804102,0.546316,-0.226798
1630070117086,-0.80215,0.545584,-0.225822
1630070117096,-0.799161,0.543754,-0.22539499999999998
1630070117106,-0.798978,0.542839,-0.224297
1630070117115,-0.796477,0.542229,-0.22326
1630070117125,-0.795562,0.542839,-0.223321
1630070117134,-0.79544,0.5435099999999999,-0.222528
1630070117144,-0.795257,0.543449,-0.22167399999999998
1630070117154,-0.792573,0.545401,-0.223016
1630070117163,-0.794342,0.543571,-0.221918
1630070117173,-0.797148,0.546316,-0.222101
1630070117182,-0.797758,0.546682,-0.221125
1630070117192,-0.796721,0.544669,-0.22014899999999998
1630070117202,-0.794952,0.5441199999999999,-0.220393
1630070117211,-0.796416,0.543022,-0.220027
1630070117221,-0.795867,0.543388,-0.22143
1630070117230,-0.795074,0.541863,-0.22167399999999998
1630070117240,-0.794464,0.539301,-0.22447999999999999
1630070117250,-0.794891,0.540033,-0.226127
1630070117259,-0.792268,0.536678,-0.225883
1630070117269,-0.7914749999999999,0.533872,-0.228994
1630070117278,-0.792878,0.535641,-0.230092
1630070117288,-0.793549,0.530883,-0.23216599999999998
1630070117298,-0.796294,0.531615,-0.23155599999999998
1630070117307,-0.800747,0.532408,-0.231434
1630070117317,-0.8030039999999999,0.534604,-0.230824
1630070117326,-0.803492,0.53497,-0.230092
1630070117336,-0.804468,0.533506,-0.229238
1630070117346,-0.805566,0.533872,-0.22783499999999998
1630070117355,-0.805932,0.533689,-0.22783499999999998
1630070117365,-0.8051389999999999,0.531859,-0.228384
1630070117374,-0.8045289999999999,0.53131,-0.228811
1630070117384,-0.80459,0.529846,-0.230458
1630070117394,-0.80398,0.529358,-0.232837
1630070117403,-0.803553,0.527406,-0.233813
1630070117413,-0.803187,0.526125,-0.233569
1630070117422,-0.803126,0.524234,-0.23607
1630070117432,-0.804407,0.52826,-0.23710699999999998
1630070117442,-0.805932,0.530822,-0.237473
1630070117451,-0.8100189999999999,0.533445,-0.237534
1630070117461,-0.80886,0.533567,-0.236741
1630070117470,-0.806115,0.527894,-0.235704
1630070117480,-0.801357,0.522099,-0.23558199999999999
1630070117490,-0.799527,0.519293,-0.233264
1630070117499,-0.796355,0.5158159999999999,-0.23363
1630070117509,-0.792878,0.513132,-0.233142
1630070117518,-0.792695,0.5173409999999999,-0.23302
1630070117528,-0.79544,0.523014,-0.233508
1630070117538,-0.798917,0.528504,-0.234789
1630070117547,-0.799466,0.530944,-0.23460599999999998
1630070117557,-0.8002589999999999,0.531249,-0.234484
1630070117566,-0.800991,0.532774,-0.235521
1630070117576,-0.8042239999999999,0.538569,-0.236558
1630070117586,-0.805871,0.540216,-0.235399
1630070117595,-0.807701,0.542839,-0.236558
1630070117605,-0.80764,0.544303,-0.236741
1630070117614,-0.808006,0.544364,-0.236558
1630070117624,-0.8075789999999999,0.543266,-0.23558199999999999
1630070117634,-0.807823,0.542107,-0.234179
1630070117643,-0.806481,0.538508,-0.23424
1630070117653,-0.806237,0.5383249999999999,-0.23308099999999998
1630070117662,-0.803858,0.5377149999999999,-0.23241
1630070117672,-0.801967,0.534848,-0.23058
1630070117682,-0.802455,0.536129,-0.230458
1630070117691,-0.803492,0.538264,-0.229848
1630070117701,-0.802882,0.537837,-0.23033599999999999
1630070117710,-0.801906,0.534909,-0.229238
1630070117720,-0.80337,0.533323,-0.22844499999999998
1630070117730,-0.8045289999999999,0.530883,-0.227652
1630070117739,-0.802028,0.52765,-0.227408
1630070117749,-0.800198,0.523319,-0.227591
1630070117758,-0.801967,0.5216109999999999,-0.226432
1630070117768,-0.803492,0.520452,-0.226859
1630070117778,-0.802638,0.518195,-0.224907
1630070117787,-0.8008689999999999,0.513132,-0.224663
1630070117797,-0.802455,0.513498,-0.22539499999999998
1630070117806,-0.805566,0.516304,-0.225273
1630070117816,-0.81313,0.5219159999999999,-0.225639
1630070117826,-0.818986,0.526552,-0.226676
1630070117835,-0.826794,0.531493,-0.227591
1630070117845,-0.8325279999999999,0.534604,-0.228628
1630070117854,-0.832284,0.534604,-0.228628
1630070117864,-0.8288679999999999,0.529358,-0.227347
1630070117874,-0.8242929999999999,0.527467,-0.224846
1630070117883,-0.818681,0.523868,-0.222894
1630070117893,-0.81435,0.5231359999999999,-0.220393
1630070117902,-0.812642,0.523868,-0.220515
1630070117912,-0.813618,0.528138,-0.221796
1630070117922,-0.813313,0.529602,-0.224053
1630070117931,-0.814777,0.531554,-0.226127
1630070117941,-0.814838,0.532896,-0.227652
1630070117950,-0.813496,0.53253,-0.228201
1630070117960,-0.81069,0.530578,-0.227957
1630070117970,-0.80581,0.528992,-0.226371
1630070117979,-0.8045289999999999,0.528443,-0.224907
1630070117989,-0.8026989999999999,0.528992,-0.22447999999999999
1630070117998,-0.798978,0.528321,-0.22326
1630070118008,-0.798612,0.528809,-0.222345
1630070118018,-0.796111,0.528443,-0.221186
1630070118027,-0.796721,0.528504,-0.220881
1630070118037,-0.797148,0.530273,-0.220637
1630070118046,-0.797026,0.530334,-0.220027
1630070118056,-0.797026,0.531981,-0.218746
1630070118066,-0.796782,0.53314,-0.219051
1630070118075,-0.79727,0.533506,-0.21862399999999999
1630070118085,-0.79727,0.532347,-0.219051
1630070118094,-0.799466,0.532408,-0.220698
1630070118104,-0.799832,0.531554,-0.220576
1630070118114,-0.801418,0.532225,-0.222711
1630070118123,-0.8026989999999999,0.531798,-0.22386999999999999
1630070118133,-0.8039189999999999,0.533018,-0.225517
1630070118142,-0.80581,0.534177,-0.227164
1630070118152,-0.806847,0.535458,-0.227286
1630070118162,-0.808738,0.5361899999999999,-0.226432
1630070118171,-0.808311,0.536068,-0.224968
1630070118181,-0.808921,0.535336,-0.222406
1630070118190,-0.809226,0.534848,-0.22082
1630070118200,-0.810446,0.53314,-0.22021
1630070118210,-0.8130689999999999,0.533079,-0.220271
1630070118219,-0.813557,0.53375,-0.220271
1630070118229,-0.812886,0.531676,-0.220271
1630070118238,-0.812642,0.532164,-0.219295
1630070118248,-0.812825,0.532347,-0.217648
1630070118258,-0.811727,0.532103,-0.217831
1630070118267,-0.810202,0.53253,-0.216184
1630070118277,-0.809653,0.532103,-0.212951
1630070118286,-0.808128,0.530334,-0.21228
1630070118296,-0.807396,0.530517,-0.212036
1630070118306,-0.8066639999999999,0.531676,-0.212402
1630070118315,-0.8066639999999999,0.53253,-0.212524
1630070118325,-0.806847,0.53314,-0.213866
1630070118334,-0.8066639999999999,0.533506,-0.214171
1630070118344,-0.806237,0.533811,-0.216062
1630070118354,-0.805688,0.533506,-0.216794
1630070118363,-0.80459,0.535092,-0.217953
1630070118373,-0.802455,0.534909,-0.218746
1630070118382,-0.80093,0.533628,-0.218685
1630070118392,-0.798856,0.534604,-0.219905
1630070118402,-0.801601,0.5364949999999999,-0.221491
1630070118411,-0.801662,0.541253,-0.22417499999999999
1630070118421,-0.800808,0.5425949999999999,-0.225212
1630070118430,-0.8005639999999999,0.543876,-0.22783499999999998
1630070118440,-0.799893,0.541131,-0.228811
1630070118450,-0.800137,0.538386,-0.22844499999999998
1630070118459,-0.798978,0.537349,-0.22844499999999998
1630070118469,-0.797819,0.536434,-0.228872
1630070118478,-0.796538,0.536251,-0.226493
1630070118488,-0.795379,0.535641,-0.226554
1630070118498,-0.794281,0.537288,-0.226737
1630070118507,-0.795684,0.538447,-0.227164
1630070118517,-0.796599,0.538752,-0.226737
1630070118526,-0.796965,0.5380199999999999,-0.228018
1630070118536,-0.797392,0.537837,-0.227774
1630070118546,-0.798124,0.537898,-0.22722499999999998
1630070118555,-0.799466,0.5377149999999999,-0.227896
1630070118565,-0.800991,0.539118,-0.23033599999999999
1630070118574,-0.8011739999999999,0.539179,-0.230702
1630070118584,-0.80154,0.539179,-0.23003099999999999
1630070118594,-0.80215,0.539606,-0.229848
1630070118603,-0.8030039999999999,0.540216,-0.22936
1630070118613,-0.8023939999999999,0.5389349999999999,-0.229177
1630070118622,-0.80276,0.5367999999999999,-0.227774
1630070118632,-0.803187,0.5367999999999999,-0.226127
1630070118642,-0.804041,0.536678,-0.225578
1630070118651,-0.80398,0.5380199999999999,-0.222955
1630070118661,-0.8048339999999999,0.540094,-0.222589
1630070118670,-0.8045289999999999,0.541253,-0.221491
1630070118680,-0.804956,0.539728,-0.221491
1630070118690,-0.803675,0.539728,-0.22106399999999998
1630070118699,-0.8039189999999999,0.5380199999999999,-0.218685
1630070118709,-0.803126,0.536007,-0.218258
1630070118718,-0.803431,0.535092,-0.21777
1630070118728,-0.802516,0.5364949999999999,-0.21777
1630070118738,-0.801845,0.536617,-0.218197
1630070118747,-0.802638,0.5374099999999999,-0.217038
1630070118757,-0.8039189999999999,0.537654,-0.21716
1630070118766,-0.803492,0.537288,-0.216245
1630070118776,-0.8039189999999999,0.536739,-0.215879
1630070118786,-0.803431,0.536556,-0.215696
1630070118795,-0.80276,0.536556,-0.215879
1630070118805,-0.802455,0.535763,-0.21520799999999998
1630070118814,-0.802577,0.535763,-0.215757
1630070118824,-0.803492,0.5367999999999999,-0.215086
1630070118834,-0.804712,0.537593,-0.214964
1630070118843,-0.805566,0.535946,-0.216306
1630070118853,-0.80581,0.5367999999999999,-0.216794
1630070118862,-0.8052,0.537288,-0.217038
1630070118872,-0.8039189999999999,0.538142,-0.215574
1630070118882,-0.803492,0.537166,-0.214232
1630070118891,-0.804041,0.537166,-0.21246299999999999
1630070118901,-0.8036139999999999,0.537166,-0.213012
1630070118910,-0.8042239999999999,0.537166,-0.213622
1630070118920,-0.803248,0.536739,-0.21411
1630070118930,-0.8042239999999999,0.536312,-0.2135
1630070118939,-0.8045289999999999,0.536434,-0.21368299999999998
1630070118949,-0.804285,0.536678,-0.214476
1630070118958,-0.8051389999999999,0.535214,-0.214659
1630070118968,-0.8060539999999999,0.537776,-0.214781
1630070118978,-0.805383,0.538081,-0.21398799999999998
1630070118987,-0.805322,0.537166,-0.21276799999999998
1630070118997,-0.806481,0.537959,-0.212951
1630070119006,-0.80703,0.541924,-0.21411
1630070119016,-0.807518,0.545706,-0.213195
1630070119026,-0.806725,0.546926,-0.21398799999999998
1630070119035,-0.803675,0.545889,-0.215147
1630070119045,-0.802882,0.543754,-0.216489
1630070119054,-0.803248,0.540094,-0.217343
1630070119064,-0.80154,0.539667,-0.217892
1630070119074,-0.801357,0.537776,-0.216672
1630070119083,-0.800381,0.538081,-0.217465
1630070119093,-0.798917,0.539179,-0.216672
1630070119102,-0.797697,0.539728,-0.216489
1630070119112,-0.796294,0.5416799999999999,-0.217038
1630070119122,-0.796233,0.542046,-0.21716
1630070119131,-0.79666,0.542229,-0.21612299999999998
1630070119141,-0.796843,0.540826,-0.216001
1630070119150,-0.797514,0.539911,-0.214232
1630070119160,-0.797697,0.538996,-0.21459799999999998
1630070119170,-0.798368,0.540704,-0.21520799999999998
1630070119179,-0.798917,0.542534,-0.215269
1630070119189,-0.799527,0.543876,-0.216916
1630070119198,-0.800625,0.545462,-0.217831
1630070119208,-0.800991,0.547292,-0.21899
1630070119218,-0.801662,0.548207,-0.21953899999999998
1630070119227,-0.798795,0.546316,-0.221125
1630070119237,-0.799588,0.5444249999999999,-0.220088
1630070119246,-0.800747,0.544608,-0.22136899999999998
1630070119256,-0.800747,0.544791,-0.220271
1630070119266,-0.800076,0.5480849999999999,-0.219722
1630070119275,-0.798978,0.549488,-0.220515
1630070119285,-0.797392,0.547536,-0.219051
1630070119294,-0.797575,0.5465599999999999,-0.219356
1630070119304,-0.796843,0.545584,-0.2196
1630070119314,-0.796172,0.545218,-0.219966
1630070119323,-0.794464,0.545157,-0.219478
1630070119333,-0.794769,0.545218,-0.219356
1630070119342,-0.793366,0.545584,-0.21899
1630070119352,-0.793854,0.546682,-0.219051
1630070119362,-0.794098,0.547597,-0.218746
1630070119371,-0.79361,0.5474749999999999,-0.218868
1630070119381,-0.792878,0.547414,-0.218563
1630070119390,-0.793122,0.546438,-0.21953899999999998
1630070119400,-0.794037,0.546316,-0.221125
1630070119410,-0.795745,0.546987,-0.222833
1630070119419,-0.795501,0.547841,-0.224236
1630070119429,-0.796294,0.548573,-0.224907
1630070119438,-0.795867,0.548268,-0.225822
1630070119448,-0.797026,0.548451,-0.225761
1630070119458,-0.796599,0.5477799999999999,-0.22539499999999998
1630070119467,-0.796538,0.547292,-0.225761
1630070119477,-0.795806,0.547414,-0.226127
1630070119486,-0.795989,0.548146,-0.22539499999999998
1630070119496,-0.796111,0.547048,-0.22600499999999998
1630070119506,-0.795074,0.546804,-0.226737
1630070119515,-0.794769,0.544913,-0.22752999999999998
1630070119525,-0.793305,0.543937,-0.228018
1630070119534,-0.792878,0.543571,-0.227591
1630070119544,-0.793244,0.543754,-0.226554
1630070119554,-0.794708,0.546499,-0.226432
1630070119563,-0.794647,0.546377,-0.224541
1630070119573,-0.793915,0.5453399999999999,-0.224541
1630070119582,-0.795623,0.545706,-0.224968
1630070119592,-0.795684,0.544608,-0.223199
1630070119602,-0.795196,0.5422899999999999,-0.221491
1630070119611,-0.798246,0.545706,-0.220332
1630070119621,-0.8008689999999999,0.548634,-0.220942
1630070119630,-0.800198,0.55022,-0.220881
1630070119640,-0.797636,0.550647,-0.221857
1630070119650,-0.797087,0.547353,-0.22386999999999999
1630070119659,-0.795562,0.542412,-0.22326
1630070119669,-0.796233,0.539301,-0.223992
1630070119678,-0.795257,0.540948,-0.22356499999999999
1630070119688,-0.795745,0.541558,-0.224907
1630070119698,-0.796843,0.542473,-0.225273
1630070119707,-0.796538,0.543998,-0.22600499999999998
1630070119717,-0.796904,0.5447299999999999,-0.225334
1630070119726,-0.796416,0.5438149999999999,-0.225456
1630070119736,-0.796721,0.544913,-0.226066
1630070119746,-0.797819,0.543571,-0.22600499999999998
1630070119755,-0.797087,0.543876,-0.226676
1630070119765,-0.796599,0.543632,-0.22661499999999998
1630070119774,-0.797453,0.542717,-0.227103
1630070119784,-0.798002,0.544547,-0.226432
1630070119794,-0.798795,0.544547,-0.226737
1630070119803,-0.798551,0.5438149999999999,-0.226371
1630070119813,-0.7991,0.544913,-0.22508999999999998
1630070119822,-0.798917,0.546194,-0.22508999999999998
1630070119832,-0.797697,0.5465599999999999,-0.224602
1630070119842,-0.796233,0.543266,-0.221918
1630070119851,-0.797331,0.543327,-0.22045399999999998
1630070119861,-0.798673,0.543571,-0.220027
1630070119870,-0.798856,0.544852,-0.21953899999999998
1630070119880,-0.7987339999999999,0.5471699999999999,-0.21984399999999998
1630070119890,-0.79971,0.547292,-0.22143
1630070119899,-0.799466,0.545523,-0.221247
1630070119909,-0.7987339999999999,0.5438149999999999,-0.22265
1630070119918,-0.798856,0.542778,-0.223199
1630070119928,-0.798368,0.542778,-0.222894
1630070119938,-0.79849,0.542412,-0.223138
1630070119947,-0.79849,0.543571,-0.223016
1630070119957,-0.797575,0.543876,-0.222894
1630070119966,-0.797148,0.544547,-0.222345
1630070119976,-0.797636,0.543571,-0.222589
1630070119986,-0.797575,0.542107,-0.221796
1630070119995,-0.798063,0.542778,-0.220515
1630070120005,-0.797819,0.543632,-0.22136899999999998
1630070120014,-0.797758,0.5438149999999999,-0.22075899999999998
1630070120024,-0.7993439999999999,0.543327,-0.2196
1630070120034,-0.798124,0.544181,-0.220271
1630070120043,-0.799161,0.544669,-0.220942
1630070120053,-0.798856,0.5447299999999999,-0.220515
1630070120062,-0.799161,0.544913,-0.22045399999999998
1630070120072,-0.799466,0.545218,-0.219051
1630070120082,-0.798917,0.545584,-0.219417
1630070120091,-0.798124,0.546133,-0.219173
1630070120101,-0.796904,0.545706,-0.220088
1630070120110,-0.79666,0.545584,-0.21953899999999998
1630070120120,-0.79605,0.544913,-0.21984399999999998
1630070120130,-0.796782,0.5438149999999999,-0.219966
1630070120139,-0.796782,0.5444249999999999,-0.219966
1630070120149,-0.796721,0.542229,-0.22014899999999998
1630070120158,-0.796599,0.541741,-0.21984399999999998
1630070120168,-0.79727,0.543937,-0.219783
1630070120178,-0.796965,0.544547,-0.221308
1630070120187,-0.796172,0.543449,-0.223504
1630070120197,-0.796477,0.542717,-0.224907
1630070120206,-0.796843,0.541924,-0.223687
1630070120216,-0.79666,0.541192,-0.22143
1630070120226,-0.800747,0.5453399999999999,-0.221796
1630070120235,-0.802516,0.547292,-0.22356499999999999
1630070120245,-0.8030039999999999,0.550708,-0.223321
1630070120254,-0.8020889999999999,0.551196,-0.223809
1630070120264,-0.800991,0.548207,-0.22478499999999998
1630070120274,-0.7990389999999999,0.543266,-0.225151
1630070120283,-0.7984289999999999,0.540338,-0.22600499999999998
1630070120293,-0.79727,0.541314,-0.224663
1630070120302,-0.796965,0.541741,-0.223504
1630070120312,-0.796904,0.5422899999999999,-0.221796
1630070120322,-0.795745,0.543754,-0.220515
1630070120331,-0.796111,0.545096,-0.220637
1630070120341,-0.796477,0.545401,-0.219783
1630070120350,-0.796172,0.544852,-0.220088
1630070120360,-0.797026,0.544974,-0.219905
1630070120370,-0.797514,0.544181,-0.218685
1630070120379,-0.797758,0.5435099999999999,-0.219051
1630070120389,-0.797514,0.544852,-0.219722
1630070120398,-0.798185,0.545767,-0.220027
1630070120408,-0.797697,0.546438,-0.21984399999999998
1630070120418,-0.797819,0.545889,-0.218441
1630070120427,-0.797514,0.545279,-0.21862399999999999
1630070120437,-0.797697,0.545584,-0.218868
1630070120446,-0.79727,0.546682,-0.219722
1630070120456,-0.795684,0.5435099999999999,-0.21831899999999999
1630070120466,-0.797026,0.542473,-0.219112
1630070120475,-0.798856,0.543022,-0.21862399999999999
1630070120485,-0.799161,0.544181,-0.217404
1630070120494,-0.7984289999999999,0.546926,-0.21777
1630070120504,-0.799588,0.54961,-0.217038
1630070120514,-0.800625,0.549,-0.215879
1630070120523,-0.7993439999999999,0.546438,-0.216184
1630070120533,-0.799466,0.545523,-0.216001
1630070120542,-0.799222,0.544791,-0.216245
1630070120552,-0.798368,0.543876,-0.217038
1630070120562,-0.797819,0.543754,-0.21581799999999998
1630070120571,-0.797697,0.544242,-0.216733
1630070120581,-0.796111,0.544547,-0.216489
1630070120590,-0.797331,0.546377,-0.217038
1630070120600,-0.798246,0.546194,-0.21716
1630070120610,-0.798856,0.546499,-0.217038
1630070120619,-0.7993439999999999,0.5459499999999999,-0.21777
1630070120629,-0.800991,0.5447299999999999,-0.218136
1630070120638,-0.800747,0.5459499999999999,-0.217587
1630070120648,-0.7991,0.546133,-0.21892899999999998
1630070120658,-0.8008689999999999,0.547597,-0.22082
1630070120667,-0.799893,0.5471699999999999,-0.221796
1630070120677,-0.800015,0.548146,-0.223931
1630070120686,-0.8002589999999999,0.5480849999999999,-0.223504
1630070120696,-0.798795,0.547963,-0.223138
1630070120706,-0.798307,0.547109,-0.222894
1630070120715,-0.797819,0.546743,-0.223138
1630070120725,-0.796965,0.547048,-0.222345
1630070120734,-0.795257,0.546804,-0.222223
1630070120744,-0.795257,0.5474749999999999,-0.222101
1630070120754,-0.794952,0.5456449999999999,-0.221918
1630070120763,-0.794342,0.545279,-0.22167399999999998
1630070120773,-0.795135,0.543693,-0.22136899999999998
1630070120782,-0.793793,0.543571,-0.220942
1630070120792,-0.794708,0.5447299999999999,-0.22021
1630070120802,-0.79544,0.5453399999999999,-0.219112
1630070120811,-0.794769,0.5444249999999999,-0.218136
1630070120821,-0.793854,0.543571,-0.218502
1630070120830,-0.795074,0.543571,-0.218868
1630070120840,-0.796782,0.544486,-0.218807
1630070120850,-0.796599,0.543266,-0.216306
1630070120859,-0.7999539999999999,0.543144,-0.215757
1630070120869,-0.80215,0.545096,-0.214659
1630070120878,-0.802211,0.547902,-0.215086
1630070120888,-0.802272,0.552782,-0.21533
1630070120898,-0.801723,0.553636,-0.216184
1630070120907,-0.8008689999999999,0.549671,-0.216977
1630070120917,-0.7991,0.545584,-0.217221
1630070120926,-0.798002,0.543693,-0.216428
1630070120936,-0.795684,0.542839,-0.216062
1630070120946,-0.793366,0.5419849999999999,-0.215452
1630070120955,-0.792146,0.541924,-0.215696
1630070120965,-0.791963,0.5428999999999999,-0.21520799999999998
1630070120974,-0.793061,0.544486,-0.21594
1630070120984,-0.795379,0.5456449999999999,-0.215879
1630070120994,-0.796111,0.545157,-0.216794
1630070121003,-0.797819,0.544852,-0.21594
1630070121013,-0.799588,0.545828,-0.216306
1630070121022,-0.80032,0.547536,-0.21716
1630070121032,-0.8008689999999999,0.5480849999999999,-0.216916
1630070121042,-0.80154,0.550891,-0.216367
1630070121051,-0.802272,0.550586,-0.215147
1630070121061,-0.8020889999999999,0.549915,-0.214232
1630070121070,-0.801418,0.5483899999999999,-0.21398799999999998
1630070121080,-0.800442,0.547658,-0.213927
1630070121090,-0.800198,0.549,-0.214476
1630070121099,-0.798185,0.548024,-0.214232
1630070121109,-0.797331,0.546194,-0.2135
1630070121118,-0.798124,0.547414,-0.212585
1630070121128,-0.798246,0.546438,-0.21106
1630070121138,-0.797209,0.5462549999999999,-0.210572
1630070121147,-0.797636,0.547292,-0.21106
1630070121157,-0.798368,0.547109,-0.210267
1630070121166,-0.798368,0.546682,-0.211243
1630070121176,-0.7991,0.5456449999999999,-0.20996199999999998
1630070121186,-0.799893,0.546133,-0.211121
1630070121195,-0.800137,0.545584,-0.210938
1630070121205,-0.8011739999999999,0.545584,-0.21289
1630070121214,-0.800442,0.545889,-0.213012
1630070121224,-0.800015,0.5456449999999999,-0.213744
1630070121234,-0.799832,0.5462549999999999,-0.213561
1630070121243,-0.7996489999999999,0.547109,-0.212829
1630070121253,-0.799222,0.546804,-0.212097
1630070121262,-0.7987339999999999,0.545828,-0.210999
1630070121272,-0.800198,0.5459499999999999,-0.210389
1630070121282,-0.7990389999999999,0.546438,-0.210206
1630070121291,-0.799161,0.546377,-0.210145
1630070121301,-0.798612,0.546438,-0.211182
1630070121310,-0.797209,0.5465599999999999,-0.211243
1630070121320,-0.796843,0.546743,-0.21106
1630070121330,-0.797209,0.546804,-0.211731
1630070121339,-0.797148,0.546682,-0.212097
1630070121349,-0.796538,0.5459499999999999,-0.21185299999999999
1630070121358,-0.796294,0.546743,-0.212707
1630070121368,-0.795806,0.5462549999999999,-0.212402
1630070121378,-0.795562,0.5459499999999999,-0.213256
1630070121387,-0.795623,0.546316,-0.21368299999999998
1630070121397,-0.797026,0.545584,-0.214232
1630070121406,-0.796904,0.547048,-0.215574
1630070121416,-0.796294,0.546926,-0.215879
1630070121426,-0.796172,0.546987,-0.216489
1630070121435,-0.796538,0.546072,-0.217099
1630070121445,-0.795806,0.545828,-0.218563
1630070121454,-0.796538,0.545218,-0.21801399999999999
1630070121464,-0.79666,0.545462,-0.216916
1630070121474,-0.797514,0.545706,-0.217282
1630070121483,-0.797575,0.5462549999999999,-0.217953
1630070121493,-0.797941,0.547109,-0.218868
1630070121502,-0.79849,0.547536,-0.219478
1630070121512,-0.798612,0.546072,-0.218441
1630070121522,-0.79849,0.546377,-0.21777
1630070121531,-0.801235,0.546438,-0.216855
1630070121541,-0.800991,0.546194,-0.216428
1630070121550,-0.8014789999999999,0.548573,-0.21520799999999998
1630070121560,-0.800076,0.550525,-0.215086
1630070121570,-0.800747,0.55083,-0.215879
1630070121579,-0.8002589999999999,0.5483899999999999,-0.216062
1630070121589,-0.799832,0.5450349999999999,-0.216062
1630070121598,-0.7996489999999999,0.543022,-0.21655
1630070121608,-0.799588,0.542961,-0.216062
1630070121618,-0.7987339999999999,0.542351,-0.215696
1630070121627,-0.796172,0.543327,-0.214842
1630070121637,-0.796599,0.545584,-0.215391
1630070121646,-0.79727,0.547231,-0.215452
1630070121656,-0.7984289999999999,0.547902,-0.214171
1630070121666,-0.7990389999999999,0.546743,-0.21411
1630070121675,-0.798185,0.545828,-0.213134
1630070121685,-0.798917,0.543388,-0.213256
1630070121694,-0.798124,0.5441199999999999,-0.214964
1630070121704,-0.798795,0.544913,-0.216062
1630070121714,-0.798002,0.544059,-0.216489
1630070121723,-0.798063,0.544791,-0.21594
1630070121733,-0.797758,0.5441199999999999,-0.215086
1630070121742,-0.798002,0.544059,-0.21472
1630070121752,-0.799222,0.5444249999999999,-0.214354
1630070121762,-0.797758,0.543754,-0.213866
1630070121771,-0.798673,0.5428999999999999,-0.213317
1630070121781,-0.79971,0.544669,-0.212036
1630070121790,-0.80093,0.543266,-0.209596
1630070121800,-0.7996489999999999,0.544303,-0.20923
1630070121810,-0.801235,0.544608,-0.20984
1630070121819,-0.801601,0.546011,-0.209169
1630070121829,-0.8017839999999999,0.544547,-0.209596
1630070121838,-0.801113,0.543876,-0.20904699999999998
1630070121848,-0.801662,0.543144,-0.210084
1630070121858,-0.8023939999999999,0.543266,-0.210328
1630070121867,-0.801601,0.541924,-0.210145
1630070121877,-0.800991,0.541497,-0.210877
1630070121886,-0.801357,0.542717,-0.211792
1630070121896,-0.801601,0.5428999999999999,-0.213256
1630070121906,-0.802272,0.543571,-0.21228
1630070121915,-0.803065,0.542778,-0.213012
1630070121925,-0.802943,0.542778,-0.212829
1630070121934,-0.8026989999999999,0.542961,-0.212829
1630070121944,-0.80276,0.5428999999999999,-0.213256
1630070121954,-0.80398,0.543022,-0.2135
1630070121963,-0.80337,0.542168,-0.212524
1630070121973,-0.802943,0.5428999999999999,-0.212402
1630070121982,-0.803126,0.542168,-0.213195
1630070121992,-0.80337,0.541741,-0.213134
1630070122002,-0.803248,0.541863,-0.21289
1630070122011,-0.803248,0.541924,-0.213134
1630070122021,-0.801845,0.5410699999999999,-0.21276799999999998
1630070122030,-0.802577,0.542229,-0.211914
1630070122040,-0.802211,0.5422899999999999,-0.21228
1630070122050,-0.801845,0.541802,-0.211426
1630070122059,-0.802333,0.541802,-0.210633
1630070122069,-0.802272,0.540643,-0.210999
1630070122078,-0.8017839999999999,0.5410699999999999,-0.210267
1630070122088,-0.801662,0.540948,-0.211487
1630070122098,-0.80154,0.541924,-0.21106
1630070122107,-0.801723,0.542351,-0.21154799999999999
1630070122117,-0.8023939999999999,0.5428999999999999,-0.212341
1630070122126,-0.801357,0.542534,-0.212829
1630070122136,-0.801906,0.542534,-0.213256
1630070122146,-0.801723,0.541924,-0.21429299999999998
1630070122155,-0.801235,0.540582,-0.21276799999999998
1630070122165,-0.8005639999999999,0.539911,-0.210816
1630070122174,-0.800991,0.540826,-0.210938
1630070122184,-0.801113,0.541619,-0.211121
1630070122194,-0.800808,0.542107,-0.211487
1630070122203,-0.799771,0.541131,-0.21228
1630070122213,-0.800442,0.542046,-0.211731
1630070122222,-0.801662,0.542168,-0.21185299999999999
1630070122232,-0.8042239999999999,0.5416799999999999,-0.211365
1630070122242,-0.8042239999999999,0.543571,-0.211121
1630070122251,-0.805017,0.546438,-0.212646
1630070122261,-0.8051389999999999,0.549305,-0.213744
1630070122270,-0.803736,0.5468649999999999,-0.215147
1630070122280,-0.802028,0.543266,-0.215879
1630070122290,-0.8023939999999999,0.540704,-0.215574
1630070122299,-0.801113,0.540216,-0.215025
1630070122309,-0.7999539999999999,0.540338,-0.214354
1630070122318,-0.7991,0.539362,-0.213622
1630070122328,-0.798063,0.541009,-0.213866
1630070122338,-0.799161,0.543144,-0.21368299999999998
1630070122347,-0.799466,0.544669,-0.21398799999999998
1630070122357,-0.800076,0.5462549999999999,-0.214232
1630070122366,-0.8002589999999999,0.545096,-0.212585
1630070122376,-0.799832,0.543632,-0.212829
1630070122386,-0.800686,0.5438149999999999,-0.21307299999999998
1630070122395,-0.80032,0.543998,-0.213256
1630070122405,-0.80032,0.545523,-0.21472
1630070122414,-0.800503,0.545523,-0.213805
1630070122424,-0.800625,0.545096,-0.214537
1630070122434,-0.80032,0.545157,-0.214842
1630070122443,-0.79971,0.545889,-0.215025
1630070122453,-0.798551,0.5438149999999999,-0.213866
1630070122462,-0.796782,0.5419849999999999,-0.21307299999999998
1630070122472,-0.798185,0.5435099999999999,-0.212707
1630070122482,-0.798978,0.542839,-0.21045
1630070122491,-0.799405,0.5450349999999999,-0.210206
1630070122501,-0.8005639999999999,0.546987,-0.210267
1630070122510,-0.800991,0.546804,-0.210267
1630070122520,-0.801113,0.5471699999999999,-0.211243
1630070122530,-0.801052,0.546377,-0.211487
1630070122539,-0.800503,0.5447299999999999,-0.21106
1630070122549,-0.799588,0.544181,-0.212036
1630070122558,-0.798124,0.544181,-0.211731
1630070122568,-0.798246,0.545218,-0.211792
1630070122578,-0.798124,0.545401,-0.212646
1630070122587,-0.797392,0.5441199999999999,-0.212524
1630070122597,-0.798063,0.543449,-0.213317
1630070122606,-0.798124,0.544974,-0.213256
1630070122616,-0.800076,0.5444249999999999,-0.212646
1630070122626,-0.800198,0.545157,-0.21289
1630070122635,-0.800808,0.546194,-0.21472
1630070122645,-0.8014789999999999,0.546194,-0.21490299999999998
1630070122654,-0.8011739999999999,0.546133,-0.21472
1630070122664,-0.802028,0.545828,-0.21594
1630070122674,-0.80154,0.5453399999999999,-0.21551299999999998
1630070122683,-0.800503,0.544242,-0.215635
1630070122693,-0.800625,0.543876,-0.216428
1630070122702,-0.799832,0.543998,-0.214781
1630070122712,-0.7999539999999999,0.544547,-0.215696
1630070122722,-0.800625,0.544181,-0.214964
1630070122731,-0.8014789999999999,0.543449,-0.214781
1630070122741,-0.801723,0.543144,-0.214842
1630070122750,-0.8011739999999999,0.544547,-0.215452
1630070122760,-0.8011739999999999,0.544669,-0.215452
1630070122770,-0.800076,0.544608,-0.215757
1630070122779,-0.800076,0.543632,-0.21594
1630070122789,-0.799588,0.5435099999999999,-0.21581799999999998
1630070122798,-0.7999539999999999,0.5441199999999999,-0.21716
1630070122808,-0.79971,0.543937,-0.216855
1630070122818,-0.7991,0.543754,-0.217953
1630070122827,-0.79971,0.5422899999999999,-0.21838
1630070122837,-0.798612,0.542473,-0.219356
1630070122846,-0.798002,0.541924,-0.218868
1630070122856,-0.79849,0.5428999999999999,-0.21831899999999999
1630070122866,-0.798856,0.544059,-0.21838
1630070122875,-0.797575,0.543632,-0.217892
1630070122885,-0.796904,0.542656,-0.219112
1630070122894,-0.797758,0.542778,-0.217282
1630070122904,-0.797636,0.541314,-0.216184
1630070122914,-0.798978,0.5416799999999999,-0.215269
1630070122923,-0.802577,0.5450349999999999,-0.215696
1630070122933,-0.8033089999999999,0.548512,-0.216794
1630070122942,-0.8039189999999999,0.551074,-0.216428
1630070122952,-0.802272,0.54961,-0.217099
1630070122962,-0.801967,0.544364,-0.217404
1630070122971,-0.799771,0.541497,-0.217892
1630070122981,-0.7993439999999999,0.539179,-0.218868
1630070122990,-0.7984289999999999,0.5392399999999999,-0.218136
1630070123000,-0.79849,0.540887,-0.216245
1630070123010,-0.798246,0.542656,-0.215391
1630070123019,-0.79849,0.543693,-0.21472
1630070123029,-0.798856,0.5447299999999999,-0.215574
1630070123038,-0.798551,0.544974,-0.21490299999999998
1630070123048,-0.799527,0.544852,-0.21581799999999998
1630070123058,-0.79971,0.544486,-0.21533
1630070123067,-0.79971,0.545218,-0.21429299999999998
1630070123077,-0.7996489999999999,0.5438149999999999,-0.214232
1630070123086,-0.7996489999999999,0.543998,-0.21472
1630070123096,-0.80032,0.545401,-0.216062
1630070123106,-0.800442,0.546438,-0.215086
1630070123115,-0.800198,0.547658,-0.214232
1630070123125,-0.800503,0.547414,-0.214537
1630070123134,-0.7991,0.5453399999999999,-0.213866
1630070123144,-0.7984289999999999,0.542229,-0.21185299999999999
1630070123154,-0.800442,0.5447299999999999,-0.212036
1630070123163,-0.80154,0.544913,-0.210145
1630070123173,-0.8005639999999999,0.547658,-0.209535
1630070123182,-0.800015,0.550281,-0.210633
1630070123192,-0.800808,0.550098,-0.210023
1630070123202,-0.800015,0.548634,-0.210206
1630070123211,-0.800076,0.545889,-0.210694
1630070123221,-0.798917,0.544852,-0.21106
1630070123230,-0.7984289999999999,0.544364,-0.210389
1630070123240,-0.797636,0.545157,-0.210572
1630070123250,-0.795684,0.545828,-0.21167
1630070123259,-0.796721,0.546682,-0.211914
1630070123269,-0.797148,0.546926,-0.212585
1630070123278,-0.796599,0.546377,-0.211426
1630070123288,-0.796599,0.546682,-0.211121
1630070123298,-0.7987339999999999,0.5465599999999999,-0.21106
1630070123307,-0.797636,0.547719,-0.211914
1630070123317,-0.797453,0.546377,-0.212585
1630070123326,-0.79849,0.546987,-0.21276799999999998
1630070123336,-0.798246,0.5468649999999999,-0.214537
1630070123346,-0.797819,0.546499,-0.215269
1630070123355,-0.79849,0.5471699999999999,-0.215269
1630070123365,-0.798246,0.5468649999999999,-0.215879
1630070123374,-0.7987339999999999,0.546438,-0.214842
1630070123384,-0.7984289999999999,0.546682,-0.214659
1630070123394,-0.799222,0.547353,-0.21337799999999998
1630070123403,-0.798673,0.546743,-0.21276799999999998
1630070123413,-0.798124,0.546804,-0.213622
1630070123422,-0.798063,0.547292,-0.21337799999999998
1630070123432,-0.798124,0.546804,-0.213805
1630070123442,-0.797819,0.5462549999999999,-0.214171
1630070123451,-0.797514,0.545828,-0.214964
1630070123461,-0.797209,0.5456449999999999,-0.214476
1630070123470,-0.797758,0.545157,-0.214781
1630070123480,-0.79727,0.545828,-0.21594
1630070123490,-0.798307,0.5444249999999999,-0.216245
1630070123499,-0.797331,0.544486,-0.216611
1630070123509,-0.798612,0.544364,-0.216306
1630070123518,-0.79971,0.5459499999999999,-0.21581799999999998
1630070123528,-0.799893,0.546743,-0.217526
1630070123538,-0.800198,0.545767,-0.218685
1630070123547,-0.7991,0.544486,-0.21923399999999998
1630070123557,-0.800991,0.543998,-0.21831899999999999
1630070123566,-0.7991,0.542412,-0.216611
1630070123576,-0.800137,0.543754,-0.215391
1630070123586,-0.801906,0.546316,-0.21411
1630070123595,-0.802028,0.548451,-0.214842
1630070123605,-0.802272,0.551013,-0.214842
1630070123614,-0.801296,0.548817,-0.216428
1630070123624,-0.800198,0.5447299999999999,-0.215696
1630070123634,-0.799283,0.5416799999999999,-0.217587
1630070123643,-0.798795,0.5401549999999999,-0.217404
1630070123653,-0.798368,0.539667,-0.217221
1630070123662,-0.798002,0.5413749999999999,-0.216489
1630070123672,-0.796538,0.542168,-0.216245
1630070123682,-0.797026,0.542534,-0.216245
1630070123691,-0.798002,0.5453399999999999,-0.21594
1630070123701,-0.798368,0.546194,-0.216916
1630070123710,-0.799283,0.545584,-0.215574
1630070123720,-0.7993439999999999,0.545706,-0.21581799999999998
1630070123730,-0.799466,0.544059,-0.21581799999999998
1630070123739,-0.798795,0.543693,-0.216916
1630070123749,-0.7991,0.544974,-0.216672
1630070123758,-0.798917,0.545828,-0.215452
1630070123768,-0.798856,0.546194,-0.216489
1630070123778,-0.7999539999999999,0.546621,-0.21581799999999998
1630070123787,-0.799222,0.546316,-0.214232
1630070123797,-0.7993439999999999,0.547719,-0.214659
1630070123806,-0.79605,0.543998,-0.212524
1630070123816,-0.798185,0.542961,-0.21215799999999999
1630070123826,-0.7999539999999999,0.5438149999999999,-0.211426
1630070123835,-0.799832,0.545828,-0.210328
1630070123845,-0.800137,0.549671,-0.210389
1630070123854,-0.80093,0.551684,-0.210389
1630070123864,-0.80093,0.549793,-0.209779
1630070123874,-0.800076,0.547414,-0.20996199999999998
1630070123883,-0.800747,0.5450349999999999,-0.211365
1630070123893,-0.798917,0.544974,-0.209596
1630070123902,-0.799405,0.544974,-0.209535
1630070123912,-0.799161,0.546072,-0.210145
1630070123922,-0.798795,0.545706,-0.212402
1630070123931,-0.798307,0.546438,-0.211914
1630070123941,-0.798185,0.5465599999999999,-0.21337799999999998
1630070123950,-0.798917,0.5465599999999999,-0.213439
1630070123960,-0.799161,0.546621,-0.21289
1630070123970,-0.799588,0.545706,-0.21307299999999998
1630070123979,-0.7999539999999999,0.545462,-0.213256
1630070123989,-0.80093,0.545828,-0.214659
1630070123998,-0.800808,0.545584,-0.214842
1630070124008,-0.8008689999999999,0.545889,-0.215452
1630070124018,-0.800686,0.546438,-0.214781
1630070124027,-0.799283,0.5459499999999999,-0.21459799999999998
1630070124037,-0.798063,0.546438,-0.21472
1630070124046,-0.79849,0.5462549999999999,-0.21289
1630070124056,-0.798917,0.545157,-0.21276799999999998
1630070124066,-0.798856,0.544974,-0.21276799999999998
1630070124075,-0.798002,0.545218,-0.213195
1630070124085,-0.798856,0.5447299999999999,-0.21246299999999999
1630070124094,-0.798307,0.545096,-0.212524
1630070124104,-0.798307,0.545889,-0.212524
1630070124114,-0.79849,0.546621,-0.211182
1630070124123,-0.797575,0.5453399999999999,-0.211975
1630070124133,-0.797819,0.546072,-0.212341
1630070124142,-0.798063,0.545218,-0.212524
1630070124152,-0.798185,0.545279,-0.213439
1630070124162,-0.7987339999999999,0.544669,-0.214964
1630070124171,-0.798978,0.544608,-0.21472
1630070124181,-0.798124,0.543022,-0.216062
1630070124190,-0.798307,0.543571,-0.215574
1630070124200,-0.799771,0.543876,-0.215452
1630070124210,-0.798612,0.542229,-0.216306
1630070124219,-0.798307,0.541131,-0.217526
1630070124229,-0.7993439999999999,0.543327,-0.218258
1630070124238,-0.800991,0.542534,-0.21777
1630070124248,-0.80154,0.543571,-0.21777
1630070124258,-0.804102,0.543937,-0.217404
1630070124267,-0.803492,0.545767,-0.217953
1630070124277,-0.803248,0.548207,-0.218197
1630070124286,-0.804163,0.55022,-0.219356
1630070124296,-0.803675,0.548268,-0.21923399999999998
1630070124306,-0.8020889999999999,0.544608,-0.219356
1630070124315,-0.8017839999999999,0.541863,-0.219356
1630070124325,-0.7999539999999999,0.5407649999999999,-0.219905
1630070124334,-0.799222,0.540521,-0.21892899999999998
1630070124344,-0.798307,0.5398499999999999,-0.21770899999999999
1630070124354,-0.796721,0.541558,-0.217892
1630070124363,-0.79788,0.5428999999999999,-0.218258
1630070124373,-0.795989,0.543754,-0.218807
1630070124382,-0.796294,0.544852,-0.217953
1630070124392,-0.797819,0.545279,-0.217099
1630070124402,-0.79788,0.5441199999999999,-0.215452
1630070124411,-0.797331,0.543144,-0.215025
1630070124421,-0.798002,0.5435099999999999,-0.21472
1630070124430,-0.79788,0.544242,-0.21581799999999998
1630070124440,-0.798185,0.5441199999999999,-0.215391
1630070124450,-0.798063,0.5444249999999999,-0.216367
1630070124459,-0.79849,0.544852,-0.215574
1630070124469,-0.7987339999999999,0.5444249999999999,-0.21472
1630070124478,-0.798917,0.544059,-0.215147
1630070124488,-0.797758,0.543144,-0.214476
1630070124498,-0.7991,0.542412,-0.21246299999999999
1630070124507,-0.80093,0.544364,-0.210999
1630070124517,-0.800808,0.5428999999999999,-0.209779
1630070124526,-0.801052,0.545218,-0.209413
1630070124536,-0.801723,0.5465599999999999,-0.20874199999999998
1630070124546,-0.8017839999999999,0.5465599999999999,-0.208925
1630070124555,-0.801662,0.545706,-0.20904699999999998
1630070124565,-0.802028,0.544242,-0.20904699999999998
1630070124574,-0.8014789999999999,0.5438149999999999,-0.207583
1630070124584,-0.801235,0.543388,-0.208803
1630070124594,-0.800747,0.543144,-0.208376
1630070124603,-0.800503,0.543388,-0.208559
1630070124613,-0.800686,0.543144,-0.20843699999999998
1630070124622,-0.801113,0.543083,-0.20935199999999998
1630070124632,-0.800808,0.543632,-0.209596
1630070124642,-0.80093,0.543876,-0.210267
1630070124651,-0.80215,0.542839,-0.210511
1630070124661,-0.802577,0.543571,-0.21185299999999999
1630070124670,-0.801906,0.544242,-0.210511
1630070124680,-0.801967,0.544791,-0.212097
1630070124690,-0.802028,0.5441199999999999,-0.212097
1630070124699,-0.802272,0.544669,-0.213561
1630070124709,-0.80154,0.543998,-0.213622
1630070124718,-0.80215,0.543632,-0.213317
1630070124728,-0.801967,0.543754,-0.212829
1630070124738,-0.801906,0.543022,-0.213866
1630070124747,-0.802638,0.542412,-0.213866
1630070124757,-0.801601,0.542534,-0.213012
1630070124766,-0.801906,0.5425949999999999,-0.21289
1630070124776,-0.801601,0.542412,-0.21154799999999999
1630070124786,-0.8014789999999999,0.5425949999999999,-0.212341
1630070124795,-0.80093,0.5416799999999999,-0.212036
1630070124805,-0.801113,0.5422899999999999,-0.21246299999999999
1630070124814,-0.8011739999999999,0.541131,-0.212707
1630070124824,-0.801235,0.541558,-0.213317
1630070124834,-0.801113,0.5410699999999999,-0.213256
1630070124843,-0.800686,0.540094,-0.214781
1630070124853,-0.800747,0.5398499999999999,-0.215635
1630070124862,-0.80093,0.538874,-0.21581799999999998
1630070124872,-0.801296,0.538874,-0.215086
1630070124882,-0.802333,0.5398499999999999,-0.216062
1630070124891,-0.801723,0.5395449999999999,-0.217343
1630070124901,-0.802638,0.539911,-0.217221
1630070124910,-0.802882,0.5401549999999999,-0.21770899999999999
1630070124920,-0.801723,0.5392399999999999,-0.216916
1630070124930,-0.802333,0.538569,-0.216733
1630070124939,-0.8039189999999999,0.5386299999999999,-0.216611
1630070124949,-0.804712,0.540704,-0.21655
1630070124958,-0.804712,0.5435099999999999,-0.216916
1630070124968,-0.804041,0.5465599999999999,-0.217648
1630070124978,-0.804468,0.5456449999999999,-0.21862399999999999
1630070124987,-0.803675,0.541497,-0.21899
1630070124997,-0.802577,0.537532,-0.219173
1630070125006,-0.801235,0.536312,-0.21984399999999998
1630070125016,-0.799832,0.536983,-0.219722
1630070125026,-0.7984289999999999,0.537044,-0.21831899999999999
1630070125035,-0.798246,0.5383249999999999,-0.21862399999999999
1630070125045,-0.798063,0.540887,-0.218746
1630070125054,-0.798063,0.541924,-0.21770899999999999
1630070125064,-0.799161,0.543083,-0.217282
1630070125074,-0.800076,0.5428999999999999,-0.216977
1630070125083,-0.80093,0.540948,-0.218746
1630070125093,-0.8005639999999999,0.539606,-0.217648
1630070125102,-0.802638,0.538691,-0.219173
1630070125112,-0.801845,0.540643,-0.22143
1630070125122,-0.802638,0.542168,-0.222528
1630070125131,-0.8017839999999999,0.542168,-0.223809
1630070125141,-0.801906,0.542107,-0.222894
1630070125150,-0.802882,0.542656,-0.223321
1630070125160,-0.800381,0.542473,-0.222101
1630070125170,-0.800137,0.538813,-0.220027
1630070125179,-0.802577,0.540094,-0.219783
1630070125189,-0.8023939999999999,0.539789,-0.218197
1630070125198,-0.801906,0.541802,-0.21490299999999998
1630070125208,-0.8030039999999999,0.545401,-0.21533
1630070125218,-0.802516,0.545279,-0.214171
1630070125227,-0.801662,0.543876,-0.213561
1630070125237,-0.80093,0.542839,-0.213622
1630070125246,-0.801662,0.540643,-0.213134
1630070125256,-0.8008689999999999,0.539728,-0.213134
1630070125266,-0.799771,0.538508,-0.212646
1630070125275,-0.800747,0.539362,-0.212646
1630070125285,-0.8011739999999999,0.5401549999999999,-0.212951
1630070125294,-0.801418,0.540033,-0.214049
1630070125304,-0.8017839999999999,0.541619,-0.214232
1630070125314,-0.802028,0.5422899999999999,-0.214354
1630070125323,-0.8014789999999999,0.541924,-0.21429299999999998
1630070125333,-0.801845,0.5422899999999999,-0.21276799999999998
1630070125342,-0.802028,0.541863,-0.21398799999999998
1630070125352,-0.801906,0.542046,-0.214232
1630070125362,-0.80215,0.542046,-0.214415
1630070125371,-0.802333,0.5419849999999999,-0.21398799999999998
1630070125381,-0.8017839999999999,0.541558,-0.215147
1630070125390,-0.802333,0.541314,-0.214171
1630070125400,-0.80154,0.541741,-0.214781
1630070125410,-0.7999539999999999,0.5422899999999999,-0.214354
1630070125419,-0.801113,0.542168,-0.213927
1630070125429,-0.800442,0.541131,-0.212646
1630070125438,-0.799832,0.541558,-0.212646
1630070125448,-0.799588,0.541924,-0.213866
1630070125458,-0.800198,0.540521,-0.213622
1630070125467,-0.801113,0.541131,-0.213805
1630070125477,-0.800747,0.5410699999999999,-0.214171
1630070125486,-0.800381,0.5410699999999999,-0.21490299999999998
1630070125496,-0.801052,0.541863,-0.216245
1630070125506,-0.800381,0.541009,-0.216733
1630070125515,-0.8011739999999999,0.540277,-0.217038
1630070125525,-0.801113,0.540094,-0.218075
1630070125534,-0.802028,0.540521,-0.21838
1630070125544,-0.801723,0.540094,-0.218197
1630070125554,-0.80154,0.5401549999999999,-0.219112
1630070125563,-0.803065,0.542168,-0.220576
1630070125573,-0.802211,0.541802,-0.22106399999999998
1630070125582,-0.80154,0.5410699999999999,-0.221491
1630070125592,-0.800442,0.540033,-0.221003
1630070125602,-0.800808,0.539911,-0.220027
1630070125611,-0.801662,0.539118,-0.21770899999999999
1630070125621,-0.804102,0.5398499999999999,-0.217343
1630070125630,-0.805566,0.542839,-0.217526
1630070125640,-0.805688,0.544974,-0.217343
1630070125650,-0.804773,0.545828,-0.217892
1630070125659,-0.8045289999999999,0.543449,-0.218197
1630070125669,-0.8042239999999999,0.539423,-0.21838
1630070125678,-0.802272,0.536678,-0.218075
1630070125688,-0.80154,0.536068,-0.217526
1630070125698,-0.8014789999999999,0.5374099999999999,-0.217282
1630070125707,-0.801967,0.537166,-0.216306
1630070125717,-0.8002589999999999,0.538752,-0.21770899999999999
1630070125726,-0.800686,0.538874,-0.21716
1630070125736,-0.800198,0.540216,-0.217648
1630070125746,-0.800198,0.540094,-0.217892
1630070125755,-0.801662,0.5398499999999999,-0.219295
1630070125765,-0.800686,0.540094,-0.21892899999999998
1630070125774,-0.80093,0.538386,-0.218563
1630070125784,-0.800442,0.539789,-0.219478
1630070125794,-0.80032,0.539606,-0.22021
1630070125803,-0.800442,0.540521,-0.220698
1630070125813,-0.801113,0.540826,-0.22045399999999998
1630070125822,-0.802455,0.5435099999999999,-0.221003
1630070125832,-0.799222,0.543449,-0.22143
1630070125842,-0.798612,0.538752,-0.219905
1630070125851,-0.801723,0.539118,-0.217282
1630070125861,-0.801113,0.539057,-0.21612299999999998
1630070125870,-0.8011739999999999,0.540094,-0.21459799999999998
1630070125880,-0.80154,0.543754,-0.21551299999999998
1630070125890,-0.802516,0.544608,-0.216062
1630070125899,-0.8023939999999999,0.543388,-0.215391
1630070125909,-0.80276,0.542046,-0.216977
1630070125918,-0.802333,0.540033,-0.216184
1630070125928,-0.8020889999999999,0.5401549999999999,-0.21655
1630070125938,-0.803248,0.541009,-0.216184
1630070125947,-0.803187,0.541131,-0.216916
1630070125957,-0.8030039999999999,0.541436,-0.217221
1630070125966,-0.803858,0.542412,-0.217526
1630070125976,-0.804285,0.542656,-0.217343
1630070125986,-0.802882,0.541558,-0.216855
1630070125995,-0.804041,0.541924,-0.21520799999999998
1630070126005,-0.8036139999999999,0.542534,-0.216001
1630070126014,-0.802211,0.5422899999999999,-0.215574
1630070126024,-0.801357,0.541741,-0.21551299999999998
1630070126034,-0.8011739999999999,0.541802,-0.216672
1630070126043,-0.802455,0.542412,-0.21716
1630070126053,-0.801357,0.541924,-0.216306
1630070126062,-0.801052,0.541863,-0.21716
1630070126072,-0.799466,0.541924,-0.216916
1630070126082,-0.799588,0.5410699999999999,-0.216672
1630070126091,-0.799893,0.541436,-0.21612299999999998
1630070126101,-0.7987339999999999,0.5410699999999999,-0.215391
1630070126110,-0.797392,0.540643,-0.215574
1630070126120,-0.79849,0.5407649999999999,-0.216245
1630070126130,-0.799466,0.540338,-0.217465
1630070126139,-0.800076,0.540826,-0.217343
1630070126149,-0.800015,0.5416799999999999,-0.218075
1630070126158,-0.799161,0.541009,-0.219112
1630070126168,-0.799527,0.540887,-0.219417
1630070126178,-0.798856,0.540277,-0.21953899999999998
1630070126187,-0.7996489999999999,0.539301,-0.219356
1630070126197,-0.80032,0.539484,-0.21899
1630070126206,-0.7996489999999999,0.541497,-0.219417
1630070126216,-0.799893,0.540826,-0.220088
1630070126226,-0.800137,0.540826,-0.22075899999999998
1630070126235,-0.800747,0.539789,-0.221735
1630070126245,-0.801601,0.538447,-0.221613
1630070126254,-0.799832,0.537349,-0.220576
1630070126264,-0.80215,0.539423,-0.22014899999999998
1630070126274,-0.80398,0.542778,-0.221491
1630070126283,-0.8051389999999999,0.544913,-0.222162
1630070126293,-0.8039189999999999,0.546804,-0.222528
1630070126302,-0.804651,0.5459499999999999,-0.224053
1630070126312,-0.8026989999999999,0.5432049999999999,-0.224724
1630070126322,-0.80215,0.538569,-0.22508999999999998
1630070126331,-0.800991,0.536007,-0.225334
1630070126341,-0.799527,0.536068,-0.225273
1630070126350,-0.798551,0.537166,-0.22478499999999998
1630070126360,-0.7991,0.538081,-0.22508999999999998
1630070126370,-0.799893,0.539972,-0.22630999999999998
1630070126379,-0.7990389999999999,0.541314,-0.226432
1630070126389,-0.799893,0.542168,-0.225883
1630070126398,-0.799466,0.541558,-0.225822
1630070126408,-0.7993439999999999,0.541802,-0.22539499999999998
1630070126418,-0.798917,0.5401549999999999,-0.223992
1630070126427,-0.79971,0.539484,-0.223443
1630070126437,-0.799588,0.539362,-0.222772
1630070126446,-0.7990389999999999,0.5401549999999999,-0.222894
1630070126456,-0.7991,0.539728,-0.223748
1630070126466,-0.798612,0.540277,-0.222711
1630070126475,-0.7996489999999999,0.541558,-0.222528
1630070126485,-0.797941,0.540277,-0.222528
1630070126494,-0.7991,0.536678,-0.222101
1630070126504,-0.801113,0.537471,-0.221552
1630070126514,-0.8023939999999999,0.5380199999999999,-0.221308
1630070126523,-0.803675,0.5410699999999999,-0.221003
1630070126533,-0.804285,0.545157,-0.22143
1630070126542,-0.804895,0.545523,-0.220332
1630070126552,-0.802943,0.543693,-0.220271
1630070126562,-0.802943,0.540826,-0.220515
1630070126571,-0.800991,0.5395449999999999,-0.219966
1630070126581,-0.799893,0.537837,-0.22045399999999998
1630070126590,-0.799222,0.538203,-0.219966
1630070126600,-0.7984289999999999,0.537837,-0.22021
1630070126610,-0.798002,0.537349,-0.220271
1630070126619,-0.798551,0.539606,-0.221918
1630070126629,-0.798978,0.539911,-0.223443
1630070126638,-0.799771,0.5404599999999999,-0.222589
1630070126648,-0.800137,0.539789,-0.222467
1630070126658,-0.80093,0.540338,-0.222101
1630070126667,-0.802455,0.540582,-0.223138
1630070126677,-0.802333,0.540399,-0.223748
1630070126686,-0.803065,0.540521,-0.223992
1630070126696,-0.802943,0.539728,-0.224419
1630070126706,-0.8026989999999999,0.540704,-0.224602
1630070126715,-0.802577,0.5401549999999999,-0.225761
1630070126725,-0.801906,0.539789,-0.22447999999999999
1630070126734,-0.8014789999999999,0.5389349999999999,-0.224724
1630070126744,-0.8020889999999999,0.539484,-0.224358
1630070126754,-0.801967,0.538142,-0.224053
1630070126763,-0.8011739999999999,0.538691,-0.223199
1630070126773,-0.8014789999999999,0.539057,-0.221796
1630070126782,-0.800808,0.538752,-0.221247
1630070126792,-0.800686,0.538386,-0.221613
1630070126802,-0.800625,0.538996,-0.22167399999999998
1630070126811,-0.801906,0.537776,-0.22143
1630070126821,-0.8023939999999999,0.537227,-0.22143
1630070126830,-0.802211,0.537776,-0.222711
1630070126840,-0.802211,0.536922,-0.22197899999999998
1630070126850,-0.801906,0.537654,-0.222589
1630070126859,-0.802272,0.5374099999999999,-0.221918
1630070126869,-0.802028,0.537776,-0.221857
1630070126878,-0.801357,0.5367999999999999,-0.222833
1630070126888,-0.801967,0.53497,-0.22265
1630070126898,-0.801845,0.53558,-0.223138
1630070126907,-0.8017839999999999,0.536556,-0.222955
1630070126917,-0.80215,0.535092,-0.221857
1630070126926,-0.804346,0.534909,-0.221796
1630070126936,-0.8052,0.536373,-0.22075899999999998
1630070126946,-0.805261,0.5392399999999999,-0.220393
1630070126955,-0.804956,0.5416799999999999,-0.22167399999999998
1630070126965,-0.804163,0.540582,-0.221918
1630070126974,-0.803858,0.5361899999999999,-0.22265
1630070126984,-0.804285,0.532652,-0.221918
1630070126994,-0.804041,0.531432,-0.222101
1630070127003,-0.8030039999999999,0.531127,-0.221796
1630070127013,-0.803126,0.532896,-0.220637
1630070127022,-0.802821,0.533628,-0.220942
1630070127032,-0.8020889999999999,0.535092,-0.221857
1630070127042,-0.803065,0.537227,-0.220942
1630070127051,-0.803431,0.537044,-0.22021
1630070127061,-0.803248,0.536983,-0.220027
1630070127070,-0.8042239999999999,0.5361899999999999,-0.2196
1630070127080,-0.804895,0.534238,-0.218685
1630070127090,-0.8039189999999999,0.53375,-0.218807
1630070127099,-0.804895,0.535458,-0.220088
1630070127109,-0.8060539999999999,0.535702,-0.22082
1630070127118,-0.805993,0.535092,-0.220393
1630070127128,-0.806115,0.535214,-0.220393
1630070127138,-0.806542,0.53497,-0.220027
1630070127147,-0.8060539999999999,0.53558,-0.219417
1630070127157,-0.805688,0.534238,-0.219112
1630070127166,-0.805688,0.533262,-0.217953
1630070127176,-0.805322,0.535092,-0.217282
1630070127186,-0.8066639999999999,0.534543,-0.21594
1630070127195,-0.805871,0.53497,-0.216428
1630070127205,-0.805383,0.5367999999999999,-0.216794
1630070127214,-0.806542,0.536617,-0.216184
1630070127224,-0.805871,0.536617,-0.216428
1630070127234,-0.8060539999999999,0.535641,-0.216367
1630070127243,-0.806603,0.535702,-0.215147
1630070127253,-0.806176,0.53436,-0.21520799999999998
1630070127262,-0.805322,0.534055,-0.214171
1630070127272,-0.8051389999999999,0.534665,-0.215147
1630070127282,-0.805017,0.535031,-0.21551299999999998
1630070127291,-0.804163,0.535153,-0.216672
1630070127301,-0.8048339999999999,0.535031,-0.21581799999999998
1630070127310,-0.80581,0.535824,-0.215879
1630070127320,-0.805993,0.53558,-0.21520799999999998
1630070127330,-0.80581,0.535214,-0.214781
1630070127339,-0.805932,0.535092,-0.215391
1630070127349,-0.806542,0.535092,-0.215269
1630070127358,-0.806298,0.535153,-0.21490299999999998
1630070127368,-0.805932,0.535214,-0.21490299999999998
1630070127378,-0.806725,0.53558,-0.214781
1630070127387,-0.8060539999999999,0.535336,-0.216001
1630070127397,-0.806176,0.535275,-0.215574
1630070127406,-0.80703,0.535702,-0.21472
1630070127416,-0.805932,0.535702,-0.215452
1630070127426,-0.805871,0.535092,-0.215757
1630070127435,-0.80581,0.535092,-0.215696
1630070127445,-0.805261,0.534848,-0.21594
1630070127454,-0.803431,0.535458,-0.216367
1630070127464,-0.8039189999999999,0.535336,-0.215879
1630070127474,-0.804651,0.535702,-0.215574
1630070127483,-0.8036139999999999,0.53375,-0.21520799999999998
1630070127493,-0.803187,0.534299,-0.215635
1630070127502,-0.8036139999999999,0.53436,-0.215147
1630070127512,-0.8045289999999999,0.533994,-0.214964
1630070127522,-0.804773,0.535092,-0.214537
1630070127531,-0.804102,0.534665,-0.21770899999999999
1630070127541,-0.8048339999999999,0.533872,-0.218136
1630070127550,-0.805017,0.534055,-0.21838
1630070127560,-0.8039189999999999,0.534116,-0.217465
1630070127570,-0.803492,0.531859,-0.217587
1630070127579,-0.8051389999999999,0.531493,-0.217526
1630070127589,-0.807762,0.532957,-0.218441
1630070127598,-0.808311,0.536861,-0.217587
1630070127608,-0.809653,0.538874,-0.219051
1630070127618,-0.810507,0.538386,-0.22045399999999998
1630070127627,-0.809165,0.535824,-0.220393
1630070127637,-0.809226,0.531859,-0.220698
1630070127646,-0.807823,0.530456,-0.220088
1630070127656,-0.806115,0.529419,-0.219051
1630070127666,-0.8045289999999999,0.529358,-0.216977
1630070127675,-0.804468,0.530761,-0.217831
1630070127685,-0.805078,0.533079,-0.218441
1630070127694,-0.80398,0.533811,-0.218807
1630070127704,-0.804346,0.533628,-0.218502
1630070127714,-0.805627,0.533689,-0.219112
1630070127723,-0.805627,0.532774,-0.219173
1630070127733,-0.8063589999999999,0.532347,-0.21953899999999998
1630070127742,-0.80764,0.533323,-0.219051
1630070127752,-0.80764,0.534055,-0.219966
1630070127762,-0.8069689999999999,0.53436,-0.219295
1630070127771,-0.80703,0.534848,-0.22021
1630070127781,-0.8063589999999999,0.533689,-0.219173
1630070127790,-0.805322,0.532286,-0.219417
1630070127800,-0.804773,0.532896,-0.218136
1630070127810,-0.803431,0.530395,-0.216733
1630070127819,-0.8051389999999999,0.530944,-0.216794
1630070127829,-0.805688,0.532042,-0.214781
1630070127838,-0.8057489999999999,0.532896,-0.214354
1630070127848,-0.805932,0.535763,-0.214415
1630070127858,-0.8072739999999999,0.536678,-0.214842
1630070127867,-0.807701,0.536129,-0.215757
1630070127877,-0.807335,0.535092,-0.216367
1630070127886,-0.8066639999999999,0.534543,-0.216245
1630070127896,-0.8072739999999999,0.534177,-0.216733
1630070127906,-0.804712,0.53253,-0.217282
1630070127915,-0.8045289999999999,0.531798,-0.217648
1630070127925,-0.804468,0.533079,-0.217648
1630070127934,-0.804407,0.534787,-0.218502
1630070127944,-0.805383,0.534482,-0.218868
1630070127954,-0.80581,0.534665,-0.21899
1630070127963,-0.8054439999999999,0.535824,-0.219051
1630070127973,-0.8060539999999999,0.535641,-0.219966
1630070127982,-0.805932,0.535946,-0.22014899999999998
1630070127992,-0.804102,0.5371049999999999,-0.220271
1630070128002,-0.8045289999999999,0.5371049999999999,-0.220088
1630070128011,-0.8045289999999999,0.536617,-0.220271
1630070128021,-0.8042239999999999,0.535946,-0.22021
1630070128030,-0.804163,0.535458,-0.220942
1630070128040,-0.804041,0.535153,-0.21984399999999998
1630070128050,-0.8036139999999999,0.535824,-0.220027
1630070128059,-0.8042239999999999,0.5364949999999999,-0.22075899999999998
1630070128069,-0.8052,0.537837,-0.220515
1630070128078,-0.804468,0.537044,-0.220393
1630070128088,-0.8039189999999999,0.537532,-0.220515
1630070128098,-0.8045289999999999,0.5374099999999999,-0.221186
1630070128107,-0.80459,0.536556,-0.221247
1630070128117,-0.80337,0.535824,-0.221003
1630070128126,-0.804041,0.536007,-0.22075899999999998
1630070128136,-0.804102,0.535336,-0.221613
1630070128146,-0.80337,0.534604,-0.220942
1630070128155,-0.80215,0.533201,-0.220393
1630070128165,-0.8030039999999999,0.533506,-0.220332
1630070128174,-0.803187,0.534604,-0.220637
1630070128184,-0.80215,0.535702,-0.221552
1630070128194,-0.802516,0.534421,-0.22197899999999998
1630070128203,-0.801052,0.534848,-0.222467
1630070128213,-0.8020889999999999,0.535031,-0.22106399999999998
1630070128222,-0.801723,0.532957,-0.22045399999999998
1630070128232,-0.80459,0.53375,-0.22106399999999998
1630070128242,-0.806176,0.537349,-0.221857
1630070128251,-0.807213,0.5401549999999999,-0.22197899999999998
1630070128261,-0.806603,0.540826,-0.222101
1630070128270,-0.8063589999999999,0.538203,-0.223382
1630070128280,-0.805017,0.534116,-0.222467
1630070128290,-0.804102,0.530639,-0.223138
1630070128299,-0.80276,0.529968,-0.222589
1630070128309,-0.8030039999999999,0.5307,-0.22265
1630070128318,-0.8026989999999999,0.53192,-0.222711
1630070128328,-0.803065,0.532835,-0.222406
1630070128338,-0.803187,0.535153,-0.223016
1630070128347,-0.803858,0.5364949999999999,-0.22326
1630070128357,-0.803736,0.536312,-0.222772
1630070128366,-0.804956,0.534909,-0.222894
1630070128376,-0.8039189999999999,0.532896,-0.222345
1630070128386,-0.804285,0.532286,-0.222223
1630070128395,-0.804651,0.533445,-0.222833
1630070128405,-0.804712,0.534177,-0.223138
1630070128414,-0.805078,0.534909,-0.224114
1630070128424,-0.8054439999999999,0.535214,-0.224663
1630070128434,-0.8054439999999999,0.535763,-0.224541
1630070128443,-0.805383,0.536556,-0.22417499999999999
1630070128453,-0.8033089999999999,0.532957,-0.222955
1630070128462,-0.8048339999999999,0.532713,-0.22228399999999998
1630070128472,-0.8057489999999999,0.533079,-0.22204
1630070128482,-0.8066639999999999,0.533262,-0.221308
1630070128491,-0.80581,0.537227,-0.221308
1630070128501,-0.808128,0.538996,-0.22075899999999998
1630070128510,-0.8081889999999999,0.537959,-0.22021
1630070128520,-0.8069689999999999,0.535031,-0.220881
1630070128530,-0.806847,0.533933,-0.221186
1630070128539,-0.806786,0.533018,-0.221613
1630070128549,-0.805627,0.532896,-0.22075899999999998
1630070128558,-0.8051389999999999,0.534055,-0.220576
1630070128568,-0.805261,0.535031,-0.221003
1630070128578,-0.8057489999999999,0.536373,-0.221186
1630070128587,-0.8054439999999999,0.536068,-0.22045399999999998
1630070128597,-0.805932,0.53436,-0.220332
1630070128606,-0.805627,0.535641,-0.21923399999999998
1630070128616,-0.806176,0.535702,-0.21899
1630070128626,-0.806298,0.535641,-0.218746
1630070128635,-0.805078,0.536556,-0.218868
1630070128645,-0.804468,0.535946,-0.219173
1630070128654,-0.804163,0.535519,-0.219051
1630070128664,-0.804651,0.534787,-0.21801399999999999
1630070128674,-0.8033089999999999,0.535336,-0.217404
1630070128683,-0.803858,0.53558,-0.217831
1630070128693,-0.803492,0.536312,-0.216977
1630070128702,-0.802333,0.535702,-0.216184
1630070128712,-0.802455,0.535702,-0.216428
1630070128722,-0.801967,0.5361899999999999,-0.216428
1630070128731,-0.80093,0.535885,-0.21655
1630070128741,-0.800442,0.534848,-0.216428
1630070128750,-0.801418,0.535214,-0.217892
1630070128760,-0.8011739999999999,0.535092,-0.219112
1630070128770,-0.801235,0.536068,-0.220027
1630070128779,-0.801845,0.536556,-0.219966
1630070128789,-0.800991,0.534848,-0.220881
1630070128798,-0.802516,0.535214,-0.221491
1630070128808,-0.8017839999999999,0.536739,-0.222711
1630070128818,-0.802272,0.536556,-0.223626
1630070128827,-0.802516,0.535519,-0.224724
1630070128837,-0.80276,0.533933,-0.225639
1630070128846,-0.8036139999999999,0.533079,-0.224541
1630070128856,-0.8036139999999999,0.534177,-0.223443
1630070128866,-0.805871,0.536922,-0.224114
1630070128875,-0.806725,0.539301,-0.223443
1630070128885,-0.806481,0.540521,-0.22265
1630070128894,-0.8057489999999999,0.541619,-0.223077
1630070128904,-0.8052,0.540887,-0.22447999999999999
1630070128914,-0.8039189999999999,0.536129,-0.224846
1630070128923,-0.8036139999999999,0.533079,-0.224541
1630070128933,-0.80337,0.532286,-0.224541
1630070128942,-0.802333,0.533018,-0.225456
1630070128952,-0.802028,0.533689,-0.224724
1630070128962,-0.802211,0.535153,-0.224663
1630070128971,-0.8017839999999999,0.5361899999999999,-0.225151
1630070128981,-0.801601,0.537593,-0.22569999999999998
1630070128990,-0.8020889999999999,0.539179,-0.226371
1630070129000,-0.802455,0.537654,-0.226432
1630070129010,-0.8033089999999999,0.535153,-0.225883
1630070129019,-0.802333,0.533933,-0.226066
1630070129029,-0.80276,0.534604,-0.22539499999999998
1630070129038,-0.8042239999999999,0.535275,-0.22600499999999998
1630070129048,-0.8033089999999999,0.5364949999999999,-0.225944
1630070129058,-0.802516,0.536251,-0.22508999999999998
1630070129067,-0.802882,0.535519,-0.224602
1630070129077,-0.802455,0.536739,-0.224358
1630070129086,-0.8011739999999999,0.534177,-0.22356499999999999
1630070129096,-0.801235,0.532103,-0.22197899999999998
1630070129106,-0.802638,0.532835,-0.220515
1630070129115,-0.8033089999999999,0.532652,-0.219051
1630070129125,-0.80398,0.535824,-0.21899
1630070129134,-0.804712,0.5392399999999999,-0.21953899999999998
1630070129144,-0.805627,0.539484,-0.218563
1630070129154,-0.804712,0.537959,-0.21892899999999998
1630070129163,-0.804163,0.534909,-0.220088
1630070129173,-0.803736,0.533506,-0.2196
1630070129182,-0.803553,0.532103,-0.220088
1630070129192,-0.802821,0.532164,-0.219417
1630070129202,-0.803431,0.533567,-0.220393
1630070129211,-0.802638,0.533933,-0.221735
1630070129221,-0.8036139999999999,0.534116,-0.222467
1630070129230,-0.80337,0.534482,-0.222406
1630070129240,-0.803492,0.533994,-0.22265
1630070129250,-0.804163,0.533811,-0.22167399999999998
1630070129259,-0.805688,0.533811,-0.22167399999999998
1630070129269,-0.806542,0.534055,-0.22197899999999998
1630070129278,-0.807701,0.535153,-0.22228399999999998
1630070129288,-0.80764,0.534909,-0.22386999999999999
1630070129298,-0.807518,0.534665,-0.223687
1630070129307,-0.807335,0.534726,-0.223443
1630070129317,-0.807213,0.535397,-0.223077
1630070129326,-0.807457,0.535702,-0.223687
1630070129336,-0.806481,0.535641,-0.223138
1630070129346,-0.806481,0.535702,-0.222162
1630070129355,-0.80581,0.534726,-0.221796
1630070129365,-0.804163,0.535092,-0.222467
1630070129374,-0.803492,0.534848,-0.222162
1630070129384,-0.803431,0.534848,-0.222406
1630070129394,-0.803553,0.53558,-0.222833
1630070129403,-0.803248,0.535214,-0.222955
1630070129413,-0.803248,0.534299,-0.222711
1630070129422,-0.802211,0.533811,-0.223931
1630070129432,-0.802272,0.53314,-0.224358
1630070129442,-0.802943,0.534055,-0.223992
1630070129451,-0.803187,0.533628,-0.223138
1630070129461,-0.80337,0.534604,-0.223626
1630070129470,-0.803126,0.53375,-0.224846
1630070129480,-0.8033089999999999,0.532347,-0.22356499999999999
1630070129490,-0.8033089999999999,0.534848,-0.223931
1630070129499,-0.8036139999999999,0.535092,-0.222345
1630070129509,-0.804346,0.534055,-0.222467
1630070129518,-0.805688,0.533933,-0.22082
1630070129528,-0.806115,0.534421,-0.220393
1630070129538,-0.806115,0.5377149999999999,-0.219173
1630070129547,-0.8057489999999999,0.5392399999999999,-0.219966
1630070129557,-0.80581,0.538264,-0.220393
1630070129566,-0.805261,0.53497,-0.221796
1630070129576,-0.8042239999999999,0.531859,-0.222711
1630070129586,-0.803858,0.531066,-0.22204
1630070129595,-0.803431,0.531005,-0.222101
1630070129605,-0.8020889999999999,0.530822,-0.221491
1630070129614,-0.801723,0.532591,-0.221125
1630070129624,-0.801906,0.534116,-0.22143
1630070129634,-0.802577,0.536068,-0.221735
1630070129643,-0.802455,0.536373,-0.222162
1630070129653,-0.801601,0.535275,-0.22204
1630070129662,-0.8023939999999999,0.53436,-0.22136899999999998
1630070129672,-0.8023939999999999,0.533933,-0.221186
1630070129682,-0.803126,0.534787,-0.222406
1630070129691,-0.803248,0.535214,-0.223016
1630070129701,-0.80398,0.535702,-0.223626
1630070129710,-0.803736,0.5361899999999999,-0.224053
1630070129720,-0.803492,0.535519,-0.22447999999999999
1630070129730,-0.804651,0.534482,-0.22478499999999998
1630070129739,-0.804468,0.536129,-0.225212
1630070129749,-0.804102,0.534726,-0.224724
1630070129758,-0.803797,0.534238,-0.222772
1630070129768,-0.804346,0.535397,-0.221918
1630070129778,-0.8045289999999999,0.534604,-0.220271
1630070129787,-0.8042239999999999,0.535702,-0.219722
1630070129797,-0.805261,0.536556,-0.218868
1630070129806,-0.805932,0.536861,-0.219112
1630070129816,-0.805871,0.536251,-0.218868
1630070129826,-0.806298,0.53497,-0.21899
1630070129835,-0.805627,0.534604,-0.219295
1630070129845,-0.8052,0.533384,-0.21862399999999999
1630070129854,-0.804773,0.53314,-0.218685
1630070129864,-0.806115,0.534604,-0.219783
1630070129874,-0.805078,0.53497,-0.220576
1630070129883,-0.805322,0.533384,-0.220881
1630070129893,-0.804468,0.533079,-0.221552
1630070129902,-0.805078,0.533323,-0.22106399999999998
1630070129912,-0.806481,0.533567,-0.22143
1630070129922,-0.806847,0.534116,-0.220942
1630070129931,-0.806847,0.532591,-0.221125
1630070129941,-0.806725,0.532835,-0.22075899999999998
1630070129950,-0.805932,0.53314,-0.220698
1630070129960,-0.806115,0.531737,-0.221918
1630070129970,-0.8060539999999999,0.532042,-0.222467
1630070129979,-0.806542,0.531615,-0.22167399999999998
1630070129989,-0.80642,0.532042,-0.220942
1630070129998,-0.806298,0.531615,-0.221125
1630070130008,-0.805505,0.531859,-0.22082
1630070130018,-0.805078,0.531432,-0.220576
1630070130027,-0.805017,0.531493,-0.220637
1630070130037,-0.80581,0.530944,-0.221003
1630070130046,-0.805932,0.531493,-0.22021
1630070130056,-0.804956,0.531188,-0.22075899999999998
1630070130066,-0.80703,0.531371,-0.220698
1630070130075,-0.807335,0.532042,-0.22136899999999998
1630070130085,-0.806725,0.531249,-0.221125
1630070130094,-0.80642,0.530578,-0.22167399999999998
1630070130104,-0.8060539999999999,0.530944,-0.222528
1630070130114,-0.806115,0.530639,-0.223199
1630070130123,-0.8072739999999999,0.53009,-0.222711
1630070130133,-0.807152,0.531737,-0.22265
1630070130142,-0.805505,0.530578,-0.224663
1630070130152,-0.8063589999999999,0.530151,-0.224663
1630070130162,-0.80703,0.530517,-0.224297
1630070130171,-0.806237,0.530944,-0.222345
1630070130181,-0.8069689999999999,0.529358,-0.222833
1630070130190,-0.808982,0.529968,-0.222894
1630070130200,-0.80947,0.53253,-0.222833
1630070130210,-0.809226,0.535397,-0.224846
1630070130219,-0.80886,0.536434,-0.22569999999999998
1630070130229,-0.8081889999999999,0.53314,-0.225578
1630070130238,-0.8078839999999999,0.529907,-0.22600499999999998
1630070130248,-0.806603,0.528199,-0.225212
1630070130258,-0.806298,0.52704,-0.224846
1630070130267,-0.8063589999999999,0.527833,-0.22386999999999999
1630070130277,-0.806176,0.52887,-0.223504
1630070130286,-0.806481,0.531371,-0.223687
1630070130296,-0.8066639999999999,0.533689,-0.224236
1630070130306,-0.805688,0.533872,-0.224236
1630070130315,-0.805688,0.533018,-0.222711
1630070130325,-0.804407,0.532896,-0.221491
1630070130334,-0.804468,0.530883,-0.220881
1630070130344,-0.805078,0.530822,-0.222467
1630070130354,-0.8054439999999999,0.530761,-0.222772
1630070130363,-0.805688,0.530822,-0.222406
1630070130373,-0.805017,0.53192,-0.221857
1630070130382,-0.8052,0.531615,-0.222223
1630070130392,-0.805078,0.53131,-0.221613
1630070130402,-0.805932,0.532103,-0.221796
1630070130411,-0.80398,0.531371,-0.221125
1630070130421,-0.805322,0.531127,-0.219173
1630070130430,-0.806481,0.532225,-0.217831
1630070130440,-0.807396,0.531493,-0.216977
1630070130450,-0.807152,0.533567,-0.216428
1630070130459,-0.808677,0.535031,-0.21716
1630070130469,-0.808738,0.5361899999999999,-0.217221
1630070130478,-0.8084939999999999,0.535519,-0.217343
1630070130488,-0.8075789999999999,0.534848,-0.218746
1630070130498,-0.8066639999999999,0.534726,-0.218441
1630070130507,-0.805688,0.533933,-0.218685
1630070130517,-0.803736,0.532347,-0.220393
1630070130526,-0.803553,0.532286,-0.22014899999999998
1630070130536,-0.803797,0.534116,-0.220393
1630070130546,-0.803126,0.533384,-0.22167399999999998
1630070130555,-0.803736,0.534177,-0.222406
1630070130565,-0.803248,0.534116,-0.221918
1630070130574,-0.80276,0.533689,-0.221491
1630070130584,-0.804041,0.533811,-0.221796
1630070130594,-0.8051389999999999,0.534055,-0.221796
1630070130603,-0.804285,0.534787,-0.221308
1630070130613,-0.804468,0.534848,-0.223138
1630070130622,-0.805688,0.53497,-0.223504
1630070130632,-0.8048339999999999,0.535641,-0.224602
1630070130642,-0.805322,0.535153,-0.225029
1630070130651,-0.8045289999999999,0.534482,-0.224846
1630070130661,-0.803553,0.534238,-0.225273
1630070130670,-0.804773,0.534116,-0.223748
1630070130680,-0.804407,0.534299,-0.224297
1630070130690,-0.804468,0.533628,-0.223382
1630070130699,-0.804712,0.533506,-0.222833
1630070130709,-0.8051389999999999,0.532347,-0.223138
1630070130718,-0.8057489999999999,0.533323,-0.22386999999999999
1630070130728,-0.8054439999999999,0.533079,-0.222711
1630070130738,-0.804712,0.533445,-0.223077
1630070130747,-0.805932,0.534482,-0.222894
1630070130757,-0.8048339999999999,0.53314,-0.223687
1630070130766,-0.805261,0.533018,-0.222589
1630070130776,-0.804895,0.532774,-0.223077
1630070130786,-0.804956,0.532103,-0.223443
1630070130795,-0.805322,0.530395,-0.22356499999999999
1630070130805,-0.804346,0.530944,-0.222406
1630070130814,-0.805505,0.532164,-0.22106399999999998
1630070130824,-0.80642,0.533384,-0.222467
1630070130834,-0.805932,0.532286,-0.222528
1630070130843,-0.8036139999999999,0.53131,-0.22356499999999999
1630070130853,-0.8039189999999999,0.530944,-0.221552
1630070130862,-0.804346,0.53131,-0.22197899999999998
1630070130872,-0.804285,0.529358,-0.221552
1630070130882,-0.8063589999999999,0.530822,-0.222589
1630070130891,-0.80886,0.533628,-0.223321
1630070130901,-0.808982,0.5374099999999999,-0.223809
1630070130910,-0.808067,0.538752,-0.225639
1630070130920,-0.807152,0.535153,-0.22691999999999998
1630070130930,-0.806298,0.531493,-0.227103
1630070130939,-0.80459,0.529297,-0.227164
1630070130949,-0.804346,0.528565,-0.226798
1630070130958,-0.8030039999999999,0.529968,-0.22630999999999998
1630070130968,-0.802821,0.529419,-0.226249
1630070130978,-0.803065,0.531066,-0.22508999999999998
1630070130987,-0.8036139999999999,0.533262,-0.224724
1630070130997,-0.804285,0.533811,-0.224846
1630070131006,-0.805017,0.534421,-0.224541
1630070131016,-0.8039189999999999,0.533201,-0.223931
1630070131026,-0.804102,0.533262,-0.224907
1630070131035,-0.804468,0.533628,-0.22447999999999999
1630070131045,-0.80398,0.534787,-0.224358
1630070131054,-0.804956,0.534787,-0.225578
1630070131064,-0.804773,0.534421,-0.224846
1630070131074,-0.8039189999999999,0.534604,-0.225456
1630070131083,-0.80398,0.533628,-0.225334
1630070131093,-0.8045289999999999,0.53497,-0.225212
1630070131102,-0.8023939999999999,0.534909,-0.224297
1630070131112,-0.802333,0.531981,-0.222345
1630070131122,-0.8036139999999999,0.533018,-0.221735
1630070131131,-0.804468,0.531981,-0.221186
1630070131141,-0.804712,0.5364949999999999,-0.222223
1630070131150,-0.805993,0.538996,-0.22204
1630070131160,-0.806481,0.537654,-0.222833
1630070131170,-0.8054439999999999,0.534604,-0.22228399999999998
1630070131179,-0.805505,0.533628,-0.223077
1630070131189,-0.805078,0.532896,-0.222894
1630070131198,-0.8048339999999999,0.532774,-0.222528
1630070131208,-0.80337,0.532896,-0.222223
1630070131218,-0.803736,0.53436,-0.221796
1630070131227,-0.8039189999999999,0.534726,-0.22356499999999999
1630070131237,-0.804041,0.534665,-0.223321
1630070131246,-0.804102,0.534177,-0.224053
1630070131256,-0.804102,0.535031,-0.224724
1630070131266,-0.804346,0.535275,-0.224297
1630070131275,-0.804346,0.535519,-0.224663
1630070131285,-0.8036139999999999,0.535763,-0.224968
1630070131294,-0.805505,0.53436,-0.225517
1630070131304,-0.804773,0.534055,-0.226737
1630070131314,-0.804712,0.535641,-0.227347
1630070131323,-0.804041,0.535946,-0.227591
1630070131333,-0.803736,0.535519,-0.227896
1630070131342,-0.8030039999999999,0.534299,-0.22722499999999998
1630070131352,-0.803858,0.534848,-0.226737
1630070131362,-0.803187,0.535458,-0.226432
1630070131371,-0.802516,0.535519,-0.226676
1630070131381,-0.802577,0.53558,-0.226127
1630070131390,-0.802516,0.535275,-0.225822
1630070131400,-0.8011739999999999,0.534055,-0.226066
1630070131410,-0.8011739999999999,0.534726,-0.226249
1630070131419,-0.8008689999999999,0.535092,-0.226859
1630070131429,-0.801235,0.534726,-0.227774
1630070131438,-0.8011739999999999,0.53436,-0.227103
1630070131448,-0.80093,0.534116,-0.228018
1630070131458,-0.800381,0.533933,-0.22875
1630070131467,-0.800686,0.53436,-0.229238
1630070131477,-0.800991,0.532835,-0.228933
1630070131486,-0.8017839999999999,0.533811,-0.228567
1630070131496,-0.8017839999999999,0.535031,-0.22972599999999999
1630070131506,-0.801418,0.534665,-0.229665
1630070131515,-0.801601,0.533018,-0.229787
1630070131525,-0.801113,0.530639,-0.23064099999999998
1630070131534,-0.802943,0.530822,-0.231068
1630070131544,-0.80276,0.531981,-0.22997
1630070131554,-0.804895,0.534055,-0.230397
1630070131563,-0.806237,0.536373,-0.231373
1630070131573,-0.806786,0.5389349999999999,-0.23064099999999998
1630070131582,-0.805871,0.539667,-0.231434
1630070131592,-0.8052,0.5377149999999999,-0.23155599999999998
1630070131602,-0.804895,0.533567,-0.23119
1630070131611,-0.802516,0.530273,-0.230214
1630070131621,-0.802333,0.530578,-0.22997
1630070131630,-0.801906,0.531371,-0.228201
1630070131640,-0.800686,0.532652,-0.229543
1630070131650,-0.8002589999999999,0.534482,-0.227896
1630070131659,-0.800015,0.535946,-0.229482
1630070131669,-0.8008689999999999,0.536251,-0.23033599999999999
1630070131678,-0.800442,0.536373,-0.230275
1630070131688,-0.80154,0.536739,-0.23003099999999999
1630070131698,-0.801906,0.536068,-0.229543
1630070131707,-0.80215,0.535092,-0.230397
1630070131717,-0.80215,0.535702,-0.230214
1630070131726,-0.8017839999999999,0.536556,-0.229665
1630070131736,-0.803187,0.536922,-0.229787
1630070131746,-0.8023939999999999,0.5367999999999999,-0.229238
1630070131755,-0.803126,0.536312,-0.22813999999999998
1630070131765,-0.802638,0.537471,-0.228933
1630070131774,-0.801357,0.535031,-0.227286
1630070131784,-0.801601,0.533811,-0.224846
1630070131794,-0.803065,0.53436,-0.225029
1630070131803,-0.803492,0.534238,-0.224358
1630070131813,-0.80276,0.537959,-0.222345
1630070131822,-0.803675,0.541009,-0.22417499999999999
1630070131832,-0.80398,0.5404599999999999,-0.223016
1630070131842,-0.803797,0.539728,-0.223504
1630070131851,-0.803431,0.536678,-0.223809
1630070131861,-0.802516,0.535763,-0.224602
1630070131870,-0.8017839999999999,0.534909,-0.224907
1630070131880,-0.801418,0.534787,-0.224968
1630070131890,-0.801296,0.535946,-0.225212
1630070131899,-0.799771,0.535458,-0.225517
1630070131909,-0.7999539999999999,0.536434,-0.226676
1630070131918,-0.800198,0.535275,-0.226493
1630070131928,-0.800991,0.535946,-0.226798
1630070131938,-0.8005639999999999,0.536068,-0.227286
1630070131947,-0.800686,0.536007,-0.22783499999999998
1630070131957,-0.801235,0.5364949999999999,-0.227957
1630070131966,-0.801906,0.536373,-0.228018
1630070131976,-0.8030039999999999,0.5371049999999999,-0.229543
1630070131986,-0.8030039999999999,0.536068,-0.231068
1630070131995,-0.803675,0.536312,-0.23058
1630070132005,-0.803431,0.536312,-0.230885
1630070132014,-0.803797,0.536617,-0.232044
1630070132024,-0.8042239999999999,0.535946,-0.23186099999999998
1630070132034,-0.803553,0.535031,-0.231983
1630070132043,-0.802516,0.535397,-0.231983
1630070132053,-0.802455,0.534177,-0.232288
1630070132062,-0.802333,0.535824,-0.231434
1630070132072,-0.801845,0.53497,-0.23186099999999998
1630070132082,-0.802455,0.534909,-0.232044
1630070132091,-0.8017839999999999,0.534787,-0.23247099999999998
1630070132101,-0.80093,0.534177,-0.23277599999999998
1630070132110,-0.801418,0.534665,-0.233508
1630070132120,-0.801296,0.535153,-0.23241
1630070132130,-0.800747,0.534787,-0.232593
1630070132139,-0.800625,0.535214,-0.233447
1630070132149,-0.800015,0.533994,-0.23369099999999998
1630070132158,-0.7996489999999999,0.533628,-0.232105
1630070132168,-0.799893,0.534238,-0.231495
1630070132178,-0.800381,0.53497,-0.229909
1630070132187,-0.799771,0.534116,-0.229848
1630070132197,-0.799283,0.534543,-0.229299
