timestamp,ax,ay,az
1630675482796,-0.367708,0.345931,-0.861686
1630675482806,-0.370697,0.345138,-0.86193
1630675482815,-0.376431,0.342088,-0.859124
1630675482825,-0.379237,0.337879,-0.853756
1630675482834,-0.384056,0.33488999999999997,-0.845338
1630675482844,-0.387228,0.331901,-0.840702
1630675482854,-0.390156,0.33275499999999997,-0.842654
1630675482863,-0.391437,0.332023,-0.8480219999999999
1630675482873,-0.39314499999999997,0.330498,-0.854549
1630675482882,-0.394792,0.33000999999999997,-0.858209
1630675482892,-0.397598,0.329339,-0.856196
1630675482902,-0.40272199999999997,0.329034,-0.852109
1630675482911,-0.406199,0.330986,-0.848449
1630675482921,-0.404186,0.331657,-0.848998
1630675482930,-0.402905,0.335073,-0.851011
1630675482940,-0.402844,0.334951,-0.850584
1630675482950,-0.403576,0.333304,-0.848754
1630675482959,-0.40150199999999997,0.33092499999999997,-0.851194
1630675482969,-0.40546699999999997,0.32025,-0.852048
1630675482978,-0.39997699999999997,0.314882,-0.856928
1630675482988,-0.39436499999999997,0.31232,-0.861808
1630675482998,-0.388204,0.310002,-0.866383
1630675483007,-0.38356799999999996,0.310063,-0.86864
1630675483017,-0.377956,0.310978,-0.871812
1630675483026,-0.371002,0.31799299999999997,-0.868823
1630675483036,-0.368257,0.325496,-0.865895
1630675483046,-0.36844,0.329888,-0.86437
1630675483055,-0.367647,0.327265,-0.864736
1630675483065,-0.369538,0.32012799999999997,-0.864858
1630675483074,-0.373076,0.31354,-0.863028
1630675483084,-0.374418,0.31171,-0.858148
1630675483094,-0.376614,0.314455,-0.852414
1630675483103,-0.380274,0.31842,-0.8479
1630674781587,-0.367159,0.628483,-0.666181
1630674781597,-0.367342,0.628056,-0.6642899999999999
1630674781607,-0.365634,0.627568,-0.663497
1630674781616,-0.365512,0.627202,-0.663741
1630674781626,-0.366244,0.626592,-0.663741
1630674781635,-0.36636599999999997,0.626287,-0.665693
1630674781645,-0.366915,0.625738,-0.668072
1630674781655,-0.366427,0.626226,-0.669109
1630674781664,-0.365512,0.626409,-0.669597
1630674781674,-0.365695,0.625982,-0.670573
1630674781683,-0.365268,0.62464,-0.671427
1630674781693,-0.365085,0.624579,-0.670573
1630674781703,-0.365939,0.624213,-0.668499
1630674781712,-0.36697599999999997,0.624518,-0.6676449999999999
1630674781722,-0.364048,0.622688,-0.667462
1630674781731,-0.364658,0.62464,-0.667157
1630674781741,-0.365268,0.622932,-0.665754
1630674781751,-0.36636599999999997,0.6195769999999999,-0.664778
1630674781760,-0.368074,0.620736,-0.664717
1630674781770,-0.367098,0.625555,-0.668438
1630674781779,-0.366793,0.63074,-0.671
1630674781789,-0.36697599999999997,0.633729,-0.673257
1630674781799,-0.366122,0.63379,-0.673928
1630674781808,-0.366,0.631777,-0.673379
1630674781818,-0.366732,0.6283,-0.672098
1630674781827,-0.366488,0.626287,-0.67222
1630674781837,-0.368013,0.623664,-0.671244
1630674781847,-0.369294,0.622017,-0.670695
1630674781856,-0.368867,0.622505,-0.6691699999999999
1630674781866,-0.369782,0.622932,-0.669414
1630674781875,-0.36966,0.624823,-0.669536
1630674781885,-0.36966,0.624396,-0.6688649999999999
1630674781895,-0.36966,0.622993,-0.6682549999999999
1630674781904,-0.370087,0.622383,-0.668194
1630674781914,-0.369965,0.622627,-0.6667299999999999
1630674781923,-0.372283,0.62342,-0.667401
1630674781933,-0.373991,0.624762,-0.665693
1630674781943,-0.374357,0.623481,-0.665998
1630674781952,-0.374113,0.624152,-0.664046
1630674781962,-0.374967,0.623664,-0.663253
1630674781971,-0.374418,0.623054,-0.662033
1630674781981,-0.376004,0.621346,-0.661057
1630674781991,-0.378139,0.622078,-0.659898
1630674782000,-0.377651,0.623969,-0.6612399999999999
1630674782010,-0.3782,0.625921,-0.662216
1630674782019,-0.377895,0.626653,-0.663314
1630674782029,-0.377346,0.62708,-0.663497
1630674782039,-0.378322,0.626653,-0.663009
1630674782048,-0.378505,0.625921,-0.662582
1630674782058,-0.37777299999999997,0.625799,-0.663497
1630674782067,-0.379115,0.62525,-0.662216
1630674782077,-0.38003,0.625982,-0.6606299999999999
1630674782087,-0.380274,0.626226,-0.6606299999999999
1630674782096,-0.378566,0.626775,-0.663192
1630674782106,-0.378932,0.626592,-0.6642899999999999
1630674782115,-0.380152,0.627873,-0.664351
1630674782125,-0.380884,0.626653,-0.664717
1630674782135,-0.380152,0.626104,-0.6661199999999999
1630674782144,-0.380457,0.625128,-0.666486
1630674782154,-0.380091,0.625128,-0.6679499999999999
1630674782163,-0.380457,0.624518,-0.6676449999999999
1630674782173,-0.380701,0.625616,-0.667462
1630674782183,-0.381189,0.626226,-0.666913
1630674782192,-0.379481,0.627873,-0.6667299999999999
1630674782202,-0.37942,0.628849,-0.6642899999999999
1630674782211,-0.38186,0.629276,-0.662094
1630674782221,-0.38247,0.630862,-0.660996
1630674782231,-0.381616,0.630008,-0.660508
1630674782240,-0.38112799999999997,0.630252,-0.6597149999999999
1630674782250,-0.381555,0.631045,-0.657641
1630674782259,-0.381067,0.63074,-0.657702
1630674782269,-0.38112799999999997,0.630557,-0.657214
1630674782279,-0.380762,0.630679,-0.6578849999999999
1630674782288,-0.38186,0.631228,-0.655994
1630674782298,-0.38112799999999997,0.631655,-0.653981
1630674782307,-0.38082299999999997,0.631106,-0.652578
1630674782317,-0.381677,0.631472,-0.65331
1630674782327,-0.382165,0.631472,-0.653493
1630674782336,-0.381006,0.630679,-0.652883
1630674782346,-0.380884,0.630435,-0.653188
1630674782355,-0.381006,0.630984,-0.653737
1630674782365,-0.38064,0.632875,-0.653432
1630674782375,-0.38082299999999997,0.634034,-0.653554
1630674782384,-0.381006,0.6341559999999999,-0.653737
1630674782394,-0.379847,0.635132,-0.653371
1630674782403,-0.379542,0.63501,-0.653127
1630674782413,-0.37942,0.6356809999999999,-0.653798
1630674782423,-0.380274,0.6344,-0.654164
1630674782432,-0.380091,0.6341559999999999,-0.655384
1630674782442,-0.37960299999999997,0.634827,-0.655079
1630674782451,-0.380091,0.635132,-0.65453
1630674782461,-0.378627,0.634217,-0.652456
1630674782471,-0.378871,0.63379,-0.651968
1630674782480,-0.378261,0.633485,-0.653066
1630674782490,-0.377041,0.6344,-0.655018
1630674782499,-0.377041,0.634888,-0.654469
1630674782509,-0.377224,0.632265,-0.65392
1630674782519,-0.37698,0.629947,-0.653554
1630674782528,-0.37746799999999997,0.630557,-0.654774
1630674782538,-0.37807799999999997,0.632692,-0.656604
1630674782547,-0.376736,0.63562,-0.6563599999999999
1630674782557,-0.377102,0.63867,-0.6581899999999999
1630674782567,-0.375516,0.639402,-0.6591049999999999
1630674782576,-0.374479,0.637694,-0.659227
1630674782586,-0.374662,0.636108,-0.6575799999999999
1630674782595,-0.374174,0.635437,-0.657153
1630674782605,-0.373259,0.6335459999999999,-0.655933
1630674782615,-0.37454,0.633607,-0.653737
1630674782624,-0.374418,0.634522,-0.651907
1630674782634,-0.373747,0.635803,-0.652578
1630674782643,-0.372832,0.635498,-0.652517
1630674782653,-0.372222,0.633973,-0.653798
1630674782663,-0.371734,0.631838,-0.654652
1630674782672,-0.372588,0.630984,-0.655567
1630674782682,-0.372039,0.630862,-0.657031
1630674782691,-0.372222,0.631899,-0.658129
1630674782701,-0.373076,0.6329359999999999,-0.657763
1630674782711,-0.373198,0.633302,-0.6584949999999999
1630674782720,-0.373137,0.634278,-0.658678
1630674782730,-0.374052,0.635925,-0.6584949999999999
1630674782739,-0.37332,0.635254,-0.6572749999999999
1630674782749,-0.373442,0.633363,-0.656482
1630674782759,-0.37393,0.632997,-0.654652
1630674782768,-0.374296,0.63501,-0.653981
1630674782778,-0.373808,0.634522,-0.653432
1630674782787,-0.372283,0.636779,-0.653249
1630674782797,-0.372649,0.638182,-0.655811
1630674782807,-0.372832,0.637267,-0.655628
1630674782816,-0.372954,0.634827,-0.6563599999999999
1630674782826,-0.373747,0.633424,-0.657214
1630674782835,-0.373686,0.632509,-0.658068
1630674782845,-0.372771,0.631167,-0.658922
1630674782855,-0.374174,0.63196,-0.658129
1630674782864,-0.37393,0.631838,-0.659776
1630674782874,-0.373564,0.632448,-0.659654
1630674782883,-0.373137,0.6332409999999999,-0.659959
1630674782893,-0.373503,0.63318,-0.660203
1630674782903,-0.37454,0.633668,-0.659654
1630674782912,-0.374601,0.633607,-0.659776
1630674782922,-0.374662,0.634278,-0.661118
1630674782931,-0.374967,0.6338509999999999,-0.660874
1630674782941,-0.37533299999999997,0.634217,-0.659593
1630674782951,-0.37563799999999997,0.634705,-0.6603249999999999
1630674782960,-0.375211,0.634583,-0.6591049999999999
1630674782970,-0.373991,0.6344609999999999,-0.660691
1630674782979,-0.373442,0.633302,-0.660691
1630674782989,-0.3721,0.633058,-0.659837
1630674782999,-0.371856,0.632448,-0.659837
1630674783008,-0.370514,0.631289,-0.660203
1630674783018,-0.371185,0.630862,-0.659227
1630674783027,-0.370758,0.63074,-0.659532
1630674783037,-0.37149,0.630252,-0.658251
1630674783047,-0.371734,0.630618,-0.6591049999999999
1630674783056,-0.371856,0.629825,-0.658922
1630674783066,-0.370758,0.629398,-0.660813
1630674783075,-0.370209,0.62952,-0.661423
1630674783085,-0.370697,0.628544,-0.661911
1630674783095,-0.37155099999999996,0.629154,-0.663436
1630674783104,-0.371795,0.627568,-0.6630699999999999
1630674783114,-0.372466,0.628117,-0.663009
1630674783123,-0.372039,0.628666,-0.663802
1630674783133,-0.372649,0.629154,-0.664107
1630674783143,-0.372771,0.629947,-0.663253
1630674783152,-0.37332,0.62952,-0.662582
1630674783162,-0.373503,0.629947,-0.663497
1630674783171,-0.374174,0.629825,-0.663741
1630674783181,-0.373503,0.629886,-0.663619
1630674783191,-0.372527,0.629703,-0.663802
1630674783200,-0.372466,0.630679,-0.663497
1630674783210,-0.372954,0.63013,-0.6642899999999999
1630674783219,-0.372161,0.630557,-0.664168
1630674783229,-0.372344,0.629642,-0.6621549999999999
1630674783239,-0.371429,0.628544,-0.659898
1630674783248,-0.372832,0.630313,-0.660874
1630674783258,-0.371795,0.629642,-0.663863
1630674783267,-0.371063,0.629032,-0.665022
1630674783277,-0.371734,0.626836,-0.665693
1630674783287,-0.37149,0.625433,-0.664717
1630674783296,-0.371978,0.624762,-0.665144
1630674783306,-0.37332,0.626653,-0.6658149999999999
1630674783315,-0.373503,0.630069,-0.666608
1630674783325,-0.37271,0.633607,-0.667523
1630674783335,-0.371978,0.6344,-0.669414
1630674783344,-0.371795,0.6338509999999999,-0.668011
1630674783354,-0.371429,0.63135,-0.668804
1630674783363,-0.37033099999999997,0.630252,-0.669841
1630674783373,-0.37027,0.628361,-0.669231
1630674783383,-0.369904,0.627263,-0.6664249999999999
1630674783392,-0.369233,0.626958,-0.664961
1630674783402,-0.369294,0.626836,-0.664107
1630674783411,-0.366854,0.627446,-0.6645949999999999
1630674783421,-0.367159,0.62708,-0.663924
1630674783431,-0.367098,0.625982,-0.663863
1630674783440,-0.36844,0.62586,-0.663497
1630674783450,-0.367342,0.625433,-0.664168
1630674783459,-0.36850099999999997,0.627019,-0.664839
1630674783469,-0.367647,0.629276,-0.6658149999999999
1630674783479,-0.36661,0.6317159999999999,-0.668194
1630674783488,-0.365085,0.634522,-0.669841
1630674783498,-0.364048,0.637633,-0.671366
1630674783507,-0.361974,0.637389,-0.669719
1630674783517,-0.359168,0.636169,-0.664229
1630674783527,-0.359656,0.635193,-0.654591
1630674783536,-0.364048,0.6369009999999999,-0.645075
1630674783546,-0.366183,0.634034,-0.636535
1630674783555,-0.36941599999999997,0.632265,-0.631289
1630674783565,-0.372832,0.631899,-0.631777
1630674783575,-0.374296,0.630984,-0.635803
1630674783584,-0.374235,0.631228,-0.641659
1630674783594,-0.37454,0.631167,-0.648491
1630674783603,-0.372588,0.635437,-0.652334
1630674783613,-0.372466,0.636108,-0.651663
1630674783623,-0.375821,0.63501,-0.64599
1630674783632,-0.381067,0.6384259999999999,-0.640622
1630674783642,-0.386313,0.639463,-0.635315
1630674783651,-0.390644,0.6396459999999999,-0.631472
1630674783661,-0.395097,0.64233,-0.630801
1630674783671,-0.397842,0.645258,-0.6341559999999999
1630674783680,-0.398208,0.6436109999999999,-0.636352
1630674783690,-0.399794,0.638853,-0.63562
1630674783699,-0.39967199999999997,0.632387,-0.635132
1630674783709,-0.39997699999999997,0.629642,-0.634827
1630674783719,-0.403088,0.626043,-0.632997
1630674783728,-0.4087,0.62525,-0.634949
1630674783738,-0.41351899999999997,0.625982,-0.641354
1630674783747,-0.416386,0.625677,-0.649223
1630674783757,-0.41748399999999997,0.624579,-0.657946
1630674783767,-0.41717899999999997,0.623176,-0.667218
1630674783776,-0.41534899999999997,0.626714,-0.678442
1630674783786,-0.410164,0.627507,-0.688995
1630674783795,-0.407114,0.617808,-0.689788
1630674783805,-0.409249,0.6079869999999999,-0.680943
1630674783815,-0.410408,0.604876,-0.676307
1630674783824,-0.410652,0.607377,-0.677832
1630674783834,-0.40687,0.61183,-0.681797
1630674783843,-0.404369,0.611769,-0.6831389999999999
1630674783853,-0.40241699999999997,0.609878,-0.682956
1630674783863,-0.398086,0.611708,-0.68381
1630674783872,-0.393633,0.614026,-0.686555
1630674783882,-0.391376,0.61488,-0.688263
1630674783891,-0.387899,0.614819,-0.688873
1630674783901,-0.385093,0.6122569999999999,-0.6892389999999999
1630674783911,-0.384056,0.6098169999999999,-0.689666
1630674783920,-0.380762,0.607377,-0.690215
1630674783930,-0.377224,0.604998,-0.690886
1630674783939,-0.37393,0.604998,-0.69113
1630674783949,-0.369782,0.60451,-0.690276
1630674783959,-0.36758599999999997,0.604693,-0.6858839999999999
1630674783968,-0.36697599999999997,0.604998,-0.6800889999999999
1630674783978,-0.36722,0.605791,-0.675758
1630674783987,-0.36728099999999997,0.609695,-0.674172
1630674783997,-0.367525,0.613355,-0.671366
1630674784007,-0.367525,0.619516,-0.666608
1630674784016,-0.36728099999999997,0.625372,-0.6627649999999999
1630674784026,-0.366793,0.626836,-0.659044
1630674784035,-0.370087,0.626165,-0.651785
1630674784045,-0.374601,0.624335,-0.643123
1630674784055,-0.377651,0.622139,-0.634583
1630674784064,-0.38204299999999997,0.627568,-0.6320209999999999
1630674784074,-0.3843,0.636413,-0.6323259999999999
1630674784083,-0.385703,0.646722,-0.631106
1630674784093,-0.385642,0.653737,-0.630069
1630674784103,-0.386984,0.659593,-0.630252
1630674784112,-0.391132,0.658312,-0.630008
1630674784122,-0.393938,0.654225,-0.629947
1630674784131,-0.395402,0.649406,-0.631472
1630674784141,-0.396256,0.643977,-0.632814
1630674784151,-0.399306,0.642574,-0.6341559999999999
1630674784160,-0.398452,0.643977,-0.6359859999999999
1630674784170,-0.395646,0.646905,-0.635803
1630674784179,-0.394731,0.652883,-0.635193
1630674784189,-0.3965,0.654652,-0.6332409999999999
1630674784199,-0.398208,0.653798,-0.630862
1630674784208,-0.397903,0.651053,-0.629093
1630674784218,-0.398391,0.64538,-0.630069
1630674784227,-0.398452,0.640683,-0.633119
1630674784237,-0.39894,0.6387309999999999,-0.636962
1630674784247,-0.39833,0.6344609999999999,-0.641232
1630674784256,-0.396195,0.632753,-0.646539
1630674784266,-0.395768,0.631106,-0.650626
1630674784275,-0.394914,0.628422,-0.65209
1630674784285,-0.39375499999999997,0.621895,-0.651846
1630674784295,-0.394182,0.620248,-0.650504
1630674784304,-0.393816,0.6207969999999999,-0.649345
1630674784314,-0.391376,0.622322,-0.64965
1630674784323,-0.389546,0.623786,-0.651724
1630674784333,-0.388814,0.624274,-0.650443
1630674784343,-0.388936,0.621224,-0.648552
1630674784352,-0.390034,0.619516,-0.647454
1630674784362,-0.389119,0.6180519999999999,-0.650504
1630674784371,-0.38887499999999997,0.615978,-0.65209
1630674784381,-0.388448,0.6131719999999999,-0.650565
1630674784391,-0.389302,0.612989,-0.651724
1630674784400,-0.388448,0.613294,-0.655506
1630674784410,-0.386984,0.612135,-0.659837
1630674784419,-0.386862,0.611586,-0.665937
1630674784429,-0.387045,0.607804,-0.669719
1630674784439,-0.385459,0.602863,-0.671976
1630674784448,-0.385886,0.598105,-0.673562
1630674784458,-0.387899,0.593896,-0.673257
1630674784467,-0.391437,0.5921879999999999,-0.673989
1630674784477,-0.392596,0.591212,-0.676917
1630674784487,-0.392474,0.593286,-0.680577
1630674784496,-0.391376,0.593469,-0.687348
1630674784506,-0.38948499999999997,0.594689,-0.692533
1630674784515,-0.386801,0.5934079999999999,-0.696559
1630674784525,-0.386191,0.591395,-0.698511
1630674784535,-0.385703,0.588711,-0.700585
1630674784544,-0.387228,0.585905,-0.701683
1630674784554,-0.387472,0.584624,-0.702659
1630674784563,-0.387167,0.583343,-0.70455
1630674784573,-0.38613,0.582672,-0.706685
1630674784583,-0.384666,0.581391,-0.707966
1630674784592,-0.383934,0.581452,-0.705709
1630674784602,-0.384056,0.581147,-0.703574
1630674784611,-0.383446,0.581879,-0.701988
1630674784621,-0.384422,0.581818,-0.700463
1630674784631,-0.385276,0.582123,-0.698816
1630674784640,-0.385703,0.583892,-0.698694
1630674784650,-0.385581,0.584624,-0.699792
1630674784659,-0.384666,0.586332,-0.698206
1630674784669,-0.384544,0.587064,-0.69784
1630674784679,-0.384422,0.586942,-0.696315
1630674784688,-0.386496,0.5882229999999999,-0.694546
1630674784698,-0.386191,0.5882229999999999,-0.693021
1630674784707,-0.387472,0.5900529999999999,-0.692716
1630674784717,-0.387899,0.590602,-0.691618
1630674784727,-0.389729,0.5918829999999999,-0.6898489999999999
1630674784736,-0.38978999999999997,0.592554,-0.6904589999999999
1630674784746,-0.390644,0.59353,-0.688995
1630674784755,-0.391071,0.59475,-0.6892389999999999
1630674784765,-0.39070499999999997,0.5964579999999999,-0.6904589999999999
1630674784775,-0.392352,0.597739,-0.691862
1630674784784,-0.393389,0.597739,-0.6892389999999999
1630674784794,-0.393206,0.594384,-0.686128
1630674784803,-0.395829,0.5955429999999999,-0.6837489999999999
1630674784813,-0.396622,0.599996,-0.683017
1630674784823,-0.396866,0.604144,-0.682163
1630674784832,-0.3965,0.607072,-0.682041
1630674784842,-0.397598,0.609878,-0.681431
1630674784851,-0.3965,0.61061,-0.681248
1630674784861,-0.39527999999999996,0.6110369999999999,-0.679418
1630674784871,-0.394182,0.611586,-0.678076
1630674784880,-0.392779,0.61122,-0.678442
1630674784890,-0.392352,0.610915,-0.677283
1630674784899,-0.392352,0.612013,-0.674172
1630674784909,-0.391498,0.611464,-0.670573
1630674784919,-0.389729,0.6104269999999999,-0.668926
1630674784928,-0.390522,0.611159,-0.665937
1630674784938,-0.391071,0.6119519999999999,-0.665632
1630674784947,-0.390278,0.6122569999999999,-0.665571
1630674784957,-0.39039999999999997,0.6128669999999999,-0.665754
1630674784967,-0.390766,0.61366,-0.665571
1630674784976,-0.39039999999999997,0.6137819999999999,-0.665754
1630674784986,-0.390156,0.615063,-0.665022
1630674784995,-0.392169,0.615551,-0.663802
1630674785005,-0.392169,0.615978,-0.6624599999999999
1630674785015,-0.393938,0.616588,-0.6618499999999999
1630674785024,-0.394121,0.6186619999999999,-0.662033
1630674785034,-0.392718,0.616954,-0.660264
1630674785043,-0.393328,0.618418,-0.659593
1630674785053,-0.393999,0.620309,-0.660813
1630674785063,-0.39283999999999997,0.620614,-0.660508
1630674785072,-0.392291,0.621224,-0.660142
1630674785082,-0.392169,0.6211019999999999,-0.6597149999999999
1630674785091,-0.393084,0.619699,-0.658556
1630674785101,-0.392596,0.620126,-0.657824
1630674785111,-0.39039999999999997,0.618906,-0.658312
1630674785120,-0.392291,0.619089,-0.657031
1630674785130,-0.391498,0.619516,-0.656726
1630674785139,-0.39283999999999997,0.619089,-0.656299
1630674785149,-0.392962,0.6198819999999999,-0.657336
1630674785159,-0.39161999999999997,0.6198819999999999,-0.658983
1630674785168,-0.391864,0.619455,-0.659349
1630674785178,-0.392108,0.618235,-0.658922
1630674785187,-0.39161999999999997,0.618174,-0.6603249999999999
1630674785197,-0.393023,0.618784,-0.660752
1630674785207,-0.39344999999999997,0.6189669999999999,-0.661728
1630674785216,-0.393816,0.6192719999999999,-0.661972
1630674785226,-0.394304,0.620065,-0.661972
1630674785235,-0.393877,0.620614,-0.663192
1630674785245,-0.393328,0.619638,-0.663131
1630674785255,-0.393633,0.619455,-0.662338
1630674785264,-0.39222999999999997,0.618845,-0.662521
1630674785274,-0.39222999999999997,0.617625,-0.663009
1630674785283,-0.390339,0.615734,-0.6630699999999999
1630674785293,-0.39009499999999997,0.613904,-0.661972
1630674785303,-0.390034,0.61366,-0.662094
1630674785312,-0.388509,0.612013,-0.661972
1630674785322,-0.388814,0.612623,-0.662399
1630674785331,-0.389607,0.610244,-0.662216
1630674785341,-0.390644,0.609451,-0.663192
1630674785351,-0.390888,0.6085969999999999,-0.664351
1630674785360,-0.39161999999999997,0.609451,-0.664778
1630674785370,-0.391986,0.61,-0.665144
1630674785379,-0.393023,0.609634,-0.666791
1630674785389,-0.39375499999999997,0.609634,-0.668621
1630674785399,-0.394426,0.60939,-0.668377
1630674785408,-0.394487,0.6107319999999999,-0.668621
1630674785418,-0.396988,0.611708,-0.6694749999999999
1630674785427,-0.396927,0.6110369999999999,-0.6697799999999999
1630674785437,-0.397354,0.610793,-0.668926
1630674785447,-0.397903,0.610793,-0.6691699999999999
1630674785456,-0.3965,0.6122569999999999,-0.6691699999999999
1630674785466,-0.396195,0.612745,-0.67039
1630674785475,-0.3965,0.6137819999999999,-0.6694749999999999
1630674785485,-0.396866,0.6150019999999999,-0.668194
1630674785495,-0.396073,0.614758,-0.668438
1630674785504,-0.39558499999999996,0.61305,-0.667218
1630674785514,-0.395768,0.612989,-0.665144
1630674785523,-0.395219,0.613965,-0.665388
1630674785533,-0.39375499999999997,0.612989,-0.667828
1630674785543,-0.394426,0.612806,-0.669231
1630674785552,-0.393511,0.611403,-0.668987
1630674785562,-0.392047,0.611098,-0.668804
1630674785571,-0.392657,0.610854,-0.668926
1630674785581,-0.393084,0.61305,-0.6688649999999999
1630674785591,-0.393084,0.6156119999999999,-0.668743
1630674785600,-0.392657,0.617686,-0.669353
1630674785610,-0.391803,0.619516,-0.670207
1630674785619,-0.391803,0.619028,-0.669841
1630674785629,-0.390888,0.6168319999999999,-0.668194
1630674785639,-0.39039999999999997,0.614636,-0.668499
1630674785648,-0.388692,0.613843,-0.667828
1630674785658,-0.38856999999999997,0.612379,-0.6655099999999999
1630674785667,-0.38795999999999997,0.61183,-0.664534
1630674785677,-0.387472,0.614514,-0.664656
1630674785687,-0.385764,0.615368,-0.665449
1630674785696,-0.386557,0.616466,-0.665571
1630674785706,-0.386191,0.615734,-0.664107
1630674785715,-0.387472,0.615429,-0.6645949999999999
1630674785725,-0.387167,0.6146969999999999,-0.665327
1630674785735,-0.38765499999999997,0.615368,-0.6658149999999999
1630674785744,-0.387167,0.6165269999999999,-0.665693
1630674785754,-0.387228,0.617015,-0.665266
1630674785763,-0.386679,0.6186619999999999,-0.664717
1630674785773,-0.387594,0.618784,-0.663741
1630674785783,-0.386801,0.619638,-0.663131
1630674785792,-0.38734999999999997,0.620309,-0.663802
1630674785802,-0.386435,0.619699,-0.662521
1630674785811,-0.386862,0.620858,-0.660752
1630674785821,-0.388143,0.621956,-0.660081
1630674785831,-0.386984,0.622383,-0.6594099999999999
1630674785840,-0.386008,0.623298,-0.659898
1630674785850,-0.387167,0.621712,-0.660752
1630674785859,-0.387716,0.619089,-0.659532
1630674785869,-0.38826499999999997,0.617625,-0.659532
1630674785879,-0.388448,0.617686,-0.6627649999999999
1630674785888,-0.387777,0.618845,-0.664351
1630674785898,-0.389302,0.619699,-0.666364
1630674785907,-0.391193,0.622932,-0.668987
1630674785917,-0.389973,0.622932,-0.671305
1630674785927,-0.389241,0.62403,-0.674172
1630674785936,-0.388692,0.62525,-0.675575
1630674785946,-0.386801,0.625616,-0.675331
1630674785955,-0.387411,0.625372,-0.674416
1630674785965,-0.387533,0.623908,-0.673318
1630674785975,-0.385764,0.623664,-0.671915
1630674785984,-0.384727,0.624518,-0.669902
1630674785994,-0.382592,0.625006,-0.668133
1630674786003,-0.379786,0.625799,-0.666181
1630674786013,-0.37716299999999997,0.62586,-0.663558
1630674786023,-0.37698,0.630862,-0.659654
1630674786032,-0.376675,0.634949,-0.654164
1630674786042,-0.37759,0.6396459999999999,-0.646051
1630674786051,-0.379786,0.64355,-0.637694
1630674786061,-0.380579,0.641232,-0.634095
1630674786071,-0.379786,0.636779,-0.63013
1630674786080,-0.382226,0.631594,-0.625982
1630674786090,-0.383995,0.624884,-0.623481
1630674786099,-0.384788,0.6192719999999999,-0.623298
1630674786109,-0.385215,0.6146969999999999,-0.622017
1630674786119,-0.387533,0.610976,-0.619333
1630674786128,-0.39344999999999997,0.6134769999999999,-0.6171369999999999
1630674786138,-0.398208,0.615124,-0.617686
1630674786147,-0.402539,0.612684,-0.616588
1630674786157,-0.407968,0.614026,-0.613233
1630674786167,-0.416935,0.605486,-0.6211019999999999
1630674786176,-0.420412,0.60207,-0.629825
1630674786186,-0.422486,0.5931029999999999,-0.6372059999999999
1630674786195,-0.421876,0.591944,-0.651236
1630674786205,-0.420168,0.58804,-0.666364
1630674786215,-0.417423,0.585051,-0.678503
1630674786224,-0.41107899999999997,0.595665,-0.6874089999999999
1630674786234,-0.407785,0.601399,-0.689361
1630674786243,-0.415593,0.6095119999999999,-0.685213
1630674786253,-0.420839,0.60573,-0.688507
1630674786263,-0.421083,0.594384,-0.694302
1630674786272,-0.417728,0.579866,-0.70211
1630674786282,-0.415776,0.5654089999999999,-0.710589
1630674786291,-0.41107899999999997,0.560407,-0.7135779999999999
1630674786301,-0.405528,0.56364,-0.717665
1630674786311,-0.405528,0.570655,-0.72224
1630674786320,-0.401624,0.584441,-0.726388
1630674786330,-0.395524,0.596702,-0.7324269999999999
1630674786339,-0.392718,0.60756,-0.736941
1630674786349,-0.384849,0.612379,-0.742248
1630674786359,-0.375577,0.607926,-0.744566
1630674786368,-0.372283,0.598898,-0.738405
1630674786378,-0.371978,0.5900529999999999,-0.728584
1630674786387,-0.374113,0.580842,-0.7198
1630674786397,-0.378749,0.571265,-0.716384
1630674786407,-0.380274,0.566873,-0.714371
1630674786416,-0.382226,0.5705939999999999,-0.7111379999999999
1630674786426,-0.381616,0.58072,-0.710345
1630674786435,-0.380884,0.591029,-0.710711
1630674786445,-0.3843,0.599874,-0.707112
1630674786455,-0.385764,0.603778,-0.701073
1630674786464,-0.38765499999999997,0.604876,-0.691801
1630674786474,-0.389424,0.60634,-0.679906
1630674786483,-0.39222999999999997,0.60939,-0.667462
1630674786493,-0.397964,0.615063,-0.6527
1630674786503,-0.40199,0.616283,-0.641598
1630674786512,-0.40687,0.618784,-0.632875
1630674786522,-0.40992,0.6214069999999999,-0.627995
1630674786531,-0.411872,0.622139,-0.62586
1630674786541,-0.41114,0.621895,-0.627873
1630674786551,-0.409249,0.625494,-0.631411
1630674786560,-0.406016,0.625799,-0.6344
1630674786570,-0.406443,0.625738,-0.633485
1630674786579,-0.408883,0.621041,-0.628727
1630674786589,-0.410225,0.614941,-0.627202
1630674786599,-0.410896,0.613843,-0.626836
1630674786608,-0.413092,0.615856,-0.629215
1630674786618,-0.415776,0.616771,-0.632143
1630674786627,-0.41717899999999997,0.6161,-0.63562
1630674786637,-0.420412,0.615185,-0.639707
1630674786647,-0.422913,0.614636,-0.643428
1630674786656,-0.423523,0.6168319999999999,-0.645197
1630674786666,-0.42395,0.620614,-0.646478
1630674786675,-0.425048,0.623237,-0.647332
1630674786685,-0.426268,0.62342,-0.648186
1630674786695,-0.426634,0.623237,-0.64599
1630674786704,-0.428342,0.625189,-0.645014
1630674786714,-0.428342,0.629398,-0.643977
1630674786723,-0.42822,0.6323259999999999,-0.64233
1630674786733,-0.426817,0.6338509999999999,-0.639768
1630674786743,-0.42584099999999997,0.637328,-0.635498
1630674786752,-0.424133,0.641659,-0.631289
1630674786762,-0.4209,0.646295,-0.626226
1630674786771,-0.419375,0.651297,-0.622749
1630674786781,-0.417057,0.6569699999999999,-0.61976
1630674786791,-0.414556,0.661728,-0.616588
1630674786800,-0.410591,0.662277,-0.613599
1630674786810,-0.406138,0.660691,-0.610366
1630674786819,-0.402661,0.662582,-0.607621
1630674786829,-0.399916,0.6670349999999999,-0.605364
1630674786839,-0.396622,0.670634,-0.608109
1630674786848,-0.392108,0.671976,-0.609268
1630674786858,-0.389058,0.673196,-0.61122
1630674786867,-0.384605,0.672037,-0.61183
1630674786877,-0.380335,0.672037,-0.614575
1630674786887,-0.37563799999999997,0.672586,-0.616954
1630674786896,-0.373137,0.671061,-0.618235
1630674786906,-0.369904,0.671488,-0.6198819999999999
1630674786915,-0.366793,0.67222,-0.621834
1630674786925,-0.36356,0.672342,-0.623176
1630674786935,-0.360266,0.672708,-0.624396
1630674786944,-0.358375,0.670207,-0.624335
1630674786954,-0.355813,0.6685599999999999,-0.627202
1630674786963,-0.35251899999999997,0.665632,-0.628422
1630674786973,-0.352336,0.662887,-0.630374
1630674786983,-0.352153,0.661423,-0.6317159999999999
1630674786992,-0.351482,0.6578849999999999,-0.632448
1630674787002,-0.351726,0.654835,-0.634339
1630674787011,-0.351482,0.653371,-0.634949
1630674787021,-0.352702,0.652639,-0.634034
1630674787031,-0.352763,0.654286,-0.634339
1630674787040,-0.352946,0.6560549999999999,-0.6323259999999999
1630674787050,-0.352946,0.657946,-0.631838
1630674787059,-0.35563,0.657397,-0.630679
1630674787069,-0.356972,0.657092,-0.629276
1630674787079,-0.359046,0.655872,-0.62952
1630674787088,-0.361486,0.653554,-0.627751
1630674787098,-0.363804,0.651968,-0.629032
1630674787107,-0.366854,0.652456,-0.630435
1630674787117,-0.368623,0.652944,-0.63196
1630674787127,-0.36966,0.653188,-0.633485
1630674787136,-0.372649,0.65331,-0.634278
1630674787146,-0.375089,0.651724,-0.635132
1630674787155,-0.37576,0.651358,-0.635254
1630674787165,-0.377224,0.651541,-0.633607
1630674787175,-0.377834,0.652822,-0.631899
1630674787184,-0.37929799999999997,0.653798,-0.631167
1630674787194,-0.378749,0.65453,-0.631899
1630674787203,-0.380579,0.653249,-0.6332409999999999
1630674787213,-0.380884,0.653249,-0.6335459999999999
1630674787223,-0.381189,0.649406,-0.6341559999999999
1630674787232,-0.382897,0.6433059999999999,-0.6338509999999999
1630674787242,-0.38613,0.641232,-0.634217
1630674787251,-0.389119,0.642818,-0.635254
1630674787261,-0.391498,0.647454,-0.6405609999999999
1630674787271,-0.393328,0.647149,-0.645685
1630674787280,-0.395951,0.645624,-0.64782
1630674787290,-0.397842,0.646234,-0.648186
1630674787299,-0.399306,0.6454409999999999,-0.648796
1630674787309,-0.400465,0.641598,-0.650016
1630674787319,-0.401441,0.639402,-0.64782
1630674787328,-0.404003,0.640073,-0.646356
1630674787338,-0.40321,0.64111,-0.647454
1630674787347,-0.402539,0.643062,-0.645807
1630674787357,-0.401441,0.643794,-0.643977
1630674787367,-0.402173,0.644404,-0.6408659999999999
1630674787376,-0.40241699999999997,0.644587,-0.638182
1630674787386,-0.401136,0.645014,-0.636352
1630674787395,-0.399733,0.644892,-0.63501
1630674787405,-0.400099,0.645929,-0.6344609999999999
1630674787415,-0.397598,0.645502,-0.635498
1630674787424,-0.39527999999999996,0.64599,-0.635315
1630674787434,-0.395097,0.644099,-0.636657
1630674787443,-0.394609,0.642513,-0.6369009999999999
1630674787453,-0.39283999999999997,0.64111,-0.637755
1630674787463,-0.390217,0.637877,-0.637328
1630674787472,-0.38856999999999997,0.638548,-0.637938
1630674787482,-0.387045,0.640073,-0.6396459999999999
1630674787491,-0.385032,0.642818,-0.640744
1630674787501,-0.38295799999999997,0.645868,-0.643123
1630674787511,-0.38125,0.646844,-0.6445259999999999
1630674787520,-0.380396,0.6457459999999999,-0.645197
1630674787530,-0.37868799999999997,0.641659,-0.64416
1630674787539,-0.37759,0.63806,-0.644465
1630674787549,-0.37594299999999997,0.635315,-0.646478
1630674787559,-0.374174,0.6344609999999999,-0.648491
1630674787568,-0.374174,0.634888,-0.650016
1630674787578,-0.372893,0.637145,-0.648613
1630674787587,-0.372466,0.63684,-0.648613
1630674787597,-0.371734,0.637084,-0.650016
1630674787607,-0.372344,0.638182,-0.651236
1630674787616,-0.372283,0.640317,-0.653737
1630674787626,-0.3721,0.6423909999999999,-0.654103
1630674787635,-0.372771,0.643367,-0.652944
1630674787645,-0.373991,0.646295,-0.6527
1630674787655,-0.373503,0.647088,-0.653859
1630674787664,-0.372466,0.645563,-0.652212
1630674787674,-0.372588,0.646234,-0.652944
1630674787683,-0.372588,0.647271,-0.651602
1630674787693,-0.370819,0.647637,-0.65148
1630674787703,-0.371002,0.647515,-0.650443
1630674787712,-0.372222,0.646295,-0.648979
1630674787722,-0.37149,0.645075,-0.64721
1630674787731,-0.37149,0.644343,-0.647576
1630674787741,-0.37124599999999996,0.6436109999999999,-0.647332
1630674787751,-0.370575,0.643977,-0.647454
1630674787760,-0.370209,0.643245,-0.645502
1630674787770,-0.370148,0.644038,-0.645868
1630674787779,-0.37027,0.643977,-0.645807
1630674787789,-0.372283,0.643672,-0.645807
1630674787799,-0.372344,0.643672,-0.645258
1630674787808,-0.373137,0.642818,-0.645502
1630674787818,-0.373564,0.643184,-0.647454
1630674787827,-0.376065,0.64355,-0.647637
1630674787837,-0.374784,0.6433059999999999,-0.647332
1630674787847,-0.37576,0.644038,-0.647454
1630674787856,-0.37716299999999997,0.644648,-0.647271
1630674787866,-0.379054,0.643367,-0.645868
1630674787875,-0.379359,0.6430009999999999,-0.646844
1630674787885,-0.38143299999999997,0.641842,-0.646661
1630674787895,-0.382287,0.640073,-0.646295
1630674787904,-0.381921,0.6405,-0.645685
1630674787914,-0.383141,0.641354,-0.644404
1630674787923,-0.383751,0.640988,-0.645807
1630674787933,-0.383934,0.640012,-0.646295
1630674787943,-0.3843,0.639829,-0.645624
1630674787952,-0.384666,0.640195,-0.646051
1630674787962,-0.385276,0.641354,-0.646844
1630674787971,-0.384483,0.641415,-0.646844
1630674787981,-0.385459,0.6405,-0.646478
1630674787991,-0.38552,0.63989,-0.646356
1630674788000,-0.384239,0.639585,-0.644892
1630674788010,-0.38613,0.6405,-0.64233
1630674788019,-0.386862,0.640988,-0.641964
1630674788029,-0.385886,0.637145,-0.643428
1630674788039,-0.385886,0.636718,-0.644099
1630674788048,-0.386374,0.637328,-0.643428
1630674788058,-0.386557,0.633424,-0.6417809999999999
1630674788067,-0.389607,0.6356809999999999,-0.642513
1630674788077,-0.389912,0.639097,-0.646966
1630674788087,-0.390156,0.642757,-0.649101
1630674788096,-0.389302,0.6451359999999999,-0.652578
1630674788106,-0.389058,0.6451359999999999,-0.654652
1630674788115,-0.388082,0.640683,-0.653554
1630674788125,-0.38795999999999997,0.637328,-0.649772
1630674788135,-0.388387,0.634095,-0.649894
1630674788144,-0.387472,0.633119,-0.647942
1630674788154,-0.387228,0.6344,-0.647149
1630674788163,-0.386862,0.634644,-0.645563
1630674788173,-0.385215,0.636474,-0.643184
1630674788183,-0.385215,0.635864,-0.644587
1630674788192,-0.384361,0.6356809999999999,-0.646234
1630674788202,-0.385032,0.635254,-0.647454
1630674788211,-0.385032,0.63257,-0.648918
1630674788221,-0.384178,0.6335459999999999,-0.651175
1630674788231,-0.384483,0.632143,-0.65331
1630674788240,-0.385215,0.632265,-0.65392
1630674788250,-0.385032,0.6323259999999999,-0.654408
1630674788259,-0.385886,0.632814,-0.654225
1630674788269,-0.384971,0.63379,-0.654957
1630674788279,-0.384117,0.6347659999999999,-0.654591
1630674788288,-0.383812,0.634949,-0.653737
1630674788298,-0.382836,0.63257,-0.649467
1630674788307,-0.384788,0.634644,-0.646722
1630674788317,-0.38387299999999996,0.635132,-0.646661
1630674788327,-0.381982,0.63684,-0.647515
1630674788336,-0.382104,0.637877,-0.649772
1630674788346,-0.380396,0.636413,-0.651053
1630674788355,-0.380396,0.63745,-0.65087
1630674788365,-0.379847,0.636413,-0.651663
1630674788375,-0.380152,0.635437,-0.653005
1630674788384,-0.380762,0.634034,-0.652578
1630674788394,-0.38112799999999997,0.634522,-0.652212
1630674788403,-0.380701,0.634827,-0.65209
1630674788413,-0.380396,0.636169,-0.653676
1630674788423,-0.381189,0.636047,-0.653615
1630674788432,-0.38003,0.634949,-0.653676
1630674788442,-0.379786,0.634278,-0.654408
1630674788451,-0.38112799999999997,0.633607,-0.653371
1630674788461,-0.38234799999999997,0.634278,-0.6527
1630674788471,-0.381799,0.6344609999999999,-0.655018
1630674788480,-0.382287,0.635742,-0.655628
1630674788490,-0.38265299999999997,0.63684,-0.6557499999999999
1630674788499,-0.38173799999999997,0.637023,-0.654957
1630674788509,-0.38143299999999997,0.638548,-0.654164
1630674788519,-0.382226,0.63806,-0.652822
1630674788528,-0.38204299999999997,0.637755,-0.651053
1630674788538,-0.382104,0.636474,-0.648796
1630674788547,-0.381006,0.636718,-0.64782
1630674788557,-0.380884,0.636962,-0.646966
1630674788567,-0.381006,0.637084,-0.6457459999999999
1630674788576,-0.381799,0.637572,-0.645868
1630674788586,-0.38112799999999997,0.637267,-0.646722
1630674788595,-0.381006,0.636779,-0.647332
1630674788605,-0.382104,0.63684,-0.647881
1630674788615,-0.381555,0.6359859999999999,-0.648552
1630674788624,-0.381616,0.634827,-0.648552
1630674788634,-0.38234799999999997,0.634705,-0.649772
1630674788643,-0.382714,0.6353759999999999,-0.649101
1630674788653,-0.383446,0.636962,-0.649406
1630674788663,-0.384056,0.63806,-0.649528
1630674788672,-0.38369,0.6387309999999999,-0.650138
1630674788682,-0.384056,0.639219,-0.648491
1630674788691,-0.3843,0.639097,-0.647637
1630674788701,-0.3843,0.63928,-0.647393
1630674788711,-0.384239,0.63989,-0.646417
1630674788720,-0.385154,0.6405609999999999,-0.646234
1630674788730,-0.384849,0.6399509999999999,-0.645502
1630674788739,-0.385642,0.63928,-0.645502
1630674788749,-0.385215,0.638609,-0.646478
1630674788759,-0.384971,0.637694,-0.646417
1630674788768,-0.384605,0.63745,-0.647027
1630674788778,-0.385276,0.637694,-0.648186
1630674788787,-0.385276,0.6372059999999999,-0.649467
1630674788797,-0.385703,0.637633,-0.650199
1630674788807,-0.385398,0.636352,-0.649406
1630674788816,-0.386374,0.636352,-0.648064
1630674788826,-0.386191,0.6362909999999999,-0.6466
1630674788835,-0.385764,0.63745,-0.647149
1630674788845,-0.384117,0.637145,-0.64721
1630674788855,-0.384666,0.637389,-0.647027
1630674788864,-0.385947,0.636169,-0.645502
1630674788874,-0.385703,0.633729,-0.643062
1630674788883,-0.387106,0.6347659999999999,-0.643977
1630674788893,-0.388448,0.6362909999999999,-0.645502
1630674788903,-0.38765499999999997,0.639524,-0.647454
1630674788912,-0.386862,0.64233,-0.650382
1630674788922,-0.38674,0.643184,-0.651175
1630674788931,-0.385764,0.640805,-0.65026
1630674788941,-0.385398,0.637938,-0.648979
1630674788951,-0.384788,0.636108,-0.648369
1630674788960,-0.384422,0.635925,-0.648979
1630674788970,-0.385398,0.634644,-0.647759
1630674788979,-0.383751,0.634339,-0.648918
1630674788989,-0.383202,0.634522,-0.649528
1630674788999,-0.38234799999999997,0.635132,-0.650687
1630674789008,-0.382592,0.634217,-0.650931
1630674789018,-0.38265299999999997,0.632509,-0.651724
1630674789027,-0.383995,0.631411,-0.65087
1630674789037,-0.383385,0.631533,-0.651358
1630674789047,-0.384178,0.631167,-0.651968
1630674789056,-0.384605,0.632509,-0.651602
1630674789066,-0.385032,0.633729,-0.652029
1630674789075,-0.384544,0.6344,-0.652212
1630674789085,-0.385215,0.635254,-0.651846
1630674789095,-0.385337,0.636047,-0.651907
1630674789104,-0.384971,0.6362909999999999,-0.652456
1630674789114,-0.383934,0.633973,-0.650077
1630674789123,-0.384788,0.634095,-0.649101
1630674789133,-0.385398,0.6338509999999999,-0.647759
1630674789143,-0.38491,0.635254,-0.648491
1630674789152,-0.384056,0.637328,-0.649101
1630674789162,-0.383934,0.638243,-0.650443
1630674789171,-0.383202,0.637694,-0.650443
1630674789181,-0.383324,0.635498,-0.65026
1630674789191,-0.383446,0.6338509999999999,-0.650504
1630674789200,-0.383141,0.6335459999999999,-0.651419
1630674789210,-0.38295799999999997,0.633302,-0.65148
1630674789219,-0.382104,0.633363,-0.652029
1630674789229,-0.38247,0.632753,-0.652944
1630674789239,-0.381799,0.632692,-0.653127
1630674789248,-0.380701,0.6338509999999999,-0.655262
1630674789258,-0.38051799999999997,0.634583,-0.6563599999999999
1630674789267,-0.382897,0.635254,-0.655384
1630674789277,-0.382714,0.634705,-0.657214
1630674789287,-0.383141,0.6344609999999999,-0.6569699999999999
1630674789296,-0.381982,0.633668,-0.6560549999999999
1630674789306,-0.38112799999999997,0.634705,-0.656482
1630674789315,-0.38204299999999997,0.635864,-0.65392
1630674789325,-0.381494,0.636047,-0.653798
1630674789335,-0.38186,0.635864,-0.652822
1630674789344,-0.380457,0.6362909999999999,-0.650382
1630674789354,-0.381067,0.635925,-0.650687
1630674789363,-0.381494,0.635498,-0.650565
1630674789373,-0.38064,0.634644,-0.650443
1630674789383,-0.380335,0.633668,-0.65087
1630674789392,-0.380579,0.6326309999999999,-0.651541
1630674789402,-0.379237,0.631533,-0.651785
1630674789411,-0.380396,0.6320209999999999,-0.651724
1630674789421,-0.380884,0.630984,-0.652151
1630674789431,-0.382409,0.632082,-0.651968
1630674789440,-0.381189,0.6323259999999999,-0.651907
1630674789450,-0.381189,0.633058,-0.653432
1630674789459,-0.381921,0.632997,-0.653859
1630674789469,-0.381799,0.632753,-0.654164
1630674789479,-0.382226,0.6326309999999999,-0.654408
1630674789488,-0.382287,0.633363,-0.653249
1630674789498,-0.381006,0.6335459999999999,-0.653493
1630674789507,-0.383629,0.633058,-0.652334
1630674789517,-0.382531,0.634217,-0.651419
1630674789527,-0.382775,0.633912,-0.651297
1630674789536,-0.381982,0.633302,-0.65209
1630674789546,-0.38356799999999996,0.63318,-0.65392
1630674789555,-0.383812,0.632814,-0.6560549999999999
1630674789565,-0.38326299999999996,0.6320209999999999,-0.656116
1630674789575,-0.384117,0.632204,-0.657092
1630674789584,-0.385276,0.63135,-0.655933
1630674789594,-0.385093,0.631411,-0.656543
1630674789603,-0.383446,0.629886,-0.657519
1630674789613,-0.384483,0.6317159999999999,-0.6566649999999999
1630674789623,-0.38369,0.633363,-0.656238
1630674789632,-0.383324,0.632387,-0.6557499999999999
1630674789642,-0.383385,0.631228,-0.655811
1630674789651,-0.38295799999999997,0.631228,-0.654225
1630674789661,-0.382531,0.631533,-0.653188
1630674789671,-0.384178,0.631289,-0.652517
1630674789680,-0.38173799999999997,0.631045,-0.65392
1630674789690,-0.382287,0.630862,-0.655262
1630674789699,-0.38295799999999997,0.629703,-0.655872
1630674789709,-0.382836,0.626714,-0.655933
1630674789719,-0.382592,0.625738,-0.655628
1630674789728,-0.383812,0.627568,-0.6569699999999999
1630674789738,-0.385154,0.630008,-0.657641
1630674789747,-0.384605,0.6335459999999999,-0.6594099999999999
1630674789757,-0.382836,0.63501,-0.659593
1630674789767,-0.383934,0.6335459999999999,-0.659349
1630674789776,-0.38295799999999997,0.631472,-0.6587999999999999
1630674789786,-0.382226,0.6317159999999999,-0.657946
1630674789795,-0.38112799999999997,0.631289,-0.655994
1630674789805,-0.381372,0.630008,-0.653981
1630674789815,-0.381494,0.63013,-0.652395
1630674789824,-0.38003,0.6317159999999999,-0.652273
1630674789834,-0.379054,0.632265,-0.652456
1630674789843,-0.379664,0.631838,-0.651602
1630674789853,-0.37942,0.63135,-0.652883
1630674789863,-0.37942,0.629947,-0.654896
1630674789872,-0.381372,0.628544,-0.656421
1630674789882,-0.38112799999999997,0.627446,-0.658739
1630674789891,-0.380762,0.627263,-0.659471
1630674789901,-0.380457,0.628971,-0.659349
1630674789911,-0.380762,0.629886,-0.659471
1630674789920,-0.38112799999999997,0.630252,-0.658434
1630674789930,-0.381006,0.631899,-0.6575799999999999
1630674789939,-0.380884,0.6329359999999999,-0.655689
1630674789949,-0.38064,0.6332409999999999,-0.65392
1630674789959,-0.379847,0.632509,-0.650504
1630674789968,-0.38143299999999997,0.633729,-0.649101
1630674789978,-0.381372,0.634034,-0.649162
1630674789987,-0.380274,0.635254,-0.649467
1630674789997,-0.37960299999999997,0.635315,-0.653432
1630674790007,-0.379664,0.635803,-0.655018
1630674790016,-0.37960299999999997,0.6326309999999999,-0.6554449999999999
1630674790026,-0.37899299999999997,0.630862,-0.657824
1630674790035,-0.37942,0.630496,-0.658739
1630674790045,-0.379176,0.631106,-0.659654
1630674790055,-0.379115,0.630557,-0.659349
1630674790064,-0.379969,0.631045,-0.659288
1630674790074,-0.380396,0.6317159999999999,-0.658434
1630674790083,-0.379969,0.632448,-0.658861
1630674790093,-0.379481,0.633119,-0.6594099999999999
1630674790103,-0.379176,0.632204,-0.6600199999999999
1630674790112,-0.37990799999999997,0.632753,-0.659227
1630674790122,-0.379969,0.632509,-0.659776
1630674790131,-0.37960299999999997,0.6332409999999999,-0.6591049999999999
1630674790141,-0.378566,0.633729,-0.657702
1630674790151,-0.378505,0.63379,-0.658251
1630674790160,-0.37777299999999997,0.633607,-0.6569699999999999
1630674790170,-0.377346,0.6329359999999999,-0.6563599999999999
1630674790179,-0.37698,0.632814,-0.655628
1630674790189,-0.376492,0.632265,-0.654469
1630674790199,-0.37655299999999997,0.631106,-0.654469
1630674790208,-0.37594299999999997,0.629581,-0.654408
1630674790218,-0.37655299999999997,0.628849,-0.654286
1630674790227,-0.376614,0.629093,-0.65514
1630674790237,-0.37698,0.63013,-0.65514
1630674790247,-0.37716299999999997,0.631472,-0.654286
1630674790256,-0.377529,0.631655,-0.654896
1630674790266,-0.377346,0.632082,-0.654774
1630674790275,-0.377895,0.632692,-0.653798
1630674790285,-0.37868799999999997,0.633424,-0.653371
1630674790295,-0.379176,0.632875,-0.653737
1630674790304,-0.378932,0.633119,-0.652883
1630674790314,-0.378871,0.632692,-0.65331
1630674790323,-0.379176,0.633302,-0.653981
1630674790333,-0.37942,0.632204,-0.655567
1630674790343,-0.379542,0.631899,-0.6563599999999999
1630674790352,-0.37929799999999997,0.630862,-0.656909
1630674790362,-0.378871,0.631045,-0.658129
1630674790371,-0.378505,0.630618,-0.659227
1630674790381,-0.37942,0.629703,-0.660203
1630674790391,-0.37990799999999997,0.6283,-0.660691
1630674790400,-0.38003,0.628483,-0.661179
1630674790410,-0.38003,0.628666,-0.663314
1630674790419,-0.381006,0.628727,-0.662582
1630674790429,-0.38051799999999997,0.627629,-0.661789
1630674790439,-0.38021299999999997,0.628422,-0.661118
1630674790448,-0.380945,0.630008,-0.661728
1630674790458,-0.380457,0.631655,-0.662948
1630674790467,-0.38112799999999997,0.6317159999999999,-0.662887
1630674790477,-0.381799,0.631472,-0.6612399999999999
1630674790487,-0.381616,0.631899,-0.6606299999999999
1630674790496,-0.381372,0.632082,-0.6578849999999999
1630674790506,-0.38204299999999997,0.632753,-0.6578849999999999
1630674790515,-0.380579,0.631655,-0.657824
1630674790525,-0.37868799999999997,0.63074,-0.658617
1630674790535,-0.37942,0.629947,-0.658129
1630674790544,-0.379847,0.627751,-0.656238
1630674790554,-0.37929799999999997,0.624457,-0.6560549999999999
1630674790563,-0.379664,0.625921,-0.656299
1630674790573,-0.380762,0.629215,-0.658068
1630674790583,-0.381799,0.632265,-0.659471
1630674790592,-0.379847,0.6335459999999999,-0.661301
1630674790602,-0.379664,0.6353759999999999,-0.661972
1630674790611,-0.37929799999999997,0.633302,-0.660386
1630674790621,-0.379969,0.629703,-0.658861
1630674790631,-0.3782,0.627934,-0.6584949999999999
1630674790640,-0.378932,0.626165,-0.656604
1630674790650,-0.378627,0.626104,-0.655384
1630674790659,-0.377834,0.62769,-0.654896
1630674790669,-0.37698,0.627629,-0.654713
1630674790679,-0.377651,0.628666,-0.655079
1630674790688,-0.378017,0.626836,-0.657214
1630674790698,-0.379054,0.62464,-0.6584949999999999
1630674790707,-0.378871,0.62525,-0.660203
1630674790717,-0.379786,0.625738,-0.661667
1630674790727,-0.380396,0.626043,-0.664473
1630674790736,-0.380762,0.626592,-0.664351
1630674790746,-0.38051799999999997,0.627385,-0.6652049999999999
1630674790755,-0.381067,0.627263,-0.664534
1630674790765,-0.38143299999999997,0.62647,-0.6648999999999999
1630674790775,-0.380945,0.626714,-0.6645949999999999
1630674790784,-0.378749,0.626226,-0.663497
1630674790794,-0.380091,0.623298,-0.660264
1630674790803,-0.38143299999999997,0.627812,-0.658617
1630674790813,-0.381189,0.627751,-0.658434
1630674790823,-0.380396,0.629581,-0.660447
1630674790832,-0.37881,0.630191,-0.6624599999999999
1630674790842,-0.37868799999999997,0.627995,-0.662338
1630674790851,-0.378932,0.625982,-0.661484
1630674790861,-0.379969,0.624396,-0.664168
1630674790871,-0.378322,0.625006,-0.664839
1630674790880,-0.378444,0.625616,-0.665083
1630674790890,-0.378932,0.626714,-0.663131
1630674790899,-0.379542,0.626897,-0.6636799999999999
1630674790909,-0.377834,0.627446,-0.663741
1630674790919,-0.377224,0.6283,-0.663009
1630674790928,-0.37838299999999997,0.629337,-0.6618499999999999
1630674790938,-0.3782,0.629215,-0.661789
1630674790947,-0.377712,0.630435,-0.660996
1630674790957,-0.37759,0.63013,-0.659837
1630674790967,-0.377102,0.630984,-0.6594099999999999
1630674790976,-0.37685799999999997,0.630008,-0.658129
1630674790986,-0.376736,0.63074,-0.657336
1630674790995,-0.376065,0.630313,-0.657824
1630674791005,-0.376004,0.631289,-0.657336
1630674791015,-0.374967,0.6320209999999999,-0.657641
1630674791024,-0.37576,0.63074,-0.657641
1630674791034,-0.374479,0.629886,-0.657946
1630674791043,-0.375577,0.628727,-0.658617
1630674791053,-0.374723,0.628666,-0.6587999999999999
1630674791063,-0.373808,0.627873,-0.658678
1630674791072,-0.373686,0.627934,-0.6597149999999999
1630674791082,-0.373747,0.627873,-0.659654
1630674791091,-0.375211,0.628605,-0.659044
1630674791101,-0.37533299999999997,0.629276,-0.660691
1630674791111,-0.376065,0.629886,-0.659776
1630674791120,-0.376675,0.63013,-0.659776
1630674791130,-0.376919,0.630435,-0.659654
1630674791139,-0.376919,0.630557,-0.660264
1630674791149,-0.377346,0.63074,-0.659959
1630674791159,-0.37807799999999997,0.631533,-0.659166
1630674791168,-0.378017,0.631655,-0.660081
1630674791178,-0.3782,0.630862,-0.659776
1630674791187,-0.378322,0.630374,-0.659959
1630674791197,-0.378566,0.630252,-0.661118
1630674791207,-0.379664,0.629032,-0.660813
1630674791216,-0.378749,0.628849,-0.660691
1630674791226,-0.377956,0.62891,-0.660996
1630674791235,-0.37838299999999997,0.628788,-0.660996
1630674791245,-0.37777299999999997,0.627568,-0.660508
1630674791255,-0.37838299999999997,0.627995,-0.660752
1630674791264,-0.378261,0.626958,-0.659898
1630674791274,-0.378566,0.626958,-0.661423
1630674791283,-0.379054,0.627934,-0.663863
1630674791293,-0.37899299999999997,0.627995,-0.663314
1630674791303,-0.379176,0.627812,-0.663802
1630674791312,-0.379176,0.627019,-0.663192
1630674791322,-0.379176,0.626531,-0.662216
1630674791331,-0.379176,0.62891,-0.6615449999999999
1630674791341,-0.378322,0.627995,-0.663253
1630674791351,-0.378749,0.626409,-0.662887
1630674791360,-0.379542,0.626104,-0.6618499999999999
1630674791370,-0.379115,0.623054,-0.6600199999999999
1630674791379,-0.379786,0.620736,-0.658556
1630674791389,-0.380762,0.623908,-0.658068
1630674791399,-0.381616,0.626897,-0.659654
1630674791408,-0.381616,0.630069,-0.660874
1630674791418,-0.381494,0.63318,-0.663009
1630674791427,-0.38112799999999997,0.632753,-0.6642899999999999
1630674791437,-0.381372,0.62891,-0.6615449999999999
1630674791447,-0.380945,0.627873,-0.661911
1630674791456,-0.379725,0.627263,-0.661362
1630674791466,-0.379664,0.627446,-0.659288
1630674791475,-0.37990799999999997,0.62708,-0.657031
1630674791485,-0.380396,0.627812,-0.656726
1630674791495,-0.379786,0.628422,-0.6575799999999999
1630674791504,-0.379237,0.627812,-0.658556
1630674791514,-0.37942,0.626836,-0.6594099999999999
1630674791523,-0.379725,0.626714,-0.658678
1630674791533,-0.37899299999999997,0.62586,-0.658678
1630674791543,-0.379786,0.626226,-0.659959
1630674791552,-0.381067,0.628117,-0.6606299999999999
1630674791562,-0.38051799999999997,0.627812,-0.660752
1630674791571,-0.380884,0.628727,-0.6603249999999999
1630674791581,-0.380945,0.629337,-0.660691
1630674791591,-0.380579,0.630191,-0.659471
1630674791600,-0.38082299999999997,0.630069,-0.658678
1630674791610,-0.379664,0.630496,-0.6575799999999999
1630674791619,-0.380884,0.629886,-0.65514
1630674791629,-0.38186,0.632204,-0.654408
1630674791639,-0.381372,0.6326309999999999,-0.65453
1630674791648,-0.37942,0.6335459999999999,-0.656116
1630674791658,-0.379237,0.634705,-0.656848
1630674791667,-0.378566,0.632814,-0.656116
1630674791677,-0.379237,0.630679,-0.655933
1630674791687,-0.379542,0.629032,-0.655994
1630674791696,-0.379054,0.628727,-0.657458
1630674791706,-0.379054,0.629337,-0.657458
1630674791715,-0.379847,0.63013,-0.657336
1630674791725,-0.379847,0.6317159999999999,-0.656909
1630674791735,-0.378566,0.632143,-0.6569699999999999
1630674791744,-0.379237,0.632082,-0.657458
1630674791754,-0.379725,0.633302,-0.657946
1630674791763,-0.378932,0.63257,-0.658068
1630674791773,-0.37990799999999997,0.632753,-0.656604
1630674791783,-0.379237,0.6326309999999999,-0.656238
1630674791792,-0.37960299999999997,0.63318,-0.656787
1630674791802,-0.379359,0.6347659999999999,-0.6578849999999999
1630674791811,-0.378627,0.633607,-0.657702
1630674791821,-0.37881,0.632753,-0.657214
1630674791831,-0.37868799999999997,0.632692,-0.657519
1630674791840,-0.377895,0.63257,-0.6572749999999999
1630674791850,-0.37807799999999997,0.63318,-0.657153
1630674791859,-0.37759,0.631838,-0.656604
1630674791869,-0.378139,0.631228,-0.655933
1630674791879,-0.377285,0.629764,-0.655384
1630674791888,-0.377041,0.629398,-0.6563599999999999
1630674791898,-0.378017,0.629581,-0.655994
1630674791907,-0.37746799999999997,0.62952,-0.6557499999999999
1630674791917,-0.37759,0.629825,-0.656604
1630674791927,-0.378017,0.629642,-0.656604
1630674791936,-0.377834,0.630191,-0.657031
1630674791946,-0.378444,0.63074,-0.6563599999999999
1630674791955,-0.378627,0.630618,-0.6572749999999999
1630674791965,-0.378932,0.630984,-0.656726
1630674791975,-0.379786,0.631045,-0.656421
1630674791984,-0.380945,0.630801,-0.656238
1630674791994,-0.38021299999999997,0.631289,-0.656177
1630674792003,-0.37929799999999997,0.630374,-0.656116
1630674792013,-0.380274,0.631472,-0.657214
1630674792023,-0.379725,0.631106,-0.6569699999999999
1630674792032,-0.380762,0.630618,-0.658007
1630674792042,-0.379969,0.63013,-0.6581899999999999
1630674792051,-0.379115,0.629886,-0.658007
1630674792061,-0.379481,0.629764,-0.658373
1630674792071,-0.380762,0.627934,-0.658251
1630674792080,-0.380457,0.628422,-0.658922
1630674792090,-0.379664,0.628666,-0.6594099999999999
1630674792099,-0.379542,0.628605,-0.660203
1630674792109,-0.37960299999999997,0.628727,-0.660264
1630674792119,-0.37990799999999997,0.628849,-0.660752
1630674792128,-0.378505,0.629215,-0.660447
1630674792138,-0.379664,0.630008,-0.660264
1630674792147,-0.378871,0.629093,-0.661179
1630674792157,-0.378627,0.6283,-0.661118
1630674792167,-0.378505,0.628178,-0.659593
1630674792176,-0.37881,0.628971,-0.6597149999999999
1630674792186,-0.379176,0.629459,-0.659166
1630674792195,-0.377956,0.629093,-0.660142
1630674792205,-0.377834,0.628117,-0.6621549999999999
1630674792215,-0.377956,0.627934,-0.661301
1630674792224,-0.378932,0.624396,-0.658678
1630674792234,-0.37881,0.623725,-0.658922
1630674792243,-0.380457,0.626287,-0.6591049999999999
1630674792253,-0.380762,0.630008,-0.660569
1630674792263,-0.380945,0.631838,-0.661667
1630674792272,-0.380701,0.633363,-0.663314
1630674792282,-0.380762,0.632509,-0.661972
1630674792291,-0.379786,0.630923,-0.660569
1630674792301,-0.379115,0.630862,-0.659471
1630674792311,-0.379054,0.629154,-0.6584949999999999
1630674792320,-0.378139,0.629093,-0.656482
1630674792330,-0.37881,0.628544,-0.655201
1630674792339,-0.379054,0.629642,-0.65514
1630674792349,-0.378261,0.630252,-0.656238
1630674792359,-0.378627,0.6283,-0.657336
1630674792368,-0.379115,0.626409,-0.658312
1630674792378,-0.37990799999999997,0.625372,-0.658983
1630674792387,-0.380335,0.62403,-0.660813
1630674792397,-0.38003,0.626043,-0.661362
1630674792407,-0.380335,0.626592,-0.662704
1630674792416,-0.37990799999999997,0.627141,-0.6624599999999999
1630674792426,-0.380396,0.628971,-0.662704
1630674792435,-0.381372,0.62952,-0.661118
1630674792445,-0.38143299999999997,0.629825,-0.659898
1630674792455,-0.38003,0.630496,-0.658739
1630674792464,-0.379786,0.63135,-0.658251
1630674792474,-0.379786,0.630618,-0.656116
1630674792483,-0.38173799999999997,0.631777,-0.653615
1630674792493,-0.38064,0.631594,-0.653676
1630674792503,-0.37868799999999997,0.63196,-0.654957
1630674792512,-0.37942,0.632082,-0.656848
1630674792522,-0.378505,0.632143,-0.658983
1630674792531,-0.379176,0.6283,-0.658983
1630674792541,-0.37942,0.626958,-0.660752
1630674792551,-0.37868799999999997,0.62647,-0.6621549999999999
1630674792560,-0.379176,0.626592,-0.661118
1630674792570,-0.37807799999999997,0.626836,-0.6606299999999999
1630674792579,-0.378871,0.628056,-0.661423
1630674792589,-0.377712,0.628178,-0.659959
1630674792599,-0.37807799999999997,0.629215,-0.6600199999999999
1630674792608,-0.37838299999999997,0.629337,-0.660081
1630674792618,-0.3782,0.628666,-0.658678
1630674792627,-0.378566,0.629215,-0.658983
1630674792637,-0.378932,0.630435,-0.658861
1630674792647,-0.378932,0.630618,-0.658983
1630674792656,-0.37899299999999997,0.630862,-0.659044
1630674792666,-0.377651,0.631106,-0.660386
1630674792675,-0.377346,0.630496,-0.661179
1630674792685,-0.378017,0.629764,-0.6606299999999999
1630674792695,-0.377407,0.629032,-0.660142
1630674792704,-0.377346,0.629154,-0.659837
1630674792714,-0.377407,0.628788,-0.661179
1630674792723,-0.37746799999999997,0.6283,-0.661179
1630674792733,-0.377285,0.626409,-0.661606
1630674792743,-0.378139,0.626287,-0.661362
1630674792752,-0.37716299999999997,0.626226,-0.661362
1630674792762,-0.37868799999999997,0.625921,-0.661057
1630674792771,-0.378566,0.626348,-0.6615449999999999
1630674792781,-0.377895,0.627751,-0.661728
1630674792791,-0.377834,0.627324,-0.661972
1630674792800,-0.377285,0.626958,-0.6612399999999999
1630674792810,-0.378322,0.626348,-0.6606299999999999
1630674792819,-0.378444,0.62647,-0.6594099999999999
1630674792829,-0.378566,0.628117,-0.6603249999999999
1630674792839,-0.378505,0.628483,-0.659471
1630674792848,-0.378444,0.628544,-0.660081
1630674792858,-0.378932,0.628178,-0.660752
1630674792867,-0.37881,0.628239,-0.660996
1630674792877,-0.37990799999999997,0.627751,-0.660447
1630674792887,-0.38003,0.627324,-0.6609349999999999
1630674792896,-0.380579,0.627507,-0.660508
1630674792906,-0.379847,0.627202,-0.662094
1630674792915,-0.380091,0.626653,-0.660996
1630674792925,-0.380396,0.626104,-0.6603249999999999
1630674792935,-0.379542,0.62586,-0.6594099999999999
1630674792944,-0.380579,0.625982,-0.661118
1630674792954,-0.38051799999999997,0.626226,-0.662643
1630674792963,-0.38112799999999997,0.626836,-0.662643
1630674792973,-0.38064,0.626287,-0.661728
1630674792983,-0.38082299999999997,0.626043,-0.661484
1630674792992,-0.380274,0.625921,-0.662033
1630674793002,-0.37990799999999997,0.626531,-0.661423
1630674793011,-0.38143299999999997,0.626104,-0.6618499999999999
1630674793021,-0.380579,0.626958,-0.663314
1630674793031,-0.380701,0.626653,-0.662887
1630674793040,-0.380274,0.625433,-0.662094
1630674793050,-0.379786,0.624274,-0.662399
1630674793059,-0.380701,0.625982,-0.662094
1630674793069,-0.37929799999999997,0.625128,-0.663558
1630674793079,-0.378017,0.623481,-0.665144
1630674793088,-0.378505,0.623603,-0.665327
1630674793098,-0.380091,0.62098,-0.663802
1630674793107,-0.37899299999999997,0.617564,-0.662887
1630674793117,-0.38064,0.6189669999999999,-0.663314
1630674793127,-0.38125,0.623054,-0.665266
1630674793136,-0.380884,0.627751,-0.6661199999999999
1630674793146,-0.380762,0.629703,-0.669353
1630674793155,-0.381067,0.630618,-0.668072
1630674793165,-0.381189,0.627873,-0.666364
1630674793175,-0.381006,0.62647,-0.666364
1630674793184,-0.37942,0.626104,-0.665998
1630674793194,-0.378017,0.625067,-0.663863
1630674793203,-0.3782,0.624823,-0.662277
1630674793213,-0.377224,0.625372,-0.6615449999999999
1630674793223,-0.377102,0.624274,-0.661728
1630674793232,-0.37698,0.623115,-0.663802
1630674793242,-0.37698,0.621956,-0.664961
1630674793251,-0.377224,0.6211019999999999,-0.665449
1630674793261,-0.37716299999999997,0.6207969999999999,-0.665083
1630674793271,-0.377834,0.62098,-0.665754
1630674793280,-0.38003,0.622017,-0.665876
1630674793290,-0.380152,0.62342,-0.665754
1630674793299,-0.379481,0.625128,-0.6661199999999999
1630674793309,-0.380457,0.625799,-0.664046
1630674793319,-0.38112799999999997,0.626226,-0.662704
1630674793328,-0.380457,0.627385,-0.6606299999999999
1630674793338,-0.38003,0.628056,-0.659288
1630674793347,-0.377834,0.625433,-0.656177
1630674793357,-0.380396,0.626592,-0.653615
1630674793367,-0.380152,0.62708,-0.651541
1630674793376,-0.380152,0.627629,-0.651907
1630674793386,-0.377956,0.628788,-0.6554449999999999
1630674793395,-0.377712,0.627751,-0.657031
1630674793405,-0.37807799999999997,0.625433,-0.656177
1630674793415,-0.377712,0.622566,-0.656116
1630674793424,-0.379054,0.622871,-0.658617
1630674793434,-0.379786,0.62281,-0.659654
1630674793443,-0.37990799999999997,0.623847,-0.660996
1630674793453,-0.380762,0.624701,-0.662216
1630674793463,-0.38204299999999997,0.62525,-0.665022
1630674793472,-0.381067,0.626104,-0.666669
1630674793482,-0.381006,0.626287,-0.668011
1630674793491,-0.38173799999999997,0.62708,-0.668621
1630674793501,-0.382165,0.626531,-0.668072
1630674793511,-0.38265299999999997,0.624823,-0.668804
1630674793520,-0.38112799999999997,0.624213,-0.6682549999999999
1630674793530,-0.382531,0.625128,-0.667767
1630674793539,-0.380396,0.624701,-0.6673399999999999
1630674793549,-0.38021299999999997,0.62464,-0.6664249999999999
1630674793559,-0.380091,0.623542,-0.666608
1630674793568,-0.379542,0.622688,-0.666852
1630674793578,-0.37881,0.621346,-0.666364
1630674793587,-0.378322,0.62159,-0.6667299999999999
1630674793597,-0.37868799999999997,0.620004,-0.666974
1630674793607,-0.378322,0.619638,-0.666547
1630674793616,-0.379176,0.619089,-0.667584
1630674793626,-0.37838299999999997,0.620004,-0.6670349999999999
1630674793635,-0.378932,0.620553,-0.667706
1630674793645,-0.3782,0.619394,-0.667523
1630674793655,-0.378444,0.62037,-0.6664249999999999
1630674793664,-0.377529,0.619943,-0.665876
1630674793674,-0.37759,0.620919,-0.664656
1630674793683,-0.377041,0.621346,-0.6639849999999999
1630674793693,-0.376126,0.6214069999999999,-0.663009
1630674793703,-0.375699,0.621224,-0.661362
1630674793712,-0.373198,0.6211019999999999,-0.6591049999999999
1630674793722,-0.37332,0.62037,-0.658007
1630674793731,-0.37393,0.620248,-0.657458
1630674793741,-0.373076,0.618723,-0.658861
1630674793751,-0.374174,0.617381,-0.662399
1630674793760,-0.374357,0.6159169999999999,-0.668133
1630674793770,-0.374784,0.6143919999999999,-0.673074
1630674793779,-0.376309,0.613294,-0.675636
1630674793789,-0.37637,0.6128669999999999,-0.678564
1630674793799,-0.376614,0.61305,-0.679967
1630674793808,-0.37807799999999997,0.6128669999999999,-0.682163
1630674793818,-0.377285,0.612928,-0.68259
1630674793827,-0.377651,0.6125619999999999,-0.683322
1630674793837,-0.379115,0.612623,-0.683688
1630674793847,-0.379481,0.6128669999999999,-0.6831389999999999
1630674793856,-0.379786,0.6131719999999999,-0.6832
1630674793866,-0.38003,0.61366,-0.682651
1630674793875,-0.379664,0.614514,-0.682712
1630674793885,-0.379542,0.614819,-0.6822239999999999
1630674793895,-0.379969,0.61427,-0.681187
1630674793904,-0.37929799999999997,0.613904,-0.6806989999999999
1630674793914,-0.379786,0.614148,-0.679662
1630674793923,-0.380396,0.6134769999999999,-0.679235
1630674793933,-0.37807799999999997,0.610793,-0.681736
1630674793943,-0.37807799999999997,0.608658,-0.67954
1630674793952,-0.379542,0.60878,-0.677588
1630674793962,-0.378932,0.605242,-0.675392
1630674793971,-0.380457,0.605425,-0.674782
1630674793981,-0.381494,0.6101219999999999,-0.675331
1630674793991,-0.382531,0.614209,-0.676551
1630674794000,-0.382592,0.61732,-0.676978
1630674794010,-0.381616,0.618601,-0.677954
1630674794019,-0.38082299999999997,0.6168319999999999,-0.678259
1630674794029,-0.380457,0.613233,-0.674599
1630674794039,-0.37990799999999997,0.6107319999999999,-0.671793
1630674794048,-0.378322,0.609634,-0.670756
1630674794058,-0.37777299999999997,0.60939,-0.668133
1630674794067,-0.377895,0.608719,-0.666242
1630674794077,-0.377224,0.608841,-0.666852
1630674794087,-0.37698,0.609329,-0.668316
1630674794096,-0.377346,0.6098169999999999,-0.671549
1630674794106,-0.377529,0.608475,-0.673257
1630674794115,-0.378139,0.6085969999999999,-0.674721
1630674794125,-0.378444,0.609268,-0.676978
1630674794135,-0.379359,0.610061,-0.678625
1630674794144,-0.38003,0.610976,-0.681431
1630674794154,-0.380152,0.61183,-0.680455
1630674794163,-0.380335,0.612501,-0.680882
1630674794173,-0.380457,0.61244,-0.680272
1630674794183,-0.381006,0.612501,-0.679235
1630674794192,-0.380396,0.61305,-0.678869
1630674794202,-0.379969,0.611403,-0.676307
1630674794211,-0.382287,0.612806,-0.674721
1630674794221,-0.381311,0.615063,-0.674965
1630674794231,-0.380884,0.615551,-0.674538
1630674794240,-0.379481,0.6183569999999999,-0.67771
1630674794250,-0.37807799999999997,0.616588,-0.677832
1630674794259,-0.377834,0.614514,-0.676673
1630674794269,-0.378444,0.614148,-0.676673
1630674794279,-0.378322,0.612623,-0.677222
1630674794288,-0.3782,0.612379,-0.676673
1630674794298,-0.378322,0.61244,-0.676795
1630674794307,-0.37746799999999997,0.613904,-0.677344
1630674794317,-0.378322,0.614331,-0.677039
1630674794327,-0.378444,0.615185,-0.676734
1630674794336,-0.3782,0.615551,-0.676002
1630674794346,-0.378932,0.615551,-0.675087
1630674794355,-0.377651,0.615795,-0.674355
1630674794365,-0.378566,0.6156119999999999,-0.673562
1630674794375,-0.37807799999999997,0.6161,-0.67222
1630674794384,-0.378017,0.615673,-0.671122
1630674794394,-0.37807799999999997,0.61732,-0.671122
1630674794403,-0.378505,0.618174,-0.670329
1630674794413,-0.377956,0.618296,-0.668377
1630674794423,-0.377346,0.6180519999999999,-0.667889
1630674794432,-0.377346,0.61793,-0.668377
1630674794442,-0.37716299999999997,0.618113,-0.6679499999999999
1630674794451,-0.377529,0.617503,-0.667584
1630674794461,-0.3782,0.6174419999999999,-0.667523
1630674794471,-0.378017,0.6180519999999999,-0.667157
1630674794480,-0.378139,0.6156119999999999,-0.668499
1630674794490,-0.377956,0.615978,-0.669536
1630674794499,-0.377956,0.6168319999999999,-0.669658
1630674794509,-0.377895,0.616954,-0.669719
1630674794519,-0.379481,0.616588,-0.668621
1630674794528,-0.37899299999999997,0.617259,-0.668316
1630674794538,-0.378932,0.617625,-0.667523
1630674794547,-0.37868799999999997,0.617198,-0.667218
1630674794557,-0.379237,0.6180519999999999,-0.667157
1630674794567,-0.37929799999999997,0.618296,-0.667828
1630674794576,-0.38003,0.618174,-0.668133
1630674794586,-0.379115,0.618113,-0.6682549999999999
1630674794595,-0.378932,0.619211,-0.668377
1630674794605,-0.38064,0.618479,-0.668072
1630674794615,-0.38051799999999997,0.618784,-0.668743
1630674794624,-0.380945,0.617503,-0.669231
1630674794634,-0.38082299999999997,0.617381,-0.669841
1630674794643,-0.381494,0.61671,-0.670939
1630674794653,-0.380701,0.617564,-0.671976
1630674794663,-0.381067,0.617259,-0.672342
1630674794672,-0.38051799999999997,0.617503,-0.672037
1630674794682,-0.380701,0.61732,-0.672647
1630674794691,-0.379664,0.617198,-0.672647
1630674794701,-0.37942,0.61793,-0.670329
1630674794711,-0.377407,0.618845,-0.6688649999999999
1630674794720,-0.377834,0.62037,-0.667889
1630674794730,-0.377834,0.619394,-0.6661199999999999
1630674794739,-0.377651,0.620065,-0.666608
1630674794749,-0.377895,0.618601,-0.667706
1630674794759,-0.377956,0.618845,-0.667767
1630674794768,-0.378627,0.619638,-0.668194
1630674794778,-0.37759,0.618784,-0.671
1630674794787,-0.3782,0.6186619999999999,-0.672708
1630674794797,-0.378566,0.61854,-0.671915
1630674794807,-0.378505,0.6153069999999999,-0.669902
1630674794816,-0.379847,0.614758,-0.6691699999999999
1630674794826,-0.380579,0.617381,-0.668926
1630674794835,-0.380762,0.618906,-0.668926
1630674794845,-0.379664,0.622139,-0.671
1630674794855,-0.379725,0.624884,-0.671793
1630674794864,-0.380335,0.624579,-0.671
1630674794874,-0.379847,0.623115,-0.6682549999999999
1630674794883,-0.37838299999999997,0.62159,-0.665937
1630674794893,-0.378261,0.621468,-0.664412
1630674794903,-0.378444,0.620919,-0.662643
1630674794912,-0.37868799999999997,0.621346,-0.662216
1630674794922,-0.378932,0.621895,-0.662277
1630674794931,-0.37746799999999997,0.6214069999999999,-0.664046
1630674794941,-0.377224,0.620736,-0.665876
1630674794951,-0.37777299999999997,0.619211,-0.665754
1630674794960,-0.3782,0.618174,-0.666486
1630674794970,-0.378627,0.617076,-0.6679499999999999
1630674794979,-0.37942,0.617381,-0.668804
1630674794989,-0.379115,0.618601,-0.668743
1630674794999,-0.379664,0.619211,-0.668438
1630674795008,-0.380396,0.621346,-0.666974
1630674795018,-0.38082299999999997,0.621773,-0.6664249999999999
1630674795027,-0.38051799999999997,0.62098,-0.665388
1630674795037,-0.380396,0.622444,-0.664168
1630674795047,-0.37990799999999997,0.622627,-0.662521
1630674795056,-0.38051799999999997,0.623603,-0.6612399999999999
1630674795066,-0.381311,0.624457,-0.659654
1630674795075,-0.381677,0.624762,-0.660752
1630674795085,-0.38021299999999997,0.625433,-0.662643
1630674795095,-0.379237,0.624701,-0.664412
1630674795104,-0.37942,0.624518,-0.665388
1630674795114,-0.380152,0.622261,-0.664656
1630674795123,-0.379969,0.620919,-0.666059
1630674795133,-0.379786,0.619821,-0.668011
1630674795143,-0.37990799999999997,0.6192719999999999,-0.668438
1630674795152,-0.380152,0.619089,-0.667889
1630674795162,-0.378627,0.618784,-0.669048
1630674795171,-0.37960299999999997,0.620919,-0.669963
1630674795181,-0.380579,0.622139,-0.669536
1630674795191,-0.38051799999999997,0.623359,-0.669231
1630674795200,-0.38021299999999997,0.624152,-0.668316
1630674795210,-0.380152,0.624396,-0.666852
1630674795219,-0.38051799999999997,0.624091,-0.666242
1630674795229,-0.380945,0.623908,-0.664839
1630674795239,-0.379786,0.624091,-0.665266
1630674795248,-0.378261,0.623481,-0.664534
1630674795258,-0.377956,0.623359,-0.664229
1630674795267,-0.377895,0.623481,-0.665388
1630674795277,-0.376614,0.622566,-0.665632
1630674795287,-0.376797,0.621834,-0.665144
1630674795296,-0.37576,0.621285,-0.666364
1630674795306,-0.37576,0.6204919999999999,-0.666608
1630674795315,-0.375516,0.620004,-0.668194
1630674795325,-0.375028,0.6201869999999999,-0.6676449999999999
1630674795335,-0.375211,0.619455,-0.6679499999999999
1630674795344,-0.37637,0.618906,-0.668377
1630674795354,-0.37563799999999997,0.618723,-0.668682
1630674795363,-0.376126,0.6189669999999999,-0.667889
1630674795373,-0.376614,0.619943,-0.667401
1630674795383,-0.376492,0.620858,-0.666791
1630674795392,-0.377712,0.6214069999999999,-0.665937
1630674795402,-0.37759,0.621285,-0.665266
1630674795411,-0.377407,0.621346,-0.665632
1630674795421,-0.378566,0.621224,-0.665266
1630674795431,-0.3782,0.620858,-0.665327
1630674795440,-0.37746799999999997,0.6201869999999999,-0.667096
1630674795450,-0.37868799999999997,0.6186619999999999,-0.6679499999999999
1630674795459,-0.37899299999999997,0.618296,-0.669536
1630674795469,-0.37899299999999997,0.6180519999999999,-0.668621
1630674795479,-0.37881,0.617869,-0.670695
1630674795488,-0.37881,0.61854,-0.671366
1630674795498,-0.379237,0.6186619999999999,-0.671854
1630674795507,-0.379115,0.619394,-0.671244
1630674795517,-0.379054,0.6180519999999999,-0.670878
1630674795527,-0.379664,0.618296,-0.670939
1630674795536,-0.378932,0.618418,-0.670695
1630674795546,-0.379664,0.618784,-0.670573
1630674795555,-0.379786,0.6180519999999999,-0.671793
1630674795565,-0.379847,0.619638,-0.673501
1630674795575,-0.379115,0.618845,-0.671793
1630674795584,-0.37990799999999997,0.618479,-0.670756
1630674795594,-0.379786,0.6189669999999999,-0.669963
1630674795603,-0.379969,0.6189669999999999,-0.671244
1630674795613,-0.378139,0.617015,-0.673074
1630674795623,-0.378566,0.616649,-0.673379
1630674795632,-0.378749,0.615124,-0.671793
1630674795642,-0.378871,0.612501,-0.671976
1630674795651,-0.37990799999999997,0.612806,-0.670268
1630674795661,-0.380579,0.615429,-0.670512
1630674795671,-0.380091,0.6186619999999999,-0.672037
1630674795680,-0.379786,0.621285,-0.674111
1630674795690,-0.379786,0.621895,-0.674233
1630674795699,-0.378932,0.620736,-0.672891
1630674795709,-0.37960299999999997,0.618784,-0.670817
1630674795719,-0.378627,0.6180519999999999,-0.671244
1630674795728,-0.37838299999999997,0.618174,-0.669841
1630674795738,-0.378017,0.618296,-0.667706
1630674795747,-0.37777299999999997,0.6177469999999999,-0.666059
1630674795757,-0.37685799999999997,0.6174419999999999,-0.666303
1630674795767,-0.376492,0.617503,-0.666913
1630674795776,-0.376614,0.615856,-0.668377
1630674795786,-0.37685799999999997,0.61549,-0.669719
1630674795795,-0.37716299999999997,0.614209,-0.669353
1630674795805,-0.37716299999999997,0.614514,-0.670878
1630674795815,-0.378139,0.615063,-0.671793
1630674795824,-0.378749,0.61671,-0.672586
1630674795834,-0.37942,0.61854,-0.672281
1630674795843,-0.379481,0.619455,-0.670634
1630674795853,-0.379664,0.620858,-0.669353
1630674795863,-0.379847,0.621834,-0.669048
1630674795872,-0.378566,0.62098,-0.667096
1630674795882,-0.377712,0.620675,-0.666059
1630674795891,-0.378505,0.62037,-0.6642899999999999
1630674795901,-0.378444,0.62098,-0.6642899999999999
1630674795911,-0.378322,0.620065,-0.665632
1630674795920,-0.377224,0.622688,-0.668194
1630674795930,-0.376431,0.621834,-0.670573
1630674795939,-0.377834,0.619943,-0.671
1630674795949,-0.376919,0.61732,-0.671915
1630674795959,-0.377346,0.616466,-0.672891
1630674795968,-0.378017,0.615978,-0.673989
1630674795978,-0.377407,0.615978,-0.673501
1630674795987,-0.37759,0.616771,-0.671915
1630674795997,-0.376736,0.618418,-0.671976
1630674796007,-0.37746799999999997,0.61976,-0.671366
1630674796016,-0.378261,0.6198819999999999,-0.671
1630674796026,-0.37759,0.619943,-0.670695
1630674796035,-0.37807799999999997,0.6195769999999999,-0.670024
1630674796045,-0.37777299999999997,0.6198819999999999,-0.670451
1630674796055,-0.378627,0.619943,-0.669902
1630674796064,-0.378139,0.6195769999999999,-0.669414
1630674796074,-0.379176,0.619943,-0.668377
1630674796083,-0.37838299999999997,0.619333,-0.6673399999999999
1630674796093,-0.378017,0.619516,-0.668377
1630674796103,-0.37807799999999997,0.6186619999999999,-0.6676449999999999
1630674796112,-0.376736,0.619394,-0.667767
1630674796122,-0.377285,0.618723,-0.6679499999999999
1630674796131,-0.37746799999999997,0.6186619999999999,-0.6682549999999999
1630674796141,-0.377407,0.617991,-0.667401
1630674796151,-0.377041,0.617869,-0.669048
1630674796160,-0.377285,0.6174419999999999,-0.668987
1630674796170,-0.37698,0.6168319999999999,-0.669597
1630674796179,-0.376797,0.616161,-0.669902
1630674796189,-0.37746799999999997,0.6153069999999999,-0.670817
1630674796199,-0.377285,0.616649,-0.671671
1630674796208,-0.37759,0.616466,-0.673135
1630674796218,-0.377041,0.616771,-0.672586
1630674796227,-0.37807799999999997,0.617015,-0.673074
1630674796237,-0.37746799999999997,0.61671,-0.67344
1630674796247,-0.377834,0.61732,-0.67344
1630674796256,-0.37777299999999997,0.6168319999999999,-0.674294
1630674796266,-0.377529,0.6174419999999999,-0.67405
1630674796275,-0.37685799999999997,0.616405,-0.673623
1630674796285,-0.37881,0.6161,-0.673501
1630674796295,-0.37807799999999997,0.615185,-0.673562
1630674796304,-0.377529,0.615734,-0.674477
1630674796314,-0.37807799999999997,0.615185,-0.674233
1630674796323,-0.377224,0.6143919999999999,-0.674477
1630674796333,-0.37746799999999997,0.6137819999999999,-0.675697
1630674796343,-0.376919,0.6134769999999999,-0.676551
1630674796352,-0.376797,0.614941,-0.675209
1630674796362,-0.37637,0.615368,-0.676368
1630674796371,-0.37685799999999997,0.615185,-0.676795
1630674796381,-0.376614,0.615734,-0.677039
1630674796391,-0.376309,0.615856,-0.674111
1630674796400,-0.37698,0.614941,-0.67161
1630674796410,-0.376614,0.615429,-0.671976
1630674796419,-0.376309,0.61671,-0.671305
1630674796429,-0.37563799999999997,0.615673,-0.67405
1630674796439,-0.375699,0.614819,-0.674477
1630674796448,-0.37637,0.612745,-0.673318
1630674796458,-0.376736,0.610061,-0.672708
1630674796467,-0.37746799999999997,0.610549,-0.67283
1630674796477,-0.37899299999999997,0.612806,-0.674172
1630674796487,-0.378444,0.615368,-0.67527
1630674796496,-0.377102,0.617991,-0.677344
1630674796506,-0.37777299999999997,0.620004,-0.677649
1630674796515,-0.3782,0.618418,-0.675575
1630674796525,-0.378139,0.617564,-0.67344
1630674796535,-0.37685799999999997,0.616039,-0.672342
1630674796544,-0.376736,0.6153069999999999,-0.671
1630674796554,-0.377651,0.615185,-0.669231
1630674796563,-0.377529,0.6153069999999999,-0.668926
1630674796573,-0.377712,0.616039,-0.6688649999999999
1630674796583,-0.37594299999999997,0.615734,-0.671305
1630674796592,-0.37563799999999997,0.6146969999999999,-0.672891
1630674796602,-0.376187,0.61366,-0.675209
1630674796611,-0.377041,0.6122569999999999,-0.674538
1630674796621,-0.378017,0.612379,-0.67466
1630674796631,-0.377651,0.6131719999999999,-0.675697
1630674796640,-0.378444,0.614514,-0.674965
1630674796650,-0.37942,0.61549,-0.674538
1630674796659,-0.379176,0.6171369999999999,-0.671976
1630674796669,-0.379115,0.618479,-0.670634
1630674796679,-0.37929799999999997,0.61976,-0.670146
1630674796688,-0.377895,0.620004,-0.668926
1630674796698,-0.377102,0.617198,-0.667157
1630674796707,-0.37942,0.619211,-0.6655099999999999
1630674796717,-0.378932,0.618906,-0.665754
1630674796727,-0.377712,0.6180519999999999,-0.667889
1630674796736,-0.37576,0.6186619999999999,-0.670695
1630674796746,-0.376797,0.618723,-0.670939
1630674796755,-0.377346,0.616588,-0.670939
1630674796765,-0.377102,0.6150019999999999,-0.672159
1630674796775,-0.377285,0.6140869999999999,-0.673562
1630674796784,-0.37759,0.614636,-0.67527
1630674796794,-0.376736,0.614636,-0.674233
1630674796803,-0.376614,0.6153069999999999,-0.674538
1630674796813,-0.377712,0.616588,-0.674416
1630674796823,-0.377346,0.617503,-0.674538
1630674796832,-0.376919,0.617625,-0.674477
1630674796842,-0.378139,0.618174,-0.673989
1630674796851,-0.37777299999999997,0.617869,-0.674416
1630674796861,-0.37838299999999997,0.617503,-0.673684
1630674796871,-0.37807799999999997,0.617686,-0.674355
1630674796880,-0.37868799999999997,0.6165269999999999,-0.673806
1630674796890,-0.37759,0.617198,-0.672891
1630674796899,-0.377224,0.617076,-0.673745
1630674796909,-0.37576,0.6159169999999999,-0.673806
1630674796919,-0.375272,0.615124,-0.672525
1630674796928,-0.375211,0.614758,-0.673684
1630674796938,-0.376004,0.61549,-0.673013
1630674796947,-0.374723,0.613904,-0.672708
1630674796957,-0.375516,0.613416,-0.67283
1630674796967,-0.37594299999999997,0.612806,-0.671305
1630674796976,-0.375882,0.6131719999999999,-0.67222
1630674796986,-0.376004,0.6128669999999999,-0.672952
1630674796995,-0.376919,0.614148,-0.672586
1630674797005,-0.376919,0.6140869999999999,-0.672342
1630674797015,-0.376675,0.614209,-0.67161
1630674797024,-0.377102,0.61427,-0.671976
1630674797034,-0.377834,0.614026,-0.671793
1630674797043,-0.3782,0.614636,-0.672159
1630674797053,-0.37777299999999997,0.614941,-0.673074
1630674797063,-0.378871,0.615246,-0.672342
1630674797072,-0.378871,0.615063,-0.672708
1630674797082,-0.379176,0.6143919999999999,-0.67405
1630674797091,-0.379969,0.612684,-0.674233
1630674797101,-0.379481,0.612196,-0.674355
1630674797111,-0.37960299999999997,0.612379,-0.675148
1630674797120,-0.379786,0.612135,-0.676429
1630674797130,-0.37942,0.612684,-0.676917
1630674797139,-0.379481,0.6122569999999999,-0.676795
1630674797149,-0.38021299999999997,0.6119519999999999,-0.677222
1630674797159,-0.379054,0.613111,-0.677466
1630674797168,-0.37899299999999997,0.613965,-0.67771
1630674797178,-0.378444,0.613904,-0.677588
1630674797187,-0.378444,0.614331,-0.678564
1630674797197,-0.377956,0.613599,-0.678564
1630674797207,-0.37759,0.612684,-0.676856
1630674797216,-0.377346,0.613843,-0.675026
1630674797226,-0.37716299999999997,0.614819,-0.676185
1630674797235,-0.375577,0.61488,-0.678137
1630674797245,-0.37515,0.61366,-0.678015
1630674797255,-0.375394,0.612928,-0.676246
1630674797264,-0.373991,0.6113419999999999,-0.674965
1630674797274,-0.374723,0.609695,-0.673257
1630674797283,-0.37624799999999997,0.61305,-0.673257
1630674797293,-0.37594299999999997,0.615368,-0.674355
1630674797303,-0.37655299999999997,0.618296,-0.675453
1630674797312,-0.374906,0.621285,-0.677405
1630674797322,-0.374967,0.622444,-0.6794789999999999
1630674797331,-0.373686,0.620736,-0.6771
1630674797341,-0.373076,0.619455,-0.675514
1630674797351,-0.372039,0.6186619999999999,-0.672464
1630674797360,-0.369904,0.617198,-0.670268
1630674797370,-0.368013,0.617259,-0.668316
1630674797379,-0.366732,0.616344,-0.667523
1630674797389,-0.36484099999999997,0.615246,-0.6679499999999999
1630674797399,-0.363316,0.6150019999999999,-0.6682549999999999
1630674797408,-0.363316,0.61122,-0.668438
1630674797418,-0.362706,0.6092069999999999,-0.670573
1630674797427,-0.365024,0.6079869999999999,-0.673989
1630674797437,-0.365573,0.609329,-0.676551
1630674797447,-0.367647,0.609634,-0.679357
1630674797456,-0.368745,0.61183,-0.681675
1630674797466,-0.36972099999999997,0.613721,-0.682041
1630674797475,-0.37088,0.61549,-0.681492
1630674797485,-0.371368,0.615978,-0.681187
1630674797495,-0.371795,0.6165269999999999,-0.680455
1630674797504,-0.370819,0.61427,-0.676673
1630674797514,-0.37332,0.6180519999999999,-0.673684
1630674797523,-0.374357,0.618296,-0.672464
1630674797533,-0.372832,0.619455,-0.671976
1630674797543,-0.3721,0.6192719999999999,-0.673989
1630674797552,-0.372832,0.619028,-0.675026
1630674797562,-0.373076,0.616954,-0.674538
1630674797571,-0.373564,0.614758,-0.675636
1630674797581,-0.375272,0.61305,-0.677893
1630674797591,-0.374418,0.61305,-0.680028
1630674797600,-0.376126,0.612013,-0.6822239999999999
1630674797610,-0.376614,0.6128669999999999,-0.683261
1630674797619,-0.37637,0.6131719999999999,-0.684176
1630674797629,-0.37563799999999997,0.612501,-0.684115
1630674797639,-0.377346,0.613721,-0.684176
1630674797648,-0.37746799999999997,0.614636,-0.683017
1630674797658,-0.377285,0.614514,-0.682346
1630674797667,-0.377346,0.614514,-0.681431
1630674797677,-0.377346,0.615673,-0.680333
1630674797687,-0.376004,0.615124,-0.677161
1630674797696,-0.376675,0.615429,-0.676124
1630674797706,-0.376736,0.614636,-0.675941
1630674797715,-0.37594299999999997,0.614148,-0.676185
1630674797725,-0.374357,0.6137819999999999,-0.675575
1630674797735,-0.374052,0.6134769999999999,-0.675758
1630674797744,-0.374052,0.611281,-0.67588
1630674797754,-0.374601,0.610244,-0.676185
1630674797763,-0.374235,0.609268,-0.676673
1630674797773,-0.374174,0.609695,-0.675819
1630674797783,-0.373808,0.609878,-0.676673
1630674797792,-0.374296,0.609939,-0.677039
1630674797802,-0.372954,0.609329,-0.676978
1630674797811,-0.373747,0.610061,-0.676368
1630674797821,-0.373137,0.610244,-0.675941
1630674797831,-0.373442,0.609756,-0.675209
1630674797840,-0.372222,0.609573,-0.675941
1630674797850,-0.37271,0.60878,-0.677344
1630674797859,-0.373198,0.6110369999999999,-0.679296
1630674797869,-0.37393,0.609878,-0.679418
1630674797879,-0.374601,0.609878,-0.679906
1630674797888,-0.374967,0.610915,-0.680882
1630674797898,-0.37515,0.609756,-0.680577
1630674797907,-0.374845,0.609268,-0.680882
1630674797917,-0.374967,0.610671,-0.6822239999999999
1630674797927,-0.375821,0.611464,-0.683017
1630674797936,-0.374052,0.610976,-0.68259
1630674797946,-0.375028,0.610915,-0.681492
1630674797955,-0.374784,0.611464,-0.68259
1630674797965,-0.374723,0.6116469999999999,-0.6837489999999999
1630674797975,-0.374357,0.611525,-0.682346
1630674797984,-0.374235,0.611891,-0.681187
1630674797994,-0.37393,0.612318,-0.679967
1630674798003,-0.372588,0.613599,-0.677893
1630674798013,-0.372832,0.615246,-0.678564
1630674798023,-0.371307,0.611708,-0.67954
1630674798032,-0.371063,0.61122,-0.678808
1630674798042,-0.371612,0.611159,-0.675575
1630674798051,-0.37149,0.605852,-0.674843
1630674798061,-0.37393,0.608414,-0.674477
1630674798071,-0.373808,0.612684,-0.676246
1630674798080,-0.374967,0.61671,-0.677954
1630674798090,-0.376004,0.62037,-0.67954
1630674798099,-0.374784,0.621041,-0.68015
1630674798109,-0.374418,0.618601,-0.678869
1630674798119,-0.37393,0.615368,-0.67649
1630674798128,-0.37393,0.613294,-0.673867
1630674798138,-0.372771,0.612501,-0.672647
1630674798147,-0.372344,0.612196,-0.670573
1630674798157,-0.374174,0.613294,-0.669048
1630674798167,-0.373991,0.614819,-0.669719
1630674798176,-0.374174,0.61488,-0.670634
1630674798186,-0.375028,0.616161,-0.672342
1630674798195,-0.375577,0.6146969999999999,-0.673806
1630674798205,-0.376492,0.613355,-0.674599
1630674798215,-0.376187,0.612074,-0.67527
1630674798224,-0.377224,0.611891,-0.675453
1630674798234,-0.377895,0.614026,-0.67588
1630674798243,-0.378932,0.614758,-0.675697
1630674798253,-0.37838299999999997,0.615551,-0.674294
1630674798263,-0.37807799999999997,0.616161,-0.67222
1630674798272,-0.37838299999999997,0.61732,-0.672037
1630674798282,-0.378139,0.617869,-0.671549
1630674798291,-0.37777299999999997,0.616161,-0.669231
1630674798301,-0.378871,0.61793,-0.668316
1630674798311,-0.379176,0.618601,-0.668377
1630674798320,-0.377041,0.620248,-0.670207
1630674798330,-0.376187,0.620675,-0.672342
1630674798339,-0.377041,0.619638,-0.672159
1630674798349,-0.37655299999999997,0.617686,-0.670756
1630674798359,-0.37594299999999997,0.616588,-0.671793
1630674798368,-0.375455,0.616039,-0.672769
1630674798378,-0.376065,0.615978,-0.673074
1630674798387,-0.374967,0.615429,-0.67283
1630674798397,-0.373503,0.617015,-0.67283
1630674798407,-0.374174,0.61854,-0.673318
1630674798416,-0.373442,0.617686,-0.673318
1630674798426,-0.372893,0.61854,-0.674111
1630674798435,-0.37271,0.6180519999999999,-0.673745
1630674798445,-0.373076,0.6174419999999999,-0.673684
1630674798455,-0.373076,0.619455,-0.673806
1630674798464,-0.374052,0.6189669999999999,-0.672708
1630674798474,-0.372649,0.61915,-0.672525
1630674798483,-0.372344,0.619455,-0.672342
1630674798493,-0.371978,0.619455,-0.672281
1630674798503,-0.371185,0.619516,-0.671671
1630674798512,-0.371429,0.6195769999999999,-0.671915
1630674798522,-0.37149,0.6198819999999999,-0.672281
1630674798531,-0.371734,0.6204919999999999,-0.671
1630674798541,-0.371429,0.620431,-0.670817
1630674798551,-0.371002,0.620309,-0.670451
1630674798560,-0.370392,0.619455,-0.672098
1630674798570,-0.37094099999999997,0.6186619999999999,-0.671122
1630674798579,-0.370819,0.6183569999999999,-0.670939
1630674798589,-0.370148,0.618113,-0.672281
1630674798599,-0.370819,0.617564,-0.67161
1630674798608,-0.371002,0.617808,-0.671915
1630674798618,-0.37063599999999997,0.617503,-0.671366
1630674798627,-0.371734,0.618784,-0.671732
1630674798637,-0.370819,0.61854,-0.672098
1630674798647,-0.372649,0.618296,-0.673684
1630674798656,-0.371917,0.619028,-0.673013
1630674798666,-0.372527,0.61854,-0.673196
1630674798675,-0.372466,0.618174,-0.673379
1630674798685,-0.372466,0.61976,-0.67344
1630674798695,-0.372771,0.61915,-0.673379
1630674798704,-0.372283,0.618906,-0.673745
1630674798714,-0.371734,0.6189669999999999,-0.673501
1630674798723,-0.371429,0.6192719999999999,-0.675087
1630674798733,-0.371063,0.618845,-0.673806
1630674798743,-0.371978,0.617259,-0.674416
1630674798752,-0.372161,0.618296,-0.675575
1630674798762,-0.371185,0.617259,-0.675636
1630674798771,-0.37088,0.6171369999999999,-0.674599
1630674798781,-0.370209,0.618296,-0.673196
1630674798791,-0.370514,0.618723,-0.674111
1630674798800,-0.37033099999999997,0.616893,-0.676856
1630674798810,-0.37088,0.616039,-0.6791739999999999
1630674798819,-0.372832,0.613355,-0.677405
1630674798829,-0.372832,0.6113419999999999,-0.67832
1630674798839,-0.373686,0.612318,-0.676734
1630674798848,-0.374906,0.616039,-0.678381
1630674798858,-0.375272,0.617686,-0.678442
1630674798867,-0.375455,0.620858,-0.677527
1630674798877,-0.376309,0.622078,-0.6771
1630674798887,-0.375882,0.623054,-0.674965
1630674798896,-0.376126,0.621834,-0.673074
1630674798906,-0.374784,0.622017,-0.671244
1630674798915,-0.374357,0.620431,-0.668682
1630674798925,-0.373198,0.6207969999999999,-0.666303
1630674798935,-0.372405,0.6204919999999999,-0.6655099999999999
1630674798944,-0.370758,0.62098,-0.665083
1630674798954,-0.369538,0.6207969999999999,-0.665571
1630674798963,-0.37033099999999997,0.619638,-0.666242
1630674798973,-0.37027,0.618235,-0.666364
1630674798983,-0.370087,0.616954,-0.669048
1630674798992,-0.37063599999999997,0.617198,-0.671
1630674799002,-0.37033099999999997,0.617686,-0.671732
1630674799011,-0.37027,0.6192719999999999,-0.672952
1630674799021,-0.37155099999999996,0.620248,-0.673684
1630674799031,-0.37124599999999996,0.621651,-0.672891
1630674799040,-0.370758,0.6214069999999999,-0.672281
1630674799050,-0.371063,0.622749,-0.67222
1630674799059,-0.371368,0.623359,-0.672281
1630674799069,-0.37027,0.621895,-0.671305
1630674799079,-0.370697,0.622017,-0.668621
1630674799088,-0.370758,0.622749,-0.668011
1630674799098,-0.369965,0.623237,-0.668499
1630674799107,-0.36844,0.624457,-0.671
1630674799117,-0.368135,0.623237,-0.672159
1630674799127,-0.369904,0.621712,-0.672037
1630674799136,-0.369172,0.620431,-0.673074
1630674799146,-0.36905,0.620309,-0.675026
1630674799155,-0.36880599999999997,0.619089,-0.674843
1630674799165,-0.368989,0.618296,-0.674904
1630674799175,-0.369843,0.620126,-0.673806
1630674799184,-0.37027,0.621041,-0.673257
1630674799194,-0.369904,0.6214069999999999,-0.674477
1630674799203,-0.369843,0.621468,-0.673806
1630674799213,-0.369965,0.621163,-0.673806
1630674799223,-0.37094099999999997,0.621834,-0.673257
1630674799232,-0.37088,0.621651,-0.672586
1630674799242,-0.370392,0.622688,-0.673135
1630674799251,-0.37149,0.622688,-0.673135
1630674799261,-0.37088,0.623176,-0.671366
1630674799271,-0.371673,0.623298,-0.669841
1630674799280,-0.370148,0.623176,-0.6694749999999999
1630674799290,-0.37002599999999997,0.623237,-0.669353
1630674799299,-0.370819,0.622566,-0.668316
1630674799309,-0.37027,0.622566,-0.6679499999999999
1630674799319,-0.37033099999999997,0.620553,-0.668743
1630674799328,-0.369782,0.6198819999999999,-0.6685599999999999
1630674799338,-0.369843,0.618601,-0.6691699999999999
1630674799347,-0.369904,0.619516,-0.670451
1630674799357,-0.37094099999999997,0.618784,-0.671976
1630674799367,-0.371612,0.6177469999999999,-0.672647
1630674799376,-0.371368,0.617686,-0.673745
1630674799386,-0.371185,0.618113,-0.673745
1630674799395,-0.371856,0.6180519999999999,-0.674172
1630674799405,-0.372588,0.618784,-0.673562
1630674799415,-0.371795,0.617564,-0.673379
1630674799424,-0.371978,0.619028,-0.672891
1630674799434,-0.373076,0.619638,-0.671793
1630674799443,-0.372954,0.61915,-0.671732
1630674799453,-0.372771,0.619394,-0.671854
1630674799463,-0.372161,0.618601,-0.672586
1630674799472,-0.372466,0.6183569999999999,-0.673257
1630674799482,-0.373076,0.618601,-0.673928
1630674799491,-0.372527,0.617808,-0.67527
1630674799501,-0.371978,0.6165269999999999,-0.67649
1630674799511,-0.37088,0.617198,-0.677161
1630674799520,-0.371978,0.617869,-0.678259
1630674799530,-0.372039,0.617381,-0.678991
1630674799539,-0.372222,0.617076,-0.67893
1630674799549,-0.37124599999999996,0.617015,-0.67771
1630674799559,-0.370758,0.616161,-0.675514
1630674799568,-0.37088,0.617381,-0.673806
1630674799578,-0.370819,0.617991,-0.675148
1630674799587,-0.36941599999999997,0.6177469999999999,-0.676063
1630674799597,-0.369294,0.616771,-0.676185
1630674799607,-0.37124599999999996,0.61427,-0.674721
1630674799616,-0.369965,0.611769,-0.674538
1630674799626,-0.372039,0.612989,-0.675758
1630674799635,-0.373198,0.615368,-0.677893
1630674799645,-0.372527,0.618418,-0.679845
1630674799655,-0.3721,0.622444,-0.6825289999999999
1630674799664,-0.371734,0.623481,-0.68259
1630674799674,-0.372466,0.621224,-0.679052
1630674799683,-0.37155099999999996,0.6186619999999999,-0.676246
1630674799693,-0.37155099999999996,0.6180519999999999,-0.674294
1630674799703,-0.37088,0.617198,-0.674599
1630674799712,-0.370209,0.616771,-0.673135
1630674799722,-0.370819,0.6165269999999999,-0.672281
1630674799731,-0.36972099999999997,0.616649,-0.673928
1630674799741,-0.369294,0.616954,-0.675209
1630674799751,-0.37027,0.615734,-0.675575
1630674799760,-0.370087,0.615368,-0.676063
1630674799770,-0.371978,0.615185,-0.676307
1630674799779,-0.371978,0.614636,-0.675697
1630674799789,-0.372161,0.616283,-0.675148
1630674799799,-0.373198,0.617198,-0.674538
1630674799808,-0.373076,0.618784,-0.672464
1630674799818,-0.373015,0.619821,-0.671244
1630674799827,-0.373503,0.620309,-0.6682549999999999
1630674799837,-0.373137,0.620004,-0.666547
1630674799847,-0.373442,0.620736,-0.665998
1630674799856,-0.3721,0.619394,-0.664107
1630674799866,-0.373808,0.621895,-0.6630699999999999
1630674799875,-0.373259,0.623176,-0.6636799999999999
1630674799885,-0.373076,0.625311,-0.666791
1630674799895,-0.370148,0.625799,-0.6697799999999999
1630674799904,-0.37063599999999997,0.625189,-0.670939
1630674799914,-0.369843,0.621895,-0.670146
1630674799923,-0.37002599999999997,0.619943,-0.670024
1630674799933,-0.36941599999999997,0.619455,-0.671122
1630674799943,-0.368257,0.618296,-0.672098
1630674799952,-0.368257,0.619516,-0.671183
1630674799962,-0.367403,0.619516,-0.672525
1630674799971,-0.368074,0.619394,-0.67466
1630674799981,-0.367098,0.618845,-0.676307
1630674799991,-0.36789099999999997,0.618723,-0.6794789999999999
1630674800000,-0.36789099999999997,0.619638,-0.680943
1630674800010,-0.369172,0.6204919999999999,-0.6813089999999999
1630674800019,-0.368257,0.619638,-0.6819189999999999
1630674800029,-0.368074,0.620431,-0.680333
1630674800039,-0.36783,0.620919,-0.68015
1630674800048,-0.36728099999999997,0.620675,-0.678381
1630674800058,-0.36667099999999997,0.620309,-0.677527
1630674800067,-0.365878,0.620126,-0.674904
1630674800077,-0.366732,0.620431,-0.674538
1630674800087,-0.36575599999999997,0.6198819999999999,-0.674904
1630674800096,-0.365817,0.6192719999999999,-0.674233
1630674800106,-0.365939,0.618906,-0.674782
1630674800115,-0.365512,0.617808,-0.67466
1630674800125,-0.365024,0.616954,-0.675148
1630674800135,-0.365085,0.6161,-0.674782
1630674800144,-0.366122,0.616283,-0.675392
1630674800154,-0.366244,0.616283,-0.67588
1630674800163,-0.366732,0.61549,-0.675087
1630674800173,-0.36636599999999997,0.615185,-0.675697
1630674800183,-0.366793,0.615856,-0.674599
1630674800192,-0.36783,0.616954,-0.675331
1630674800202,-0.36844,0.61732,-0.675331
1630674800211,-0.368562,0.617686,-0.674721
1630674800221,-0.368867,0.617808,-0.675209
1630674800231,-0.368867,0.61671,-0.673989
1630674800240,-0.36966,0.616954,-0.673745
1630674800250,-0.369172,0.616588,-0.674416
1630674800259,-0.370697,0.61671,-0.675636
1630674800269,-0.368928,0.617015,-0.675636
1630674800279,-0.37002599999999997,0.616405,-0.676734
1630674800288,-0.369538,0.615185,-0.676429
1630674800298,-0.36911099999999997,0.614941,-0.677222
1630674800307,-0.368684,0.615673,-0.67893
1630674800317,-0.369599,0.613904,-0.679418
1630674800327,-0.37088,0.614148,-0.68076
1630674800336,-0.371063,0.613904,-0.6806989999999999
1630674800346,-0.371063,0.612196,-0.6791739999999999
1630674800355,-0.372283,0.614026,-0.6803939999999999
1630674800365,-0.37155099999999996,0.614819,-0.682468
1630674800375,-0.37155099999999996,0.613355,-0.684115
1630674800384,-0.372283,0.612623,-0.6846639999999999
1630674800394,-0.372771,0.613233,-0.6831389999999999
1630674800403,-0.372466,0.609939,-0.680882
1630674800413,-0.372954,0.610488,-0.681248
1630674800423,-0.371612,0.6156119999999999,-0.682468
1630674800432,-0.368928,0.620309,-0.684298
1630674800442,-0.366183,0.621224,-0.684542
1630674800451,-0.366915,0.619821,-0.683566
1630674800461,-0.363804,0.615856,-0.6810039999999999
1630674800471,-0.360144,0.610671,-0.679418
1630674800480,-0.359412,0.608109,-0.680028
1630674800490,-0.35861899999999997,0.607133,-0.682041
1630674800499,-0.359412,0.606035,-0.682651
1630674800509,-0.360693,0.605364,-0.684115
1630674800519,-0.36112,0.60695,-0.6852739999999999
1630674800528,-0.362401,0.607804,-0.688202
1630674800538,-0.363072,0.607194,-0.68808
1630674800547,-0.365024,0.60634,-0.686677
1630674800557,-0.36667099999999997,0.607865,-0.685823
1630674800567,-0.368257,0.607926,-0.684908
1630674800576,-0.368257,0.61061,-0.682773
1630674800586,-0.370392,0.612196,-0.680028
1630674800595,-0.371978,0.614514,-0.677771
1630674800605,-0.371795,0.615734,-0.675636
1630674800615,-0.371612,0.6162219999999999,-0.673867
1630674800624,-0.372344,0.617564,-0.672342
1630674800634,-0.372466,0.61732,-0.673135
1630674800643,-0.373076,0.6146969999999999,-0.670268
1630674800653,-0.37533299999999997,0.617991,-0.6700849999999999
1630674800663,-0.374723,0.616954,-0.671793
1630674800672,-0.373747,0.6186619999999999,-0.674599
1630674800682,-0.37332,0.618845,-0.677588
1630674800691,-0.37332,0.615368,-0.677466
1630674800701,-0.374601,0.614026,-0.677405
1630674800711,-0.373198,0.6134769999999999,-0.6794789999999999
1630674800720,-0.372588,0.61427,-0.6813089999999999
1630674800730,-0.372344,0.614209,-0.679967
1630674800739,-0.371002,0.615734,-0.679662
1630674800749,-0.37033099999999997,0.6174419999999999,-0.679723
1630674800759,-0.37002599999999997,0.617808,-0.679235
1630674800768,-0.369599,0.618784,-0.67954
1630674800778,-0.368562,0.617564,-0.67954
1630674800787,-0.368074,0.618235,-0.678686
1630674800797,-0.36789099999999997,0.618479,-0.677771
1630674800807,-0.36636599999999997,0.618418,-0.677527
1630674800816,-0.366122,0.6180519999999999,-0.676856
1630674800826,-0.36606099999999997,0.6180519999999999,-0.676124
1630674800835,-0.364902,0.618113,-0.676734
1630674800845,-0.365207,0.618418,-0.677039
1630674800855,-0.36417,0.6174419999999999,-0.676673
1630674800864,-0.364475,0.616954,-0.677405
1630674800874,-0.364414,0.6162219999999999,-0.677405
1630674800883,-0.364292,0.6156119999999999,-0.677954
1630674800893,-0.363255,0.6146969999999999,-0.677405
1630674800903,-0.364048,0.6150019999999999,-0.678137
1630674800912,-0.363438,0.614819,-0.677161
1630674800922,-0.36392599999999997,0.613416,-0.678747
1630674800931,-0.364048,0.613111,-0.677954
1630674800941,-0.36478,0.612196,-0.678137
1630674800951,-0.364963,0.612745,-0.679052
1630674800960,-0.365634,0.612379,-0.6794789999999999
1630674800970,-0.366427,0.613416,-0.680882
1630674800979,-0.367037,0.613721,-0.6810039999999999
1630674800989,-0.368135,0.613416,-0.680882
1630674800999,-0.367952,0.6143919999999999,-0.679113
1630674801008,-0.368623,0.613904,-0.679052
1630674801018,-0.368318,0.61366,-0.678686
1630674801027,-0.369477,0.6125619999999999,-0.678381
1630674801037,-0.369843,0.6134769999999999,-0.678198
1630674801047,-0.370453,0.61366,-0.678015
1630674801056,-0.370758,0.6140869999999999,-0.679906
1630674801066,-0.371063,0.613294,-0.679052
1630674801075,-0.37149,0.613904,-0.678564
1630674801085,-0.371673,0.6131719999999999,-0.678076
1630674801095,-0.371856,0.612379,-0.679601
1630674801104,-0.371795,0.612318,-0.680516
1630674801114,-0.371978,0.611525,-0.67954
1630674801123,-0.371978,0.61122,-0.67893
1630674801133,-0.373076,0.611525,-0.679967
1630674801143,-0.372405,0.610976,-0.68259
1630674801152,-0.37149,0.610671,-0.683871
1630674801162,-0.373198,0.610854,-0.6831389999999999
1630674801171,-0.373869,0.609146,-0.680882
1630674801181,-0.372588,0.60756,-0.678991
1630674801191,-0.37454,0.609695,-0.679601
1630674801200,-0.374845,0.611159,-0.6797839999999999
1630674801210,-0.374418,0.613843,-0.678991
1630674801219,-0.374662,0.6171369999999999,-0.6797839999999999
1630674801229,-0.374357,0.617564,-0.681736
1630674801239,-0.373625,0.6161,-0.679052
1630674801248,-0.373808,0.6150019999999999,-0.677222
1630674801258,-0.374235,0.614026,-0.677039
1630674801267,-0.372222,0.6131719999999999,-0.676063
1630674801277,-0.372771,0.613233,-0.67527
1630674801287,-0.373076,0.613355,-0.675026
1630674801296,-0.372527,0.614453,-0.675392
1630674801306,-0.372588,0.6137819999999999,-0.676673
1630674801315,-0.372893,0.612745,-0.676124
1630674801325,-0.373564,0.612135,-0.676673
1630674801335,-0.37332,0.611098,-0.675636
1630674801344,-0.373625,0.612745,-0.675819
1630674801354,-0.374174,0.612501,-0.674233
1630674801363,-0.374113,0.615246,-0.676002
1630674801373,-0.37271,0.616771,-0.676734
1630674801383,-0.374296,0.6171369999999999,-0.672891
1630674801392,-0.37393,0.617198,-0.671488
1630674801402,-0.373381,0.618113,-0.671854
1630674801411,-0.3721,0.6177469999999999,-0.672769
1630674801421,-0.37155099999999996,0.617259,-0.6685599999999999
1630674801431,-0.374174,0.619699,-0.665693
1630674801440,-0.374845,0.620614,-0.665327
1630674801450,-0.373076,0.621529,-0.666608
1630674801459,-0.372039,0.622444,-0.670268
1630674801469,-0.37271,0.621712,-0.671854
1630674801479,-0.372893,0.619699,-0.672708
1630674801488,-0.372222,0.61671,-0.673928
1630674801498,-0.373564,0.615368,-0.673684
1630674801507,-0.372344,0.6153069999999999,-0.674294
1630674801517,-0.372954,0.616283,-0.673867
1630674801527,-0.372466,0.6159169999999999,-0.673623
1630674801536,-0.373076,0.616771,-0.673562
1630674801546,-0.372771,0.61732,-0.673989
1630674801555,-0.372222,0.61793,-0.674477
1630674801565,-0.371612,0.616954,-0.675575
1630674801575,-0.371368,0.6171369999999999,-0.676673
1630674801584,-0.37393,0.617381,-0.676612
1630674801594,-0.372527,0.616954,-0.676612
1630674801603,-0.372405,0.6177469999999999,-0.676307
1630674801613,-0.372588,0.617808,-0.676246
1630674801623,-0.37332,0.617869,-0.676002
1630674801632,-0.373198,0.6180519999999999,-0.675514
1630674801642,-0.373015,0.6186619999999999,-0.674355
1630674801651,-0.373686,0.6183569999999999,-0.673379
1630674801661,-0.373198,0.617686,-0.67283
1630674801671,-0.373564,0.616954,-0.673318
1630674801680,-0.37271,0.616344,-0.673257
1630674801690,-0.372954,0.6156119999999999,-0.67466
1630674801699,-0.372954,0.614453,-0.674294
1630674801709,-0.373137,0.6137819999999999,-0.67527
1630674801719,-0.373808,0.613965,-0.674782
1630674801728,-0.374052,0.6134769999999999,-0.673501
1630674801738,-0.37393,0.6134769999999999,-0.673562
1630674801747,-0.374479,0.613599,-0.673257
1630674801757,-0.375211,0.6137819999999999,-0.673379
1630674801767,-0.374845,0.614575,-0.673318
1630674801776,-0.376065,0.614026,-0.673745
1630674801786,-0.376004,0.613904,-0.67344
1630674801795,-0.37685799999999997,0.6137819999999999,-0.674477
1630674801805,-0.377224,0.6140869999999999,-0.675148
1630674801815,-0.376187,0.613599,-0.674721
1630674801824,-0.376736,0.613843,-0.67527
1630674801834,-0.37698,0.613538,-0.675392
1630674801843,-0.376492,0.6128669999999999,-0.676307
1630674801853,-0.376919,0.6140869999999999,-0.675697
1630674801863,-0.37637,0.613416,-0.675087
1630674801872,-0.376065,0.613721,-0.676917
1630674801882,-0.376309,0.613599,-0.67771
1630674801891,-0.376797,0.612806,-0.678686
1630674801901,-0.376187,0.612806,-0.678747
1630674801911,-0.375394,0.612806,-0.678076
1630674801920,-0.376736,0.6131719999999999,-0.677344
1630674801930,-0.375882,0.61305,-0.680516
1630674801939,-0.373442,0.612684,-0.682102
1630674801949,-0.374967,0.612135,-0.681248
1630674801959,-0.374662,0.610488,-0.679906
1630674801968,-0.374174,0.60878,-0.679357
1630674801978,-0.37594299999999997,0.609695,-0.6791739999999999
1630674801987,-0.376004,0.6113419999999999,-0.678991
1630674801997,-0.374845,0.614331,-0.67954
1630674802007,-0.373991,0.6174419999999999,-0.68137
1630674802016,-0.37393,0.6186619999999999,-0.681065
1630674802026,-0.374052,0.617198,-0.680272
1630674802035,-0.373991,0.615368,-0.678198
1630674802045,-0.373076,0.614514,-0.677466
1630674802055,-0.372344,0.61366,-0.677405
1630674802064,-0.371917,0.6122569999999999,-0.675575
1630674802074,-0.37124599999999996,0.6128669999999999,-0.674599
1630674802083,-0.371124,0.613294,-0.675453
1630674802093,-0.36966,0.612806,-0.675209
1630674802103,-0.369477,0.6113419999999999,-0.676002
1630674802112,-0.37124599999999996,0.61061,-0.675758
1630674802122,-0.370697,0.610366,-0.677222
1630674802131,-0.371673,0.610183,-0.678686
1630674802141,-0.371002,0.611464,-0.677466
1630674802151,-0.371612,0.6128669999999999,-0.677954
1630674802160,-0.371368,0.613599,-0.6771
1630674802170,-0.372466,0.614758,-0.675453
1630674802179,-0.373686,0.615368,-0.674233
1630674802189,-0.373198,0.616954,-0.674172
1630674802199,-0.371673,0.617808,-0.673989
1630674802208,-0.371124,0.615795,-0.672403
1630674802218,-0.372344,0.616283,-0.671427
1630674802227,-0.374174,0.6156119999999999,-0.670939
1630674802237,-0.372466,0.6156119999999999,-0.672464
1630674802247,-0.371429,0.616405,-0.676795
1630674802256,-0.370697,0.617198,-0.679052
1630674802266,-0.371063,0.615551,-0.67893
1630674802275,-0.371856,0.6150019999999999,-0.678564
1630674802285,-0.370758,0.614331,-0.678381
1630674802295,-0.371002,0.614575,-0.679662
1630674802304,-0.3721,0.613904,-0.678747
1630674802314,-0.37155099999999996,0.614819,-0.67893
1630674802323,-0.372222,0.614148,-0.679113
1630674802333,-0.3721,0.614636,-0.679906
1630674802343,-0.372832,0.614941,-0.678991
1630674802352,-0.372344,0.614514,-0.678564
1630674802362,-0.372039,0.61366,-0.679052
1630674802371,-0.372466,0.61427,-0.679967
1630674802381,-0.371673,0.6150019999999999,-0.680211
1630674802391,-0.372771,0.6150019999999999,-0.678198
1630674802400,-0.37149,0.615246,-0.677649
1630674802410,-0.371063,0.615673,-0.676551
1630674802419,-0.371002,0.6161,-0.675941
1630674802429,-0.371063,0.615673,-0.674721
1630674802439,-0.371368,0.6146969999999999,-0.673074
1630674802448,-0.37124599999999996,0.614331,-0.673318
1630674802458,-0.371856,0.613233,-0.673928
1630674802467,-0.370819,0.612318,-0.674294
1630674802477,-0.371307,0.611586,-0.675514
1630674802487,-0.37094099999999997,0.611403,-0.676917
1630674802496,-0.37149,0.61061,-0.677954
1630674802506,-0.371917,0.610488,-0.678259
1630674802515,-0.372588,0.6095119999999999,-0.676856
1630674802525,-0.372588,0.6095119999999999,-0.678686
1630674802535,-0.372954,0.608353,-0.677832
1630674802544,-0.370758,0.607438,-0.678442
1630674802554,-0.36966,0.60573,-0.680333
1630674802563,-0.36880599999999997,0.606096,-0.68015
1630674802573,-0.369355,0.606096,-0.679357
1630674802583,-0.368684,0.607865,-0.678198
1630674802592,-0.369294,0.60939,-0.678747
1630674802602,-0.36941599999999997,0.610793,-0.678686
1630674802611,-0.370514,0.61122,-0.679601
1630674802621,-0.371612,0.611159,-0.681126
1630674802631,-0.37271,0.610488,-0.6828339999999999
1630674802640,-0.373686,0.6107319999999999,-0.682346
1630674802650,-0.373442,0.610488,-0.683078
1630674802659,-0.374967,0.607926,-0.68198
1630674802669,-0.375455,0.6085969999999999,-0.681675
1630674802679,-0.374784,0.611098,-0.683322
1630674802688,-0.37594299999999997,0.611586,-0.684786
1630674802698,-0.377102,0.611464,-0.684298
1630674802707,-0.377407,0.609268,-0.68503
1630674802717,-0.379237,0.6095119999999999,-0.683932
1630674802727,-0.379176,0.610183,-0.684725
1630674802736,-0.378444,0.608536,-0.685762
1630674802746,-0.378932,0.607194,-0.685152
1630674802755,-0.379786,0.60695,-0.6834439999999999
1630674802765,-0.379115,0.604144,-0.680882
1630674802775,-0.379115,0.602253,-0.677527
1630674802784,-0.38064,0.603778,-0.676856
1630674802794,-0.380152,0.606218,-0.676734
1630674802803,-0.379481,0.609695,-0.677161
1630674802813,-0.37746799999999997,0.612806,-0.679906
1630674802823,-0.377407,0.6119519999999999,-0.678747
1630674802832,-0.376065,0.6079869999999999,-0.678015
1630674802842,-0.375821,0.603778,-0.68015
1630674802851,-0.375882,0.60268,-0.6837489999999999
1630674802861,-0.37624799999999997,0.601094,-0.685335
1630674802871,-0.37655299999999997,0.598837,-0.6843589999999999
1630674802880,-0.376797,0.599752,-0.684481
1630674802890,-0.37655299999999997,0.600972,-0.686555
1630674802899,-0.375394,0.60085,-0.688568
1630674802909,-0.374662,0.598898,-0.689361
1630674802919,-0.374784,0.597434,-0.690642
1630674802928,-0.374174,0.596824,-0.691252
1630674802938,-0.374235,0.595177,-0.691496
1630674802947,-0.375394,0.596397,-0.6919839999999999
1630674802957,-0.374845,0.596885,-0.692838
1630674802967,-0.376004,0.597251,-0.692838
1630674802976,-0.376187,0.597556,-0.69296
1630674802986,-0.377224,0.598715,-0.694302
1630674802995,-0.37624799999999997,0.59963,-0.694912
1630674803005,-0.374052,0.597312,-0.6928989999999999
1630674803015,-0.37637,0.597495,-0.691496
1630674803024,-0.376309,0.598959,-0.689666
1630674803034,-0.376004,0.598593,-0.689056
1630674803043,-0.373076,0.600118,-0.691252
1630674803053,-0.37393,0.600179,-0.691801
1630674803063,-0.374418,0.598044,-0.689971
1630674803072,-0.374784,0.596275,-0.688446
1630674803082,-0.375821,0.593835,-0.689361
1630674803091,-0.376675,0.594384,-0.6916789999999999
1630674803101,-0.377102,0.5961529999999999,-0.694302
1630674803111,-0.37759,0.599081,-0.696437
1630674803120,-0.378444,0.601155,-0.698206
1630674803130,-0.376675,0.600667,-0.698511
1630674803139,-0.37716299999999997,0.600789,-0.696986
1630674803149,-0.375516,0.599752,-0.694851
1630674803159,-0.37515,0.59841,-0.693021
1630674803168,-0.373198,0.598715,-0.691191
1630674803178,-0.373564,0.598837,-0.690093
1630674803187,-0.372161,0.59902,-0.690215
1630674803197,-0.372344,0.599935,-0.689666
1630674803207,-0.372344,0.599752,-0.689056
1630674803216,-0.371734,0.599386,-0.688873
1630674803226,-0.372283,0.598959,-0.689178
1630674803235,-0.371673,0.598715,-0.689666
1630674803245,-0.371002,0.598654,-0.6901539999999999
1630674803255,-0.371612,0.597434,-0.690886
1630674803264,-0.372039,0.597495,-0.6907639999999999
1630674803274,-0.370819,0.5978,-0.689788
1630674803283,-0.37124599999999996,0.597678,-0.6886289999999999
1630674803293,-0.37149,0.599752,-0.687897
1630674803303,-0.372588,0.599874,-0.687653
1630674803312,-0.371795,0.600911,-0.68747
1630674803322,-0.3721,0.601277,-0.686433
1630674803331,-0.371673,0.602497,-0.685518
1630674803341,-0.372344,0.60146,-0.686616
1630674803351,-0.371856,0.602985,-0.68503
1630674803360,-0.372039,0.604876,-0.6846639999999999
1630674803370,-0.371673,0.604815,-0.683627
1630674803379,-0.371734,0.604998,-0.683078
1630674803389,-0.37088,0.605242,-0.683505
1630674803399,-0.371063,0.604998,-0.683871
1630674803408,-0.37094099999999997,0.6039,-0.682956
1630674803418,-0.371856,0.601704,-0.684237
1630674803427,-0.370453,0.601216,-0.685335
1630674803437,-0.369477,0.601643,-0.687348
1630674803447,-0.369294,0.600362,-0.688202
1630674803456,-0.370209,0.601521,-0.689971
1630674803466,-0.369538,0.602741,-0.6898489999999999
1630674803475,-0.370209,0.603351,-0.68991
1630674803485,-0.370392,0.602436,-0.691435
1630674803495,-0.370697,0.602863,-0.691496
1630674803504,-0.370697,0.604205,-0.690032
1630674803514,-0.37155099999999996,0.604144,-0.6893
1630674803523,-0.371734,0.60512,-0.688873
1630674803533,-0.37155099999999996,0.605303,-0.689361
1630674803543,-0.370148,0.603961,-0.689788
1630674803552,-0.371002,0.603656,-0.6889339999999999
1630674803562,-0.37124599999999996,0.60268,-0.687287
1630674803571,-0.37149,0.598349,-0.684908
1630674803581,-0.372893,0.599386,-0.684786
1630674803591,-0.373381,0.602131,-0.687287
1630674803600,-0.373381,0.603595,-0.688446
1630674803610,-0.374113,0.606584,-0.690825
1630674803619,-0.374113,0.607743,-0.6932039999999999
1630674803629,-0.374479,0.605669,-0.693326
1630674803639,-0.374113,0.602924,-0.689727
1630674803648,-0.374662,0.60146,-0.688812
1630674803658,-0.373442,0.601094,-0.68869
1630674803667,-0.373015,0.600728,-0.685396
1630674803677,-0.373686,0.601338,-0.683078
1630674803687,-0.373442,0.603229,-0.683261
1630674803696,-0.373442,0.602985,-0.683688
1630674803706,-0.371978,0.603351,-0.683322
1630674803715,-0.373259,0.603351,-0.68442
1630674803725,-0.374174,0.602253,-0.684115
1630674803735,-0.374296,0.602497,-0.68503
1630674803744,-0.374662,0.602985,-0.685762
1630674803754,-0.374174,0.602619,-0.6849689999999999
1630674803763,-0.37515,0.603656,-0.68564
1630674803773,-0.375272,0.604632,-0.6846639999999999
1630674803783,-0.37533299999999997,0.604998,-0.6840539999999999
1630674803792,-0.376736,0.604022,-0.683932
1630674803802,-0.374906,0.604815,-0.6846639999999999
1630674803811,-0.374052,0.602375,-0.684115
1630674803821,-0.376736,0.603778,-0.6831389999999999
1630674803831,-0.376492,0.603656,-0.683078
1630674803840,-0.37576,0.604388,-0.683871
1630674803850,-0.374113,0.606462,-0.686128
1630674803859,-0.37393,0.607316,-0.6867989999999999
1630674803869,-0.374052,0.606279,-0.685518
1630674803879,-0.373808,0.604632,-0.685213
1630674803888,-0.374174,0.604754,-0.685701
1630674803898,-0.37393,0.604632,-0.685701
1630674803907,-0.373015,0.604144,-0.685152
1630674803917,-0.373381,0.605547,-0.685152
1630674803927,-0.372649,0.606096,-0.684237
1630674803936,-0.371917,0.606889,-0.684115
1630674803946,-0.373259,0.605974,-0.684847
1630674803955,-0.371917,0.605913,-0.684298
1630674803965,-0.372222,0.60573,-0.685091
1630674803975,-0.372161,0.60695,-0.684176
1630674803984,-0.373198,0.606828,-0.685213
1630674803994,-0.372649,0.607011,-0.685091
1630674804003,-0.373259,0.60634,-0.6858839999999999
1630674804013,-0.373015,0.607255,-0.6855789999999999
1630674804023,-0.372954,0.6076819999999999,-0.6855789999999999
1630674804032,-0.372405,0.607255,-0.6858839999999999
1630674804042,-0.371612,0.6085969999999999,-0.683993
1630674804051,-0.371673,0.608048,-0.682102
1630674804061,-0.37088,0.607438,-0.680882
1630674804071,-0.371063,0.607133,-0.679296
1630674804080,-0.371307,0.607194,-0.678137
1630674804090,-0.37149,0.606706,-0.677832
1630674804099,-0.371734,0.607438,-0.677771
1630674804109,-0.37149,0.606096,-0.679296
1630674804119,-0.37332,0.606523,-0.6794789999999999
1630674804128,-0.373381,0.606462,-0.680333
1630674804138,-0.373564,0.605974,-0.681187
1630674804147,-0.37332,0.606706,-0.682651
1630674804157,-0.373991,0.606035,-0.6816139999999999
1630674804167,-0.373442,0.606645,-0.682956
1630674804176,-0.375089,0.607072,-0.6834439999999999
1630674804186,-0.375089,0.607865,-0.682468
1630674804195,-0.37576,0.608048,-0.6819189999999999
1630674804205,-0.37637,0.608048,-0.681675
1630674804215,-0.376492,0.6085969999999999,-0.681736
1630674804224,-0.376126,0.6076819999999999,-0.681492
1630674804234,-0.377285,0.6082919999999999,-0.681431
1630674804243,-0.37594299999999997,0.60878,-0.681431
1630674804253,-0.376187,0.607621,-0.68015
1630674804263,-0.375882,0.6085969999999999,-0.680516
1630674804272,-0.375272,0.608109,-0.6806989999999999
1630674804282,-0.37563799999999997,0.607865,-0.68137
1630674804291,-0.374601,0.607804,-0.683017
1630674804301,-0.375028,0.607621,-0.682468
1630674804311,-0.37563799999999997,0.607377,-0.682285
1630674804320,-0.375394,0.607072,-0.681492
1630674804330,-0.374235,0.608048,-0.681736
1630674804339,-0.375211,0.6092069999999999,-0.682773
1630674804349,-0.373503,0.608231,-0.6840539999999999
1630674804359,-0.374113,0.606706,-0.683932
1630674804368,-0.374418,0.604937,-0.683566
1630674804378,-0.373991,0.602802,-0.6813089999999999
1630674804387,-0.374906,0.604083,-0.68198
1630674804397,-0.37454,0.606523,-0.6832
1630674804407,-0.375089,0.6085969999999999,-0.6834439999999999
1630674804416,-0.374296,0.6116469999999999,-0.6846639999999999
1630674804426,-0.374845,0.611464,-0.684542
1630674804435,-0.375028,0.610671,-0.684176
1630674804445,-0.374784,0.6089019999999999,-0.6828339999999999
1630674804455,-0.374357,0.6076819999999999,-0.681797
1630674804464,-0.374052,0.606828,-0.681431
1630674804474,-0.372954,0.606889,-0.6797839999999999
1630674804483,-0.372222,0.607438,-0.6797839999999999
1630674804493,-0.372527,0.6079869999999999,-0.68015
1630674804503,-0.372527,0.607316,-0.68137
1630674804512,-0.372161,0.605852,-0.6816139999999999
1630674804522,-0.372832,0.605303,-0.6816139999999999
1630674804531,-0.373686,0.603046,-0.68198
1630674804541,-0.373503,0.603778,-0.682468
1630674804551,-0.373991,0.605059,-0.683566
1630674804560,-0.375028,0.605974,-0.6843589999999999
1630674804570,-0.37563799999999997,0.606035,-0.684115
1630674804579,-0.374845,0.606828,-0.683078
1630674804589,-0.374723,0.607926,-0.6822239999999999
1630674804599,-0.374113,0.608963,-0.681431
1630674804608,-0.374723,0.609573,-0.6813089999999999
1630674804618,-0.374174,0.608048,-0.679601
1630674804627,-0.37576,0.608353,-0.678808
1630674804637,-0.376675,0.6079869999999999,-0.677649
1630674804647,-0.375699,0.6089019999999999,-0.67832
1630674804656,-0.374052,0.6101219999999999,-0.681858
1630674804666,-0.374052,0.609695,-0.6832
1630674804675,-0.374479,0.60756,-0.682712
1630674804685,-0.374052,0.606218,-0.682285
1630674804695,-0.374052,0.606462,-0.683871
1630674804704,-0.374845,0.606096,-0.6849689999999999
1630674804714,-0.373869,0.60573,-0.6849689999999999
1630674804723,-0.373686,0.605181,-0.6852739999999999
1630674804733,-0.37454,0.605486,-0.683688
1630674804743,-0.374052,0.606035,-0.683993
1630674804752,-0.37454,0.606401,-0.684481
1630674804762,-0.37393,0.607316,-0.684115
1630674804771,-0.374052,0.607072,-0.6840539999999999
1630674804781,-0.374174,0.607804,-0.6840539999999999
1630674804791,-0.37454,0.608536,-0.684542
1630674804800,-0.374906,0.608536,-0.68381
1630674804810,-0.374052,0.608719,-0.683322
1630674804819,-0.374296,0.608536,-0.682285
1630674804829,-0.373442,0.608658,-0.681858
1630674804839,-0.373076,0.6082919999999999,-0.680455
1630674804848,-0.372649,0.608414,-0.679723
1630674804858,-0.372649,0.608048,-0.679113
1630674804867,-0.372893,0.608414,-0.678991
1630674804877,-0.373076,0.606767,-0.680577
1630674804887,-0.372039,0.60573,-0.681187
1630674804896,-0.37332,0.605486,-0.681248
1630674804906,-0.374235,0.604632,-0.682468
1630674804915,-0.374052,0.605059,-0.683017
1630674804925,-0.374113,0.604693,-0.6834439999999999
1630674804935,-0.374235,0.604937,-0.683505
1630674804944,-0.374845,0.605486,-0.6832
1630674804954,-0.375211,0.606523,-0.681675
1630674804963,-0.375272,0.607316,-0.68198
1630674804973,-0.375821,0.608658,-0.680943
1630674804983,-0.376431,0.60878,-0.680882
1630674804992,-0.375028,0.608658,-0.680882
1630674805002,-0.375089,0.608048,-0.68137
1630674805011,-0.37515,0.607499,-0.681553
1630674805021,-0.374784,0.606645,-0.6816139999999999
1630674805031,-0.375394,0.606401,-0.683505
1630674805040,-0.37515,0.605364,-0.68381
1630674805050,-0.374601,0.606096,-0.685457
1630674805059,-0.374784,0.605852,-0.686128
1630674805069,-0.374784,0.605242,-0.686128
1630674805079,-0.374296,0.605852,-0.6852739999999999
1630674805088,-0.374662,0.605852,-0.685152
1630674805098,-0.374418,0.605852,-0.686372
1630674805107,-0.374784,0.605791,-0.685823
1630674805117,-0.374174,0.604937,-0.68564
1630674805127,-0.374967,0.604937,-0.684847
1630674805136,-0.373625,0.6039,-0.684542
1630674805146,-0.374235,0.605425,-0.683017
1630674805155,-0.373503,0.605547,-0.68503
1630674805165,-0.370819,0.605669,-0.686677
1630674805175,-0.372832,0.605364,-0.68503
1630674805184,-0.373686,0.603961,-0.6843589999999999
1630674805194,-0.372832,0.601704,-0.683383
1630674805203,-0.374723,0.601582,-0.6837489999999999
1630674805213,-0.37563799999999997,0.604632,-0.683932
1630674805223,-0.376492,0.607255,-0.6843589999999999
1630674805232,-0.374601,0.609878,-0.6864939999999999
1630674805242,-0.373625,0.61061,-0.686738
1630674805251,-0.374601,0.609939,-0.6834439999999999
1630674805261,-0.374906,0.607377,-0.68259
1630674805271,-0.373991,0.606706,-0.681187
1630674805280,-0.37393,0.606462,-0.678808
1630674805290,-0.373198,0.605913,-0.678076
1630674805299,-0.373869,0.606462,-0.676795
1630674805309,-0.374296,0.606889,-0.678503
1630674805319,-0.374235,0.605364,-0.680333
1630674805328,-0.373808,0.60512,-0.682346
1630674805338,-0.375211,0.603046,-0.682163
1630674805347,-0.374967,0.602985,-0.684298
1630674805357,-0.374784,0.60207,-0.685091
1630674805367,-0.376919,0.603473,-0.6852739999999999
1630674805376,-0.377041,0.604266,-0.6849689999999999
1630674805386,-0.377651,0.606218,-0.683017
1630674805395,-0.377712,0.608231,-0.68259
1630674805405,-0.37807799999999997,0.608109,-0.681187
1630674805415,-0.37777299999999997,0.609146,-0.6810039999999999
1630674805424,-0.376492,0.60939,-0.680211
1630674805434,-0.37594299999999997,0.608414,-0.676856
1630674805443,-0.377651,0.608963,-0.676429
1630674805453,-0.37624799999999997,0.6085969999999999,-0.677588
1630674805463,-0.374784,0.608719,-0.680028
1630674805472,-0.374174,0.608963,-0.683566
1630674805482,-0.37393,0.607377,-0.685335
1630674805491,-0.374662,0.605852,-0.684298
1630674805501,-0.373747,0.604083,-0.68442
1630674805511,-0.373564,0.604449,-0.686006
1630674805520,-0.373442,0.604571,-0.686372
1630674805530,-0.373625,0.60512,-0.68564
1630674805539,-0.374418,0.605608,-0.6843589999999999
1630674805549,-0.374662,0.606706,-0.684542
1630674805559,-0.373259,0.606706,-0.6846639999999999
1630674805568,-0.372832,0.606889,-0.685152
1630674805578,-0.373137,0.60817,-0.684176
1630674805587,-0.373137,0.607926,-0.684298
1630674805597,-0.373259,0.608536,-0.682956
1630674805607,-0.3721,0.608658,-0.682773
1630674805616,-0.371917,0.608963,-0.6819189999999999
1630674805626,-0.371185,0.608414,-0.682102
1630674805635,-0.371856,0.608048,-0.681248
1630674805645,-0.371124,0.607438,-0.681492
1630674805655,-0.37124599999999996,0.607194,-0.68198
1630674805664,-0.37063599999999997,0.606706,-0.681248
1630674805674,-0.371063,0.607255,-0.68198
1630674805683,-0.371917,0.607255,-0.68198
1630674805693,-0.371795,0.605791,-0.682895
1630674805703,-0.37149,0.604083,-0.6832
1630674805712,-0.37124599999999996,0.603717,-0.6843589999999999
1630674805722,-0.372161,0.603778,-0.684725
1630674805731,-0.3721,0.604266,-0.684603
1630674805741,-0.373381,0.604937,-0.685091
1630674805751,-0.373076,0.604937,-0.6849689999999999
1630674805760,-0.373747,0.606035,-0.684115
1630674805770,-0.374357,0.606889,-0.683871
1630674805779,-0.374845,0.607133,-0.682163
1630674805789,-0.375211,0.605852,-0.682956
1630674805799,-0.374967,0.606279,-0.683261
1630674805808,-0.376187,0.606218,-0.683017
1630674805818,-0.376309,0.605364,-0.682468
1630674805827,-0.37637,0.604876,-0.6822239999999999
1630674805837,-0.376614,0.605242,-0.682407
1630674805847,-0.376065,0.603229,-0.6837489999999999
1630674805856,-0.37698,0.603229,-0.683871
1630674805866,-0.376797,0.602985,-0.687165
1630674805875,-0.376004,0.602558,-0.6883239999999999
1630674805885,-0.377285,0.603168,-0.687897
1630674805895,-0.377346,0.602802,-0.68808
1630674805904,-0.376736,0.603046,-0.686311
