timestamp,ax,ay,az
1630675482538,-0.0057339999999999995,0.786412,0.665937
1630675482548,-0.0017079999999999999,0.790072,0.661179
1630675482558,0.0021349999999999997,0.791658,0.652822
1630675482567,0.0050019999999999995,0.7908649999999999,0.6423909999999999
1630675482577,0.010492,0.786961,0.637999
1630675482586,0.014761999999999999,0.780068,0.636962
1630675482596,0.019215,0.773236,0.6408659999999999
1630675482606,0.02501,0.768295,0.647271
1630675482615,0.030439,0.765855,0.65087
1630675482625,0.033184,0.766038,0.649406
1630675482634,0.035929,0.76921,0.644648
1630675482644,0.0366,0.770552,0.6399509999999999
1630675482654,0.03782,0.767258,0.639402
1630675482663,0.037698,0.769088,0.642757
1630675482673,0.035746,0.769332,0.641903
1630675482682,0.034038,0.771589,0.641598
1630675482692,0.032695999999999996,0.7762249999999999,0.6414759999999999
1630675482702,0.031598,0.778421,0.6457459999999999
1630675482711,0.030560999999999998,0.780007,0.647515
1630675482721,0.029402,0.781288,0.649284
1630675482730,0.02684,0.779824,0.651419
1630675482740,0.021533,0.779763,0.652395
1630675482750,0.016347999999999998,0.778421,0.64965
1630675482759,0.008662,0.772626,0.642879
1630675482769,0.00183,0.766038,0.63745
1630675482778,-0.0013419999999999999,0.76494,0.635864
1630675482788,-0.0008539999999999999,0.766404,0.63562
1630675482798,0.0008539999999999999,0.772504,0.635315
1630675482807,0.004575,0.7807999999999999,0.6353759999999999
1630675482817,0.006405,0.783301,0.634034
1630675482826,0.0059169999999999995,0.782264,0.629337
1630675482836,0.005307,0.783301,0.624701
1630674781588,-0.23741199999999998,0.8805959999999999,0.421632
1630674781597,-0.23680199999999998,0.88145,0.420168
1630674781607,-0.237961,0.880779,0.418216
1630674781617,-0.238449,0.880047,0.417545
1630674781626,-0.238571,0.879559,0.41663
1630674781636,-0.23924199999999998,0.8809009999999999,0.414861
1630674781645,-0.238815,0.8818159999999999,0.414495
1630674781655,-0.23851,0.881084,0.414312
1630674781665,-0.23924199999999998,0.880047,0.413702
1630674781674,-0.23954699999999998,0.880108,0.41107899999999997
1630674781684,-0.238998,0.879193,0.409615
1630674781693,-0.237839,0.87901,0.409493
1630674781703,-0.239059,0.878522,0.408761
1630674781713,-0.238388,0.881267,0.408517
1630674781722,-0.238144,0.88267,0.408944
1630674781732,-0.238266,0.886452,0.410103
1630674781741,-0.23729,0.885415,0.412421
1630674781751,-0.23973,0.882487,0.4148
1630674781761,-0.241072,0.878522,0.417728
1630674781770,-0.240401,0.877424,0.421205
1630674781780,-0.238754,0.8799859999999999,0.42151
1630674781789,-0.23771699999999998,0.882487,0.421815
1630674781799,-0.236375,0.884805,0.421388
1630674781809,-0.236253,0.885537,0.419802
1630674781818,-0.236131,0.885598,0.418155
1630674781828,-0.235704,0.884012,0.416813
1630674781837,-0.23588699999999999,0.8827309999999999,0.416996
1630674781847,-0.23558199999999999,0.882182,0.415715
1630674781857,-0.235033,0.88145,0.4148
1630674781866,-0.233508,0.8830359999999999,0.413397
1630674781876,-0.23308099999999998,0.883219,0.41114
1630674781885,-0.232105,0.883768,0.410347
1630674781895,-0.232532,0.8836459999999999,0.40992
1630674781905,-0.23302,0.883707,0.409066
1630674781914,-0.231312,0.88328,0.407358
1630674781924,-0.231373,0.8827309999999999,0.406565
1630674781933,-0.231068,0.88206,0.406321
1630674781943,-0.230153,0.881938,0.40687
1630674781953,-0.228933,0.882853,0.405223
1630674781962,-0.228872,0.886025,0.40485699999999997
1630674781972,-0.227896,0.8854759999999999,0.404796
1630674781981,-0.228994,0.881755,0.40748
1630674781991,-0.22875,0.878095,0.407968
1630674782001,-0.228384,0.879864,0.410164
1630674782010,-0.22783499999999998,0.880413,0.411628
1630674782020,-0.22752999999999998,0.88206,0.41199399999999997
1630674782029,-0.226981,0.884927,0.413458
1630674782039,-0.227286,0.8866959999999999,0.413031
1630674782049,-0.227591,0.887672,0.412787
1630674782058,-0.22875,0.8870009999999999,0.411323
1630674782068,-0.22936,0.887367,0.41175
1630674782077,-0.22972599999999999,0.887489,0.41175
1630674782087,-0.22972599999999999,0.8888309999999999,0.409798
1630674782097,-0.230214,0.8888309999999999,0.408517
1630674782106,-0.23094599999999998,0.8885259999999999,0.408151
1630674782116,-0.23033599999999999,0.889624,0.407785
1630674782125,-0.229665,0.890295,0.407053
1630674782135,-0.228872,0.8906,0.407175
1630674782145,-0.229787,0.890356,0.406626
1630674782154,-0.23125099999999998,0.88938,0.405833
1630674782164,-0.23033599999999999,0.888587,0.404674
1630674782173,-0.231312,0.887062,0.40443
1630674782183,-0.230885,0.8879159999999999,0.404186
1630674782193,-0.230885,0.888404,0.405406
1630674782202,-0.23058,0.8882209999999999,0.406199
1630674782212,-0.23064099999999998,0.888038,0.405406
1630674782221,-0.231312,0.888038,0.405406
1630674782231,-0.231678,0.889075,0.404674
1630674782241,-0.231922,0.888465,0.403759
1630674782250,-0.232898,0.887428,0.403271
1630674782260,-0.232532,0.887855,0.40058699999999997
1630674782269,-0.232898,0.88755,0.399428
1630674782279,-0.23399599999999998,0.888282,0.397903
1630674782289,-0.23302,0.887672,0.397903
1630674782298,-0.233142,0.888465,0.397537
1630674782308,-0.23308099999999998,0.88877,0.396988
1630674782317,-0.233264,0.8891359999999999,0.396683
1630674782327,-0.234179,0.890112,0.3965
1630674782337,-0.234484,0.888404,0.396195
1630674782346,-0.235216,0.889075,0.396744
1630674782356,-0.234972,0.8873059999999999,0.396378
1630674782365,-0.234789,0.887062,0.396378
1630674782375,-0.234728,0.885842,0.397476
1630674782385,-0.235704,0.886635,0.398696
1630674782394,-0.235765,0.886879,0.399794
1630674782404,-0.236253,0.887672,0.401136
1630674782413,-0.23607,0.88877,0.400831
1630674782423,-0.236924,0.889502,0.399611
1630674782433,-0.2379,0.889807,0.398574
1630674782442,-0.238815,0.8891359999999999,0.397415
1630674782452,-0.23912,0.8873059999999999,0.397598
1630674782461,-0.240279,0.8873059999999999,0.397964
1630674782471,-0.239486,0.888953,0.397171
1630674782481,-0.238754,0.889685,0.396622
1630674782490,-0.238571,0.889685,0.396195
1630674782500,-0.23863199999999998,0.893223,0.396439
1630674782509,-0.239608,0.892125,0.396927
1630674782519,-0.240584,0.887367,0.397964
1630674782529,-0.242231,0.884317,0.398757
1630674782538,-0.24174299999999999,0.884012,0.400404
1630674782548,-0.241377,0.885049,0.40241699999999997
1630674782557,-0.24046199999999998,0.8870009999999999,0.401685
1630674782567,-0.241499,0.887977,0.40077
1630674782577,-0.241072,0.8879159999999999,0.400526
1630674782586,-0.241377,0.888465,0.399001
1630674782596,-0.241682,0.8876109999999999,0.39772
1630674782605,-0.24278,0.886147,0.397293
1630674782615,-0.243024,0.886635,0.397659
1630674782625,-0.242719,0.88755,0.398452
1630674782634,-0.24156,0.887855,0.399001
1630674782644,-0.241865,0.887428,0.39967199999999997
1630674782653,-0.24095,0.886208,0.40028199999999997
1630674782663,-0.241316,0.885842,0.400465
1630674782673,-0.241865,0.885598,0.40016
1630674782682,-0.24156,0.885659,0.40089199999999997
1630674782692,-0.241926,0.8851709999999999,0.400465
1630674782701,-0.242109,0.885659,0.401136
1630674782711,-0.242536,0.88633,0.40180699999999997
1630674782721,-0.24174299999999999,0.88694,0.399733
1630674782730,-0.241926,0.888343,0.399855
1630674782740,-0.241499,0.88999,0.398879
1630674782749,-0.24156,0.888038,0.39833
1630674782759,-0.243634,0.884012,0.398574
1630674782769,-0.242719,0.884744,0.400648
1630674782778,-0.24204799999999999,0.8854759999999999,0.40321
1630674782788,-0.24174299999999999,0.885842,0.403454
1630674782797,-0.241072,0.888587,0.40504
1630674782807,-0.241194,0.888465,0.405345
1630674782817,-0.240096,0.888648,0.403698
1630674782826,-0.240828,0.887794,0.404674
1630674782836,-0.241255,0.88633,0.403088
1630674782845,-0.24046199999999998,0.8845,0.403759
1630674782855,-0.239913,0.884683,0.40321
1630674782865,-0.241194,0.884805,0.4026
1630674782874,-0.240767,0.884622,0.403454
1630674782884,-0.240035,0.885354,0.40382
1630674782893,-0.240218,0.885415,0.40321
1630674782903,-0.240584,0.8851709999999999,0.403088
1630674782913,-0.240584,0.886147,0.403698
1630674782922,-0.240584,0.88511,0.405345
1630674782932,-0.24034,0.884195,0.40626
1630674782941,-0.23973,0.885049,0.406321
1630674782951,-0.240523,0.8842559999999999,0.40729699999999996
1630674782961,-0.240401,0.8836459999999999,0.407724
1630674782970,-0.240645,0.884012,0.40821199999999996
1630674782980,-0.240035,0.885049,0.408822
1630674782989,-0.23985199999999998,0.8836459999999999,0.40699199999999996
1630674782999,-0.240706,0.884012,0.40626
1630674783009,-0.24095,0.8845,0.404796
1630674783018,-0.240706,0.884622,0.40516199999999997
1630674783028,-0.24143799999999999,0.884134,0.40382
1630674783037,-0.241316,0.884012,0.40443
1630674783047,-0.240828,0.884805,0.40504
1630674783057,-0.240401,0.884317,0.405833
1630674783066,-0.23954699999999998,0.884622,0.406016
1630674783076,-0.239303,0.8854759999999999,0.406504
1630674783085,-0.239364,0.885659,0.406626
1630674783095,-0.238754,0.8851709999999999,0.40577199999999997
1630674783105,-0.239608,0.885659,0.405284
1630674783114,-0.23912,0.884805,0.40577199999999997
1630674783124,-0.23924199999999998,0.883219,0.406626
1630674783133,-0.238266,0.8839509999999999,0.407846
1630674783143,-0.23771699999999998,0.8842559999999999,0.408334
1630674783153,-0.237839,0.8830359999999999,0.409371
1630674783162,-0.238266,0.882609,0.409737
1630674783172,-0.23851,0.882548,0.41053
1630674783181,-0.238449,0.8845,0.41260399999999997
1630674783191,-0.23802199999999998,0.884073,0.412421
1630674783201,-0.2379,0.8833409999999999,0.41236
1630674783210,-0.23863199999999998,0.8845,0.41114
1630674783220,-0.238571,0.883585,0.411445
1630674783229,-0.239791,0.8827309999999999,0.41236
1630674783239,-0.239608,0.88511,0.41053
1630674783249,-0.23863199999999998,0.886269,0.411628
1630674783258,-0.2379,0.885415,0.410835
1630674783268,-0.237595,0.887184,0.410042
1630674783277,-0.2379,0.8876109999999999,0.409676
1630674783287,-0.237595,0.8830359999999999,0.411933
1630674783297,-0.24015699999999998,0.8799859999999999,0.41229899999999997
1630674783306,-0.240218,0.879254,0.41236
1630674783316,-0.239974,0.8799859999999999,0.414678
1630674783325,-0.23985199999999998,0.880779,0.415288
1630674783335,-0.239913,0.881999,0.41541
1630674783345,-0.239303,0.88572,0.414068
1630674783354,-0.239608,0.88572,0.412421
1630674783364,-0.24015699999999998,0.8845,0.411323
1630674783373,-0.242292,0.8842559999999999,0.409798
1630674783383,-0.24265799999999998,0.88206,0.408761
1630674783393,-0.24265799999999998,0.882487,0.407785
1630674783402,-0.24217,0.883585,0.407968
1630674783412,-0.241255,0.883768,0.40821199999999996
1630674783421,-0.241255,0.882548,0.408761
1630674783431,-0.241499,0.8812059999999999,0.410042
1630674783441,-0.242292,0.8799859999999999,0.412055
1630674783450,-0.243329,0.8784609999999999,0.414983
1630674783460,-0.245159,0.876753,0.41785
1630674783469,-0.246989,0.876265,0.419863
1630674783479,-0.248392,0.875838,0.420412
1630674783489,-0.248758,0.876448,0.41748399999999997
1630674783498,-0.250588,0.88389,0.410591
1630674783508,-0.251137,0.893162,0.40241699999999997
1630674783517,-0.250527,0.896212,0.393938
1630674783527,-0.251137,0.899872,0.389058
1630674783537,-0.250283,0.9046299999999999,0.387228
1630674783546,-0.247355,0.906704,0.388021
1630674783556,-0.243634,0.9003599999999999,0.39192499999999997
1630674783565,-0.242719,0.890356,0.39527999999999996
1630674783575,-0.24326799999999998,0.881389,0.393694
1630674783585,-0.241072,0.87779,0.388692
1630674783594,-0.240218,0.8799859999999999,0.383141
1630674783604,-0.23912,0.88755,0.37759
1630674783613,-0.2379,0.8957849999999999,0.37155099999999996
1630674783623,-0.237656,0.901702,0.36783
1630674783633,-0.23668,0.905911,0.366427
1630674783642,-0.23546,0.9070699999999999,0.366732
1630674783652,-0.232532,0.9046299999999999,0.36819599999999997
1630674783661,-0.227713,0.901946,0.368928
1630674783671,-0.225212,0.898286,0.366183
1630674783681,-0.22075899999999998,0.895968,0.362096
1630674783690,-0.219173,0.898652,0.359046
1630674783700,-0.217526,0.906216,0.360937
1630674783709,-0.21459799999999998,0.911584,0.36606099999999997
1630674783719,-0.211121,0.9137799999999999,0.373015
1630674783729,-0.2074,0.912926,0.38247
1630674783738,-0.204899,0.908168,0.394914
1630674783748,-0.204777,0.897798,0.4087
1630674783757,-0.2013,0.88877,0.418887
1630674783767,-0.195993,0.886757,0.422059
1630674783777,-0.192577,0.889502,0.420534
1630674783786,-0.192882,0.893467,0.421876
1630674783796,-0.192882,0.892613,0.42614599999999997
1630674783805,-0.195566,0.892064,0.430904
1630674783815,-0.196969,0.8885259999999999,0.43541799999999997
1630674783825,-0.19733499999999998,0.8894409999999999,0.437797
1630674783834,-0.200629,0.885354,0.43968799999999997
1630674783844,-0.204716,0.8824259999999999,0.439749
1630674783853,-0.20801,0.880413,0.440969
1630674783863,-0.210084,0.878888,0.440176
1630674783873,-0.211243,0.878583,0.440542
1630674783882,-0.212402,0.879864,0.442616
1630674783892,-0.213439,0.879437,0.445239
1630674783901,-0.21459799999999998,0.8784,0.447557
1630674783911,-0.215574,0.87596,0.449387
1630674783921,-0.218441,0.872117,0.448289
1630674783930,-0.219966,0.870287,0.444751
1630674783940,-0.222833,0.872178,0.437736
1630674783949,-0.224419,0.874252,0.432002
1630674783959,-0.228689,0.8757159999999999,0.427488
1630674783969,-0.23033599999999999,0.875838,0.420778
1630674783978,-0.234545,0.8744959999999999,0.415471
1630674783988,-0.238144,0.8729709999999999,0.411018
1630674783997,-0.238266,0.87474,0.403454
1630674784007,-0.23710699999999998,0.882304,0.394731
1630674784017,-0.235765,0.889075,0.38369
1630674784026,-0.236131,0.892064,0.374418
1630674784036,-0.238754,0.898896,0.36880599999999997
1630674784045,-0.24156,0.900848,0.364719
1630674784055,-0.244732,0.896761,0.361791
1630674784065,-0.247843,0.893528,0.36051
1630674784074,-0.249002,0.896456,0.35892399999999997
1630674784084,-0.24766,0.904813,0.35929
1630674784093,-0.244549,0.9122549999999999,0.361303
1630674784103,-0.24143799999999999,0.915732,0.364048
1630674784113,-0.238449,0.917928,0.365268
1630674784122,-0.23649699999999999,0.918416,0.37002599999999997
1630674784132,-0.235094,0.913719,0.374418
1630674784141,-0.235094,0.9061549999999999,0.377224
1630674784151,-0.235216,0.899994,0.37899299999999997
1630674784161,-0.235521,0.900482,0.37899299999999997
1630674784170,-0.23338599999999998,0.9021899999999999,0.378017
1630674784180,-0.23155599999999998,0.903837,0.377285
1630674784189,-0.22972599999999999,0.9052399999999999,0.377224
1630674784199,-0.22691999999999998,0.906826,0.377956
1630674784209,-0.224602,0.904874,0.379664
1630674784218,-0.22386999999999999,0.8997499999999999,0.380762
1630674784228,-0.222467,0.896456,0.382409
1630674784237,-0.222345,0.8936499999999999,0.382226
1630674784247,-0.220576,0.892735,0.381799
1630674784257,-0.218746,0.890905,0.379481
1630674784266,-0.218746,0.893528,0.37777299999999997
1630674784276,-0.219112,0.893284,0.381189
1630674784285,-0.219966,0.888404,0.384544
1630674784295,-0.22021,0.884012,0.386557
1630674784305,-0.22045399999999998,0.8857809999999999,0.388204
1630674784314,-0.21892899999999998,0.888099,0.38887499999999997
1630674784324,-0.219356,0.890417,0.390278
1630674784333,-0.21838,0.891698,0.391254
1630674784343,-0.218441,0.892369,0.390766
1630674784353,-0.21838,0.891332,0.390827
1630674784362,-0.21801399999999999,0.891942,0.39192499999999997
1630674784372,-0.217648,0.890539,0.394426
1630674784381,-0.217526,0.88877,0.398086
1630674784391,-0.21612299999999998,0.888587,0.40058699999999997
1630674784401,-0.213927,0.88755,0.403576
1630674784410,-0.21337799999999998,0.88816,0.404979
1630674784420,-0.209474,0.890783,0.406199
1630674784429,-0.206729,0.895541,0.408517
1630674784439,-0.204472,0.897127,0.413397
1630674784449,-0.201422,0.897676,0.420717
1630674784458,-0.198982,0.894809,0.429989
1630674784468,-0.196786,0.884927,0.43981
1630674784477,-0.19641999999999998,0.87779,0.44712999999999997
1630674784487,-0.194529,0.8729709999999999,0.452498
1630674784497,-0.192516,0.871202,0.454877
1630674784506,-0.192089,0.871507,0.454206
1630674784516,-0.191723,0.8735809999999999,0.452559
1630674784525,-0.19178399999999998,0.876448,0.452376
1630674784535,-0.191967,0.876997,0.451888
1630674784545,-0.19147899999999998,0.877058,0.452803
1630674784554,-0.191845,0.87535,0.452864
1630674784564,-0.192699,0.872788,0.451034
1630674784573,-0.193919,0.870958,0.449204
1630674784583,-0.193614,0.872117,0.446154
1630674784593,-0.193187,0.875472,0.443287
1630674784602,-0.19397999999999999,0.876997,0.44243299999999997
1630674784612,-0.195688,0.877485,0.442372
1630674784621,-0.195566,0.8769359999999999,0.443714
1630674784631,-0.195688,0.876143,0.445605
1630674784641,-0.196359,0.876143,0.445483
1630674784650,-0.196481,0.876204,0.44365299999999996
1630674784660,-0.196481,0.878278,0.44273799999999996
1630674784669,-0.196664,0.878644,0.441152
1630674784679,-0.19733499999999998,0.881328,0.443165
1630674784689,-0.19702999999999998,0.884073,0.443104
1630674784698,-0.19825,0.884988,0.44225
1630674784708,-0.197213,0.885903,0.441945
1630674784717,-0.19763999999999998,0.886879,0.440115
1630674784727,-0.197823,0.8845,0.439505
1630674784737,-0.198006,0.882548,0.43968799999999997
1630674784746,-0.197762,0.885049,0.439017
1630674784756,-0.197091,0.886513,0.436211
1630674784765,-0.196176,0.885842,0.432307
1630674784775,-0.198189,0.887672,0.42944
1630674784785,-0.198799,0.889563,0.427854
1630674784794,-0.19947,0.8882209999999999,0.426085
1630674784804,-0.2013,0.887367,0.425048
1630674784813,-0.202459,0.8851709999999999,0.42492599999999997
1630674784823,-0.20288599999999998,0.884744,0.425475
1630674784833,-0.204716,0.886818,0.426329
1630674784842,-0.20599699999999999,0.887489,0.425902
1630674784852,-0.207034,0.889929,0.42334
1630674784861,-0.20904699999999998,0.89182,0.422364
1630674784871,-0.210633,0.893101,0.41931399999999996
1630674784881,-0.211365,0.89304,0.41656899999999997
1630674784890,-0.21276799999999998,0.892186,0.413458
1630674784900,-0.21337799999999998,0.893223,0.410469
1630674784909,-0.214842,0.8936499999999999,0.409798
1630674784919,-0.214842,0.893589,0.408517
1630674784929,-0.21533,0.892491,0.408578
1630674784938,-0.215025,0.89243,0.408456
1630674784948,-0.213927,0.890844,0.407175
1630674784957,-0.214354,0.892491,0.40485699999999997
1630674784967,-0.214964,0.893284,0.404125
1630674784977,-0.213256,0.893528,0.401258
1630674784986,-0.21429299999999998,0.894443,0.399306
1630674784996,-0.213256,0.894138,0.396195
1630674785005,-0.213012,0.891881,0.39833
1630674785015,-0.212097,0.893833,0.398269
1630674785025,-0.211914,0.895236,0.396622
1630674785034,-0.211792,0.891149,0.39527999999999996
1630674785044,-0.211975,0.889258,0.394792
1630674785053,-0.21154799999999999,0.892186,0.39466999999999997
1630674785063,-0.21167,0.894687,0.396195
1630674785073,-0.211914,0.895663,0.396378
1630674785082,-0.21167,0.895968,0.39588999999999996
1630674785092,-0.211914,0.897066,0.394792
1630674785101,-0.21289,0.898042,0.396317
1630674785111,-0.211792,0.899628,0.396927
1630674785121,-0.21106,0.900177,0.398025
1630674785130,-0.210999,0.898591,0.398269
1630674785140,-0.210816,0.897798,0.397354
1630674785149,-0.210633,0.8976149999999999,0.397232
1630674785159,-0.20996199999999998,0.898896,0.395036
1630674785169,-0.210206,0.898896,0.394792
1630674785178,-0.209596,0.897554,0.39588999999999996
1630674785188,-0.20904699999999998,0.897066,0.395524
1630674785197,-0.209596,0.896212,0.395768
1630674785207,-0.20874199999999998,0.896334,0.396683
1630674785217,-0.20782699999999998,0.8960899999999999,0.397354
1630674785226,-0.20923,0.8966999999999999,0.398452
1630674785236,-0.209108,0.896151,0.399123
1630674785245,-0.208803,0.8954799999999999,0.400831
1630674785255,-0.208986,0.895907,0.402478
1630674785265,-0.208254,0.8951749999999999,0.403088
1630674785274,-0.207766,0.894382,0.404613
1630674785284,-0.20782699999999998,0.8936499999999999,0.404125
1630674785293,-0.206973,0.8939549999999999,0.4026
1630674785303,-0.207644,0.8945649999999999,0.400953
1630674785313,-0.207095,0.894443,0.400038
1630674785322,-0.206485,0.894138,0.397842
1630674785332,-0.206058,0.895541,0.397476
1630674785341,-0.204838,0.895358,0.396378
1630674785351,-0.204167,0.894138,0.397476
1630674785361,-0.20410599999999998,0.895907,0.399489
1630674785370,-0.203008,0.895114,0.399916
1630674785380,-0.20288599999999998,0.895602,0.40138
1630674785389,-0.20227599999999998,0.896029,0.402661
1630674785399,-0.200568,0.895846,0.403515
1630674785409,-0.199409,0.8948699999999999,0.405711
1630674785418,-0.199531,0.894199,0.40748
1630674785428,-0.200568,0.892735,0.410469
1630674785437,-0.199714,0.891881,0.410896
1630674785447,-0.199714,0.891881,0.41168899999999997
1630674785457,-0.201605,0.894077,0.410469
1630674785466,-0.2013,0.8951749999999999,0.409981
1630674785476,-0.20197099999999998,0.8957849999999999,0.408029
1630674785485,-0.20258099999999998,0.8966999999999999,0.40668699999999997
1630674785495,-0.20349599999999998,0.894809,0.407968
1630674785505,-0.203923,0.894138,0.408822
1630674785514,-0.204045,0.896212,0.40809
1630674785524,-0.204045,0.897066,0.406931
1630674785533,-0.204045,0.895236,0.406199
1630674785543,-0.205326,0.897432,0.404918
1630674785553,-0.205326,0.898408,0.404674
1630674785562,-0.206729,0.8945649999999999,0.40443
1630674785572,-0.209474,0.891576,0.404674
1630674785581,-0.209413,0.892552,0.40382
1630674785591,-0.20935199999999998,0.893528,0.404674
1630674785601,-0.210328,0.895541,0.404918
1630674785610,-0.209718,0.8976149999999999,0.404186
1630674785620,-0.20874199999999998,0.897798,0.403454
1630674785629,-0.210023,0.898591,0.403698
1630674785639,-0.212219,0.897798,0.402356
1630674785649,-0.212707,0.8954799999999999,0.40382
1630674785658,-0.212341,0.8939549999999999,0.403088
1630674785668,-0.212829,0.893772,0.40180699999999997
1630674785677,-0.212524,0.8942599999999999,0.400038
1630674785687,-0.213256,0.893528,0.39936699999999997
1630674785697,-0.212219,0.8939549999999999,0.399184
1630674785706,-0.212097,0.8945649999999999,0.399184
1630674785716,-0.212707,0.892857,0.400465
1630674785725,-0.2135,0.893772,0.39936699999999997
1630674785735,-0.21289,0.893467,0.400465
1630674785745,-0.213012,0.893345,0.401258
1630674785754,-0.21368299999999998,0.893223,0.401746
1630674785764,-0.21368299999999998,0.893589,0.40272199999999997
1630674785773,-0.213134,0.8936499999999999,0.402173
1630674785783,-0.214476,0.896212,0.400709
1630674785793,-0.213866,0.896578,0.399855
1630674785802,-0.21533,0.892491,0.39967199999999997
1630674785812,-0.215269,0.891942,0.398025
1630674785821,-0.214232,0.895419,0.398086
1630674785831,-0.213134,0.897371,0.397537
1630674785841,-0.212524,0.896944,0.39955
1630674785850,-0.212829,0.8973099999999999,0.400343
1630674785860,-0.21289,0.8973099999999999,0.401685
1630674785869,-0.212646,0.897249,0.406016
1630674785879,-0.21368299999999998,0.898469,0.409554
1630674785889,-0.212585,0.897737,0.41419
1630674785898,-0.213134,0.897859,0.417667
1630674785908,-0.21398799999999998,0.898591,0.41870399999999997
1630674785917,-0.21594,0.897676,0.417972
1630674785927,-0.217587,0.899628,0.41412899999999997
1630674785937,-0.218197,0.901153,0.410469
1630674785946,-0.220027,0.9006649999999999,0.40638199999999997
1630674785956,-0.222467,0.9000549999999999,0.40272199999999997
1630674785965,-0.223687,0.895236,0.399855
1630674785975,-0.225456,0.890356,0.397293
1630674785985,-0.22752999999999998,0.889075,0.390522
1630674785994,-0.232288,0.889929,0.38356799999999996
1630674786004,-0.23649699999999999,0.891881,0.37454
1630674786013,-0.239791,0.893833,0.36539
1630674786023,-0.244854,0.898896,0.355203
1630674786033,-0.242414,0.9021899999999999,0.352397
1630674786042,-0.24143799999999999,0.907009,0.347456
1630674786052,-0.237778,0.9079849999999999,0.345199
1630674786061,-0.233447,0.907924,0.345321
1630674786071,-0.227896,0.9064599999999999,0.34690699999999997
1630674786081,-0.223077,0.902556,0.34599199999999997
1630674786090,-0.219905,0.902434,0.343125
1630674786100,-0.21831899999999999,0.904386,0.341966
1630674786109,-0.212036,0.905484,0.3416
1630674786119,-0.209413,0.906338,0.339709
1630674786129,-0.200873,0.910486,0.34648
1630674786138,-0.191357,0.914512,0.361547
1630674786148,-0.181841,0.916098,0.375882
1630674786157,-0.173179,0.909693,0.393877
1630674786167,-0.164822,0.8976149999999999,0.41626399999999997
1630674786177,-0.157502,0.888343,0.437614
1630674786186,-0.15420799999999998,0.880962,0.453779
1630674786196,-0.155184,0.862479,0.460611
1630674786205,-0.159393,0.856379,0.44834999999999997
1630674786215,-0.162077,0.867908,0.43999299999999997
1630674786225,-0.160308,0.876448,0.438529
1630674786234,-0.156282,0.880657,0.441579
1630674786244,-0.152805,0.882914,0.445544
1630674786253,-0.149145,0.886574,0.446886
1630674786263,-0.151341,0.882487,0.450363
1630674786273,-0.15738,0.878278,0.453901
1630674786282,-0.165127,0.8809009999999999,0.458476
1630674786292,-0.175131,0.882243,0.465064
1630674786301,-0.18287799999999999,0.8778509999999999,0.47299399999999997
1630674786311,-0.189588,0.873337,0.483974
1630674786321,-0.194468,0.86925,0.492453
1630674786330,-0.198128,0.869555,0.494832
1630674786340,-0.20069,0.882182,0.487329
1630674786349,-0.201483,0.893528,0.474641
1630674786359,-0.200934,0.905789,0.463173
1630674786369,-0.200263,0.919331,0.455548
1630674786378,-0.199592,0.923235,0.448899
1630674786388,-0.203984,0.9179889999999999,0.442311
1630674786397,-0.2074,0.9076799999999999,0.435052
1630674786407,-0.212097,0.901946,0.427854
1630674786417,-0.210572,0.898774,0.420534
1630674786426,-0.210572,0.894626,0.412116
1630674786436,-0.209108,0.890356,0.402905
1630674786445,-0.206546,0.887367,0.39436499999999997
1630674786455,-0.205814,0.8888309999999999,0.387533
1630674786465,-0.204716,0.892979,0.379969
1630674786474,-0.202398,0.8957849999999999,0.37637
1630674786484,-0.200934,0.898286,0.375028
1630674786493,-0.199165,0.899018,0.376004
1630674786503,-0.196664,0.897554,0.38003
1630674786513,-0.196847,0.896944,0.388753
1630674786522,-0.19519999999999998,0.894382,0.395524
1630674786532,-0.19489499999999998,0.891698,0.398208
1630674786541,-0.194651,0.892918,0.396988
1630674786551,-0.192577,0.891942,0.393023
1630674786561,-0.19178399999999998,0.894138,0.388692
1630674786570,-0.192394,0.8979199999999999,0.381921
1630674786580,-0.19428499999999999,0.902373,0.37576
1630674786589,-0.195749,0.907192,0.369294
1630674786599,-0.196664,0.9122549999999999,0.36423099999999997
1630674786609,-0.196481,0.9182939999999999,0.359961
1630674786618,-0.197762,0.9222589999999999,0.356362
1630674786628,-0.199165,0.920551,0.355142
1630674786637,-0.20075099999999999,0.920368,0.354837
1630674786647,-0.199592,0.9210389999999999,0.354288
1630674786657,-0.199165,0.9213439999999999,0.353617
1630674786666,-0.198677,0.920856,0.35258
1630674786676,-0.198921,0.91988,0.353312
1630674786685,-0.199897,0.918172,0.353373
1630674786695,-0.200568,0.916586,0.3538
1630674786705,-0.201483,0.914268,0.353495
1630674786714,-0.204228,0.911401,0.353251
1630674786724,-0.20569199999999999,0.9070699999999999,0.35282399999999997
1630674786733,-0.207888,0.903288,0.352397
1630674786743,-0.21307299999999998,0.901519,0.352092
1630674786753,-0.217099,0.899384,0.35136
1630674786762,-0.220088,0.897493,0.35197
1630674786772,-0.222467,0.895053,0.352275
1630674786781,-0.226737,0.894321,0.350262
1630674786791,-0.231312,0.8951749999999999,0.34721199999999997
1630674786801,-0.23710699999999998,0.896212,0.345504
1630674786810,-0.24265799999999998,0.897371,0.34446699999999997
1630674786820,-0.24759899999999999,0.899262,0.344589
1630674786829,-0.25071,0.898957,0.34385699999999997
1630674786839,-0.25559,0.9000549999999999,0.34587
1630674786849,-0.259067,0.902373,0.347883
1630674786858,-0.262056,0.903166,0.348676
1630674786868,-0.264618,0.9009699999999999,0.35258
1630674786877,-0.267546,0.900787,0.355203
1630674786887,-0.270352,0.9009699999999999,0.356362
1630674786897,-0.273158,0.898347,0.35807
1630674786906,-0.274988,0.8979199999999999,0.358802
1630674786916,-0.275476,0.898591,0.36173
1630674786925,-0.27572,0.897066,0.364353
1630674786935,-0.276879,0.898408,0.366732
1630674786945,-0.277062,0.900543,0.366122
1630674786954,-0.276452,0.903288,0.367464
1630674786964,-0.276818,0.904508,0.367098
1630674786973,-0.274988,0.906216,0.36758599999999997
1630674786983,-0.2745,0.906094,0.367952
1630674786993,-0.274561,0.905972,0.368989
1630674787002,-0.273646,0.905911,0.368867
1630674787012,-0.273951,0.903288,0.36880599999999997
1630674787021,-0.272182,0.902678,0.368684
1630674787031,-0.270413,0.9006649999999999,0.367098
1630674787041,-0.268156,0.898652,0.366549
1630674787050,-0.264984,0.899262,0.364719
1630674787060,-0.262544,0.899262,0.36423099999999997
1630674787069,-0.259921,0.898591,0.364414
1630674787079,-0.257969,0.898652,0.363865
1630674787089,-0.255834,0.898103,0.364048
1630674787098,-0.254492,0.898774,0.364658
1630674787108,-0.251869,0.899018,0.36514599999999997
1630674787117,-0.250039,0.899994,0.368928
1630674787127,-0.24759899999999999,0.8988349999999999,0.370575
1630674787137,-0.245891,0.8988349999999999,0.3721
1630674787146,-0.245525,0.897188,0.373442
1630674787156,-0.244061,0.8976149999999999,0.377346
1630674787165,-0.242292,0.897249,0.380335
1630674787175,-0.242536,0.8985299999999999,0.382104
1630674787185,-0.240828,0.901092,0.382714
1630674787194,-0.238754,0.900238,0.38204299999999997
1630674787204,-0.235704,0.902068,0.377041
1630674787213,-0.23558199999999999,0.905972,0.370148
1630674787223,-0.235826,0.906399,0.364597
1630674787233,-0.236314,0.906033,0.362706
1630674787242,-0.23430099999999998,0.908656,0.365634
1630674787252,-0.2318,0.908961,0.36423099999999997
1630674787261,-0.23119,0.909754,0.363011
1630674787271,-0.22972599999999999,0.908534,0.362645
1630674787281,-0.226981,0.907802,0.363072
1630674787290,-0.223931,0.9079849999999999,0.364902
1630674787300,-0.221918,0.906887,0.367159
1630674787309,-0.221125,0.904447,0.370209
1630674787319,-0.2196,0.902312,0.37332
1630674787329,-0.218502,0.901824,0.376309
1630674787338,-0.218197,0.9012749999999999,0.379176
1630674787348,-0.21716,0.9000549999999999,0.380579
1630674787357,-0.21777,0.897676,0.382226
1630674787367,-0.216672,0.895236,0.383324
1630674787377,-0.217526,0.893467,0.38491
1630674787386,-0.218685,0.892369,0.385703
1630674787396,-0.220271,0.893589,0.385398
1630674787405,-0.21984399999999998,0.895846,0.384239
1630674787415,-0.221918,0.897554,0.383324
1630674787425,-0.22356499999999999,0.898286,0.38247
1630674787434,-0.224602,0.897188,0.381006
1630674787444,-0.227286,0.897676,0.37990799999999997
1630674787453,-0.229299,0.8991399999999999,0.380457
1630674787463,-0.232349,0.8960899999999999,0.380701
1630674787473,-0.234972,0.89243,0.381006
1630674787482,-0.235826,0.893833,0.38186
1630674787492,-0.23619199999999999,0.896456,0.381372
1630674787501,-0.23607,0.8976149999999999,0.381921
1630674787511,-0.23668,0.899079,0.383019
1630674787521,-0.237046,0.8997499999999999,0.382836
1630674787530,-0.237229,0.900726,0.382287
1630674787540,-0.23912,0.899018,0.379725
1630674787549,-0.240828,0.897798,0.37777299999999997
1630674787559,-0.241499,0.895358,0.377895
1630674787569,-0.241987,0.895907,0.377712
1630674787578,-0.24143799999999999,0.897432,0.379115
1630674787588,-0.242292,0.8973099999999999,0.380274
1630674787597,-0.242719,0.897676,0.381311
1630674787607,-0.24204799999999999,0.896822,0.383141
1630674787617,-0.242475,0.894504,0.384361
1630674787626,-0.240584,0.894077,0.385703
1630674787636,-0.24034,0.893833,0.387594
1630674787645,-0.240096,0.893284,0.387594
1630674787655,-0.240767,0.892064,0.38795999999999997
1630674787665,-0.240645,0.892491,0.388448
1630674787674,-0.240096,0.893589,0.386801
1630674787684,-0.24095,0.894382,0.386435
1630674787693,-0.241316,0.893772,0.386313
1630674787703,-0.24143799999999999,0.895663,0.384666
1630674787713,-0.24174299999999999,0.896029,0.384422
1630674787722,-0.242475,0.894992,0.384239
1630674787732,-0.242109,0.896151,0.38369
1630674787741,-0.24265799999999998,0.896212,0.384666
1630674787751,-0.241804,0.897859,0.3843
1630674787761,-0.24143799999999999,0.899567,0.38295799999999997
1630674787770,-0.241194,0.899567,0.38369
1630674787780,-0.239974,0.899994,0.384544
1630674787789,-0.23924199999999998,0.900909,0.384788
1630674787799,-0.23851,0.900299,0.384178
1630674787809,-0.238693,0.897859,0.38369
1630674787818,-0.237961,0.897676,0.383934
1630674787828,-0.236619,0.899872,0.383141
1630674787837,-0.235643,0.8988349999999999,0.381555
1630674787847,-0.234118,0.898042,0.38051799999999997
1630674787857,-0.233569,0.899567,0.37929799999999997
1630674787866,-0.23155599999999998,0.898591,0.37746799999999997
1630674787876,-0.231434,0.898164,0.377224
1630674787885,-0.231007,0.898042,0.376614
1630674787895,-0.230092,0.897737,0.376736
1630674787905,-0.229238,0.8985299999999999,0.377651
1630674787914,-0.22875,0.898591,0.378444
1630674787924,-0.22972599999999999,0.897066,0.378871
1630674787933,-0.229299,0.898103,0.38112799999999997
1630674787943,-0.228262,0.899689,0.38247
1630674787953,-0.228628,0.900787,0.38369
1630674787962,-0.227286,0.9015799999999999,0.383446
1630674787972,-0.227896,0.900543,0.382897
1630674787981,-0.227591,0.901031,0.382714
1630674787991,-0.22691999999999998,0.898774,0.382531
1630674788001,-0.224968,0.897493,0.382714
1630674788010,-0.22478499999999998,0.900116,0.380457
1630674788020,-0.223992,0.899933,0.378749
1630674788029,-0.223321,0.899689,0.3782
1630674788039,-0.223809,0.902617,0.37746799999999997
1630674788049,-0.224358,0.902129,0.37698
1630674788058,-0.224541,0.8982249999999999,0.379725
1630674788068,-0.225761,0.894504,0.38247
1630674788077,-0.22417499999999999,0.894199,0.383446
1630674788087,-0.222589,0.8960899999999999,0.386374
1630674788097,-0.221247,0.897554,0.385703
1630674788106,-0.221613,0.900177,0.386252
1630674788116,-0.221735,0.900238,0.386984
1630674788125,-0.221918,0.899628,0.386923
1630674788135,-0.221491,0.897676,0.385581
1630674788145,-0.222711,0.895602,0.386496
1630674788154,-0.222833,0.896334,0.38734999999999997
1630674788164,-0.223077,0.896761,0.386923
1630674788173,-0.223199,0.8973099999999999,0.387167
1630674788183,-0.222894,0.897981,0.386923
1630674788193,-0.22228399999999998,0.897798,0.386435
1630674788202,-0.222467,0.898713,0.38613
1630674788212,-0.222833,0.898408,0.385642
1630674788221,-0.223199,0.897554,0.385642
1630674788231,-0.223199,0.898042,0.385093
1630674788241,-0.223809,0.896822,0.386618
1630674788250,-0.223931,0.8957849999999999,0.388143
1630674788260,-0.223626,0.895297,0.388143
1630674788269,-0.223687,0.896761,0.386069
1630674788279,-0.224419,0.901092,0.385093
1630674788289,-0.224358,0.897859,0.38613
1630674788298,-0.226493,0.893406,0.388143
1630674788308,-0.225456,0.893284,0.388387
1630674788317,-0.225822,0.894687,0.390217
1630674788327,-0.226493,0.8954799999999999,0.39070499999999997
1630674788337,-0.22661499999999998,0.897676,0.39100999999999997
1630674788346,-0.226676,0.899079,0.391681
1630674788356,-0.226127,0.899811,0.391498
1630674788365,-0.226798,0.898957,0.391193
1630674788375,-0.227469,0.898408,0.390766
1630674788385,-0.22752999999999998,0.898469,0.390583
1630674788394,-0.227713,0.898164,0.389668
1630674788404,-0.226371,0.898713,0.389851
1630674788413,-0.226676,0.898713,0.388204
1630674788423,-0.227042,0.8988349999999999,0.387228
1630674788433,-0.226859,0.898774,0.387533
1630674788442,-0.225883,0.897737,0.388387
1630674788452,-0.226188,0.895541,0.388448
1630674788461,-0.226859,0.8948699999999999,0.38856999999999997
1630674788471,-0.226249,0.894321,0.389424
1630674788481,-0.226371,0.8948699999999999,0.388509
1630674788490,-0.227164,0.8954799999999999,0.389607
1630674788500,-0.226859,0.8966999999999999,0.389851
1630674788509,-0.226981,0.897432,0.38978999999999997
1630674788519,-0.227591,0.8973099999999999,0.389058
1630674788529,-0.227591,0.8973099999999999,0.388692
1630674788538,-0.228628,0.896822,0.38734999999999997
1630674788548,-0.227957,0.897737,0.385764
1630674788557,-0.22875,0.8976149999999999,0.384483
1630674788567,-0.229299,0.8991399999999999,0.38308
1630674788577,-0.229177,0.898774,0.381677
1630674788586,-0.228994,0.897737,0.380396
1630674788596,-0.227957,0.898347,0.380457
1630674788605,-0.227469,0.898469,0.379847
1630674788615,-0.22844499999999998,0.898408,0.380579
1630674788625,-0.229848,0.8985299999999999,0.380762
1630674788634,-0.227774,0.897554,0.383446
1630674788644,-0.228201,0.898103,0.383995
1630674788653,-0.227469,0.8979199999999999,0.385398
1630674788663,-0.227286,0.898164,0.386984
1630674788673,-0.226554,0.898164,0.38613
1630674788682,-0.226188,0.898286,0.386069
1630674788692,-0.226676,0.898652,0.386679
1630674788701,-0.22691999999999998,0.8976149999999999,0.386374
1630674788711,-0.227042,0.8988349999999999,0.385764
1630674788721,-0.225883,0.8991399999999999,0.385154
1630674788730,-0.225822,0.8970049999999999,0.384849
1630674788740,-0.226737,0.8966999999999999,0.383934
1630674788749,-0.226859,0.897249,0.384056
1630674788759,-0.22661499999999998,0.8979199999999999,0.383446
1630674788769,-0.226188,0.900116,0.383507
1630674788778,-0.226493,0.900604,0.382409
1630674788788,-0.226859,0.900482,0.382226
1630674788797,-0.226554,0.900299,0.381799
1630674788807,-0.227286,0.897676,0.38326299999999996
1630674788817,-0.226676,0.8976149999999999,0.384483
1630674788826,-0.22569999999999998,0.899201,0.384056
1630674788836,-0.22447999999999999,0.898957,0.382409
1630674788845,-0.223809,0.898408,0.381982
1630674788855,-0.224968,0.901397,0.381982
1630674788865,-0.224602,0.899628,0.381372
1630674788874,-0.224846,0.894687,0.383751
1630674788884,-0.226127,0.892552,0.384727
1630674788893,-0.22569999999999998,0.893467,0.385154
1630674788903,-0.225578,0.894199,0.387228
1630674788913,-0.224236,0.896334,0.387838
1630674788922,-0.225456,0.898408,0.38826499999999997
1630674788932,-0.224968,0.901336,0.389119
1630674788941,-0.22539499999999998,0.9012749999999999,0.39009499999999997
1630674788951,-0.226188,0.900909,0.39070499999999997
1630674788961,-0.226127,0.898408,0.38948499999999997
1630674788970,-0.226432,0.897859,0.38887499999999997
1630674788980,-0.226432,0.8976149999999999,0.388936
1630674788989,-0.226371,0.898591,0.386923
1630674788999,-0.226371,0.898103,0.385581
1630674789009,-0.225944,0.898896,0.385337
1630674789018,-0.225883,0.896822,0.384056
1630674789028,-0.225151,0.896212,0.3843
1630674789037,-0.225578,0.895419,0.38308
1630674789047,-0.223992,0.8954799999999999,0.38387299999999996
1630674789057,-0.22478499999999998,0.895236,0.384849
1630674789066,-0.224541,0.8948699999999999,0.387594
1630674789076,-0.224358,0.895053,0.389302
1630674789085,-0.223687,0.894992,0.38917999999999997
1630674789095,-0.22417499999999999,0.8994449999999999,0.389058
1630674789105,-0.223809,0.899506,0.388509
1630674789114,-0.224663,0.895358,0.390217
1630674789124,-0.22630999999999998,0.891454,0.391498
1630674789133,-0.225029,0.892674,0.390461
1630674789143,-0.225212,0.895541,0.39039999999999997
1630674789153,-0.225334,0.897066,0.39009499999999997
1630674789162,-0.226066,0.898408,0.389058
1630674789172,-0.226554,0.8991399999999999,0.388448
1630674789181,-0.22722499999999998,0.8994449999999999,0.388997
1630674789191,-0.227713,0.899506,0.388082
1630674789201,-0.227469,0.897371,0.388936
1630674789210,-0.227347,0.896822,0.390339
1630674789220,-0.227957,0.896822,0.389302
1630674789229,-0.227408,0.896578,0.39070499999999997
1630674789239,-0.227347,0.8966999999999999,0.391803
1630674789249,-0.227957,0.896578,0.392291
1630674789258,-0.226371,0.895907,0.392779
1630674789268,-0.226127,0.8960899999999999,0.393084
1630674789277,-0.226676,0.895663,0.39314499999999997
1630674789287,-0.226371,0.894748,0.392718
1630674789297,-0.227591,0.895236,0.392108
1630674789306,-0.22783499999999998,0.894626,0.391254
1630674789316,-0.228567,0.895114,0.391193
1630674789325,-0.22875,0.895358,0.39100999999999997
1630674789335,-0.229482,0.895602,0.390766
1630674789345,-0.22875,0.8963949999999999,0.389912
1630674789354,-0.22783499999999998,0.8957849999999999,0.390766
1630674789364,-0.227652,0.895663,0.391132
1630674789373,-0.22752999999999998,0.8960899999999999,0.389729
1630674789383,-0.228018,0.896334,0.388021
1630674789393,-0.228018,0.895602,0.386923
1630674789402,-0.22844499999999998,0.894687,0.386374
1630674789412,-0.22844499999999998,0.894992,0.387838
1630674789421,-0.226798,0.894931,0.388631
1630674789431,-0.22661499999999998,0.894809,0.390949
1630674789441,-0.226127,0.8951749999999999,0.391803
1630674789450,-0.225944,0.8945649999999999,0.392962
1630674789460,-0.226432,0.894687,0.392413
1630674789469,-0.226737,0.894687,0.392901
1630674789479,-0.225822,0.894931,0.392779
1630674789489,-0.226127,0.895053,0.393328
1630674789498,-0.226188,0.895236,0.39344999999999997
1630674789508,-0.225212,0.895602,0.393938
1630674789517,-0.224358,0.896273,0.394182
1630674789527,-0.224358,0.896761,0.394487
1630674789537,-0.224236,0.895846,0.394792
1630674789546,-0.224297,0.895358,0.394304
1630674789556,-0.22447999999999999,0.8954799999999999,0.393206
1630674789565,-0.223931,0.894138,0.393084
1630674789575,-0.223382,0.892308,0.392718
1630674789585,-0.225517,0.892308,0.392779
1630674789594,-0.223992,0.894931,0.393206
1630674789604,-0.224358,0.8951749999999999,0.395158
1630674789613,-0.223992,0.896456,0.395829
1630674789623,-0.224602,0.8963949999999999,0.39497499999999997
1630674789633,-0.225883,0.8966999999999999,0.393572
1630674789642,-0.225273,0.895724,0.393694
1630674789652,-0.225029,0.892674,0.393206
1630674789661,-0.224968,0.8945649999999999,0.392596
1630674789671,-0.223626,0.896639,0.39192499999999997
1630674789681,-0.223016,0.895907,0.391559
1630674789690,-0.223077,0.897432,0.390156
1630674789700,-0.223748,0.897432,0.390949
1630674789709,-0.224602,0.892491,0.391803
1630674789719,-0.226127,0.890234,0.393023
1630674789729,-0.224602,0.890966,0.393938
1630674789738,-0.22326,0.892918,0.3965
1630674789748,-0.223992,0.893467,0.398391
1630674789757,-0.224602,0.895236,0.399123
1630674789767,-0.223931,0.896273,0.399001
1630674789777,-0.224602,0.896517,0.398574
1630674789786,-0.225334,0.895358,0.398025
1630674789796,-0.22569999999999998,0.894687,0.396927
1630674789805,-0.22661499999999998,0.894016,0.39558499999999996
1630674789815,-0.227286,0.894443,0.39314499999999997
1630674789825,-0.227042,0.894748,0.392474
1630674789834,-0.22630999999999998,0.896517,0.391254
1630674789844,-0.226066,0.8954799999999999,0.390583
1630674789853,-0.225334,0.894748,0.390949
1630674789863,-0.224724,0.892857,0.390034
1630674789873,-0.22508999999999998,0.891576,0.389607
1630674789882,-0.22539499999999998,0.89182,0.39009499999999997
1630674789892,-0.22569999999999998,0.891332,0.39192499999999997
1630674789901,-0.226188,0.891576,0.393389
1630674789911,-0.226859,0.893101,0.394426
1630674789921,-0.225761,0.89243,0.394731
1630674789930,-0.226981,0.894382,0.393694
1630674789940,-0.227347,0.896029,0.392962
1630674789949,-0.22661499999999998,0.894199,0.39344999999999997
1630674789959,-0.227286,0.889929,0.394548
1630674789969,-0.227774,0.891271,0.395158
1630674789978,-0.227042,0.893833,0.396256
1630674789988,-0.226798,0.893345,0.397598
1630674789997,-0.226066,0.894809,0.397476
1630674790007,-0.227103,0.8957849999999999,0.396195
1630674790017,-0.227408,0.895602,0.396378
1630674790026,-0.227164,0.895236,0.396744
1630674790036,-0.228567,0.895663,0.395402
1630674790045,-0.22813999999999998,0.895663,0.39497499999999997
1630674790055,-0.228079,0.895358,0.394304
1630674790065,-0.228323,0.894992,0.39527999999999996
1630674790074,-0.228262,0.894626,0.395829
1630674790084,-0.22813999999999998,0.894077,0.396195
1630674790093,-0.22813999999999998,0.893284,0.396683
1630674790103,-0.228872,0.892796,0.397354
1630674790113,-0.22875,0.892186,0.39772
1630674790122,-0.228262,0.89304,0.39772
1630674790132,-0.229238,0.892857,0.397842
1630674790141,-0.229116,0.892857,0.397232
1630674790151,-0.22997,0.893528,0.3965
1630674790161,-0.230092,0.893162,0.395524
1630674790170,-0.229909,0.893162,0.39436499999999997
1630674790180,-0.22997,0.8942599999999999,0.392962
1630674790189,-0.22997,0.894504,0.392718
1630674790199,-0.229787,0.893467,0.390888
1630674790209,-0.229665,0.89243,0.390034
1630674790218,-0.229482,0.892003,0.38948499999999997
1630674790228,-0.229909,0.891515,0.389973
1630674790237,-0.229543,0.891637,0.391254
1630674790247,-0.229299,0.892125,0.39283999999999997
1630674790257,-0.228567,0.892674,0.394609
1630674790266,-0.22844499999999998,0.892064,0.396256
1630674790276,-0.22783499999999998,0.891393,0.396988
1630674790285,-0.227408,0.892857,0.397415
1630674790295,-0.227164,0.892918,0.398818
1630674790305,-0.22691999999999998,0.891515,0.399245
1630674790314,-0.22630999999999998,0.891576,0.398269
1630674790324,-0.226432,0.891271,0.397903
1630674790333,-0.226432,0.89121,0.396744
1630674790343,-0.226127,0.892979,0.397171
1630674790353,-0.225822,0.894504,0.396561
1630674790362,-0.22630999999999998,0.895053,0.397476
1630674790372,-0.225944,0.895419,0.39772
1630674790381,-0.22539499999999998,0.895602,0.398452
1630674790391,-0.22508999999999998,0.895114,0.39772
1630674790401,-0.224358,0.893406,0.397171
1630674790410,-0.224846,0.891515,0.397354
1630674790420,-0.224846,0.891088,0.39833
1630674790429,-0.224846,0.890661,0.40016
1630674790439,-0.224358,0.892186,0.401868
1630674790449,-0.22386999999999999,0.894321,0.402905
1630674790458,-0.224419,0.8954799999999999,0.402356
1630674790468,-0.225456,0.895419,0.40138
1630674790477,-0.226432,0.8939549999999999,0.402234
1630674790487,-0.225639,0.891149,0.40180699999999997
1630674790497,-0.22508999999999998,0.891942,0.39955
1630674790506,-0.224419,0.893589,0.397415
1630674790516,-0.224419,0.891515,0.39466999999999997
1630674790525,-0.224846,0.892247,0.393816
1630674790535,-0.224968,0.895236,0.392413
1630674790545,-0.225334,0.892247,0.39283999999999997
1630674790554,-0.227042,0.887855,0.393084
1630674790564,-0.227103,0.888465,0.39497499999999997
1630674790573,-0.227164,0.890783,0.39772
1630674790583,-0.226249,0.891271,0.399794
1630674790593,-0.225944,0.89243,0.401624
1630674790602,-0.224846,0.894077,0.4026
1630674790612,-0.225334,0.895053,0.40321
1630674790621,-0.225334,0.8936499999999999,0.402051
1630674790631,-0.225761,0.892064,0.40058699999999997
1630674790641,-0.22600499999999998,0.891027,0.400221
1630674790650,-0.22600499999999998,0.891576,0.398879
1630674790660,-0.224419,0.892186,0.39772
1630674790669,-0.223687,0.892491,0.3965
1630674790679,-0.223931,0.891942,0.395463
1630674790689,-0.223443,0.890051,0.39588999999999996
1630674790698,-0.223443,0.890539,0.39711
1630674790708,-0.223016,0.890112,0.397781
1630674790717,-0.22265,0.889929,0.398635
1630674790727,-0.223016,0.890722,0.400648
1630674790737,-0.22204,0.891942,0.403088
1630674790746,-0.222101,0.891149,0.405345
1630674790756,-0.221125,0.890356,0.405406
1630674790765,-0.221918,0.892796,0.40485699999999997
1630674790775,-0.22167399999999998,0.895236,0.404369
1630674790785,-0.222223,0.890905,0.403454
1630674790794,-0.223504,0.888099,0.404735
1630674790804,-0.224053,0.888953,0.405406
1630674790813,-0.222894,0.892003,0.40382
1630674790823,-0.223382,0.89243,0.404186
1630674790833,-0.224053,0.893772,0.40333199999999997
1630674790842,-0.224114,0.8945649999999999,0.40272199999999997
1630674790852,-0.225273,0.893284,0.400404
1630674790861,-0.225822,0.891637,0.400221
1630674790871,-0.225212,0.890844,0.400404
1630674790881,-0.226249,0.8906,0.40028199999999997
1630674790890,-0.225639,0.890356,0.400465
1630674790900,-0.225761,0.890112,0.40077
1630674790909,-0.225517,0.890356,0.40138
1630674790919,-0.225822,0.890295,0.402051
1630674790929,-0.22661499999999998,0.89121,0.402539
1630674790938,-0.226249,0.890417,0.403515
1630674790948,-0.226859,0.889868,0.403515
1630674790957,-0.227896,0.890295,0.402356
1630674790967,-0.228689,0.890722,0.401258
1630674790977,-0.229604,0.890173,0.399123
1630674790986,-0.230397,0.889563,0.398269
1630674790996,-0.23058,0.890905,0.396317
1630674791005,-0.231007,0.892064,0.396378
1630674791015,-0.231007,0.892613,0.39558499999999996
1630674791025,-0.23064099999999998,0.892796,0.39588999999999996
1630674791034,-0.23058,0.892064,0.395768
1630674791044,-0.230519,0.89182,0.396744
1630674791053,-0.22997,0.892064,0.397964
1630674791063,-0.229604,0.892125,0.397659
1630674791073,-0.229238,0.892552,0.39894
1630674791082,-0.228872,0.893162,0.39955
1630674791092,-0.228567,0.892064,0.39955
1630674791101,-0.227896,0.891149,0.400221
1630674791111,-0.227347,0.890844,0.40089199999999997
1630674791121,-0.227286,0.890966,0.40028199999999997
1630674791130,-0.22691999999999998,0.891759,0.40016
1630674791140,-0.226493,0.890356,0.400831
1630674791149,-0.226127,0.890417,0.401441
1630674791159,-0.225639,0.890173,0.401563
1630674791169,-0.22569999999999998,0.890722,0.402173
1630674791178,-0.225212,0.891759,0.402234
1630674791188,-0.224724,0.89121,0.40321
1630674791197,-0.225029,0.891027,0.402966
1630674791207,-0.22569999999999998,0.890417,0.402234
1630674791217,-0.224419,0.890112,0.402295
1630674791226,-0.225273,0.889868,0.40180699999999997
1630674791236,-0.224358,0.890539,0.402661
1630674791245,-0.22447999999999999,0.890661,0.402783
1630674791255,-0.22508999999999998,0.890661,0.40333199999999997
1630674791265,-0.224846,0.891759,0.403576
1630674791274,-0.224053,0.892369,0.403881
1630674791284,-0.225212,0.89304,0.403454
1630674791293,-0.225212,0.892552,0.402356
1630674791303,-0.225029,0.890722,0.402539
1630674791313,-0.224663,0.8888309999999999,0.403088
1630674791322,-0.224907,0.891576,0.403088
1630674791332,-0.22326,0.892186,0.400404
1630674791341,-0.223199,0.891332,0.39894
1630674791351,-0.223077,0.892491,0.397354
1630674791361,-0.222955,0.8939549999999999,0.397232
1630674791370,-0.223748,0.89243,0.396561
1630674791380,-0.224602,0.887489,0.398757
1630674791389,-0.224724,0.8866959999999999,0.40089199999999997
1630674791399,-0.222833,0.8885259999999999,0.40241699999999997
1630674791409,-0.223199,0.8906,0.404125
1630674791418,-0.224053,0.892491,0.405345
1630674791428,-0.22417499999999999,0.893467,0.40546699999999997
1630674791437,-0.224358,0.893772,0.40394199999999997
1630674791447,-0.224724,0.893528,0.40321
1630674791457,-0.224663,0.892613,0.4026
1630674791466,-0.226493,0.892552,0.40199
1630674791476,-0.226066,0.892552,0.400648
1630674791485,-0.225456,0.89243,0.39894
1630674791495,-0.225029,0.892247,0.396622
1630674791505,-0.22478499999999998,0.891454,0.395646
1630674791514,-0.225578,0.890173,0.396012
1630674791524,-0.22447999999999999,0.890051,0.395951
1630674791533,-0.224846,0.889258,0.3965
1630674791543,-0.225212,0.890539,0.397476
1630674791553,-0.225456,0.891576,0.397964
1630674791562,-0.22600499999999998,0.891454,0.398147
1630674791572,-0.225822,0.890478,0.39967199999999997
1630674791581,-0.225212,0.890356,0.399062
1630674791591,-0.227164,0.8945649999999999,0.399306
1630674791601,-0.227042,0.896761,0.397903
1630674791610,-0.227591,0.892918,0.397415
1630674791620,-0.228384,0.889685,0.398269
1630674791629,-0.22844499999999998,0.889624,0.396683
1630674791639,-0.228323,0.891881,0.3965
1630674791649,-0.228628,0.892796,0.395402
1630674791658,-0.228689,0.894504,0.396073
1630674791668,-0.228506,0.894626,0.395524
1630674791677,-0.228506,0.894687,0.396012
1630674791687,-0.22936,0.894626,0.395951
1630674791697,-0.229055,0.894077,0.396378
1630674791706,-0.228811,0.892186,0.397415
1630674791716,-0.22942099999999999,0.892369,0.397049
1630674791725,-0.227652,0.891881,0.39711
1630674791735,-0.228262,0.891454,0.397232
1630674791745,-0.228262,0.891454,0.397354
1630674791754,-0.22875,0.892186,0.397232
1630674791764,-0.228262,0.892064,0.398574
1630674791773,-0.22936,0.892125,0.397842
1630674791783,-0.228933,0.892308,0.398025
1630674791793,-0.228811,0.891576,0.39772
1630674791802,-0.229848,0.892064,0.398208
1630674791812,-0.23058,0.89304,0.397659
1630674791821,-0.230397,0.893284,0.397171
1630674791831,-0.230458,0.892979,0.395829
1630674791841,-0.230885,0.893101,0.39558499999999996
1630674791850,-0.230885,0.892796,0.395219
1630674791860,-0.230214,0.892735,0.395097
1630674791869,-0.230458,0.892125,0.394609
1630674791879,-0.229543,0.892125,0.394731
1630674791889,-0.230092,0.892186,0.39588999999999996
1630674791898,-0.229543,0.892064,0.396134
1630674791908,-0.228323,0.892125,0.39527999999999996
1630674791917,-0.228567,0.891149,0.396866
1630674791927,-0.228628,0.891027,0.397598
1630674791937,-0.228567,0.891454,0.396927
1630674791946,-0.228079,0.890905,0.397964
1630674791956,-0.227774,0.89121,0.397476
1630674791965,-0.227591,0.891393,0.398208
1630674791975,-0.226188,0.890417,0.398574
1630674791985,-0.226554,0.890417,0.398635
1630674791994,-0.22752999999999998,0.891088,0.398574
1630674792004,-0.22752999999999998,0.890661,0.398879
1630674792013,-0.227347,0.891149,0.398513
1630674792023,-0.226188,0.89182,0.398452
1630674792033,-0.226493,0.891576,0.39936699999999997
1630674792042,-0.226737,0.891698,0.398818
1630674792052,-0.226249,0.891576,0.398879
1630674792061,-0.226493,0.892125,0.39955
1630674792071,-0.226127,0.892552,0.40028199999999997
1630674792081,-0.226432,0.890905,0.40119699999999997
1630674792090,-0.22691999999999998,0.889319,0.400526
1630674792100,-0.228018,0.889075,0.400465
1630674792109,-0.22783499999999998,0.890539,0.401136
1630674792119,-0.227591,0.892186,0.401014
1630674792129,-0.227469,0.89304,0.402478
1630674792138,-0.227347,0.893406,0.402173
1630674792148,-0.228262,0.893406,0.400709
1630674792157,-0.229604,0.892613,0.40138
1630674792167,-0.228628,0.891271,0.401929
1630674792177,-0.22813999999999998,0.892979,0.40089199999999997
1630674792186,-0.227164,0.893589,0.398147
1630674792196,-0.227042,0.892918,0.395707
1630674792205,-0.226127,0.893894,0.394914
1630674792215,-0.226249,0.894077,0.395402
1630674792225,-0.227103,0.890112,0.396439
1630674792234,-0.22722499999999998,0.886757,0.397659
1630674792244,-0.226859,0.887672,0.39967199999999997
1630674792253,-0.227164,0.8888309999999999,0.400709
1630674792263,-0.226554,0.890295,0.403576
1630674792273,-0.226737,0.891942,0.404308
1630674792282,-0.226676,0.893101,0.40516199999999997
1630674792292,-0.226798,0.894199,0.402966
1630674792301,-0.22752999999999998,0.892796,0.403393
1630674792311,-0.227652,0.891515,0.401136
1630674792321,-0.228323,0.891271,0.40058699999999997
1630674792330,-0.227408,0.892186,0.398208
1630674792340,-0.22752999999999998,0.893284,0.39558499999999996
1630674792349,-0.226737,0.892857,0.393694
1630674792359,-0.22661499999999998,0.891576,0.392596
1630674792369,-0.226554,0.889807,0.39283999999999997
1630674792378,-0.22630999999999998,0.887794,0.394121
1630674792388,-0.225822,0.889319,0.3965
1630674792397,-0.225883,0.889563,0.398269
1630674792407,-0.225334,0.890173,0.400343
1630674792417,-0.225761,0.891088,0.403576
1630674792426,-0.225273,0.890844,0.40546699999999997
1630674792436,-0.225578,0.889563,0.40455199999999997
1630674792445,-0.226493,0.892247,0.404186
1630674792455,-0.22661499999999998,0.894809,0.402478
1630674792465,-0.226859,0.8906,0.40058699999999997
1630674792474,-0.228506,0.8863909999999999,0.400648
1630674792484,-0.229177,0.887977,0.39955
1630674792493,-0.227896,0.890478,0.399001
1630674792503,-0.227042,0.891637,0.399123
1630674792513,-0.22813999999999998,0.893162,0.398574
1630674792522,-0.228506,0.894748,0.396927
1630674792532,-0.228994,0.894077,0.396988
1630674792541,-0.228811,0.893528,0.396256
1630674792551,-0.229116,0.891698,0.396683
1630674792561,-0.228384,0.8906,0.397476
1630674792570,-0.228567,0.890173,0.397964
1630674792580,-0.229116,0.890051,0.39894
1630674792589,-0.228872,0.8906,0.399062
1630674792599,-0.228872,0.890966,0.40028199999999997
1630674792609,-0.227469,0.891149,0.40089199999999997
1630674792618,-0.226859,0.890417,0.40199
1630674792628,-0.228079,0.88938,0.403271
1630674792637,-0.228262,0.890417,0.40443
1630674792647,-0.228323,0.890112,0.40363699999999997
1630674792657,-0.228323,0.890234,0.40394199999999997
1630674792666,-0.228506,0.889685,0.403149
1630674792676,-0.228872,0.890539,0.40180699999999997
1630674792685,-0.229604,0.890661,0.40138
1630674792695,-0.229055,0.891698,0.400831
1630674792705,-0.228384,0.89304,0.400465
1630674792714,-0.228872,0.893223,0.40058699999999997
1630674792724,-0.22813999999999998,0.892735,0.39997699999999997
1630674792733,-0.228628,0.891881,0.398757
1630674792743,-0.228201,0.890112,0.399611
1630674792753,-0.227896,0.889868,0.401014
1630674792762,-0.227774,0.889563,0.400343
1630674792772,-0.22661499999999998,0.890417,0.401624
1630674792781,-0.226859,0.890478,0.402478
1630674792791,-0.227469,0.890173,0.40333199999999997
1630674792801,-0.226981,0.889868,0.40302699999999997
1630674792810,-0.22661499999999998,0.889929,0.401563
1630674792820,-0.22569999999999998,0.888892,0.4026
1630674792829,-0.226127,0.889014,0.402356
1630674792839,-0.226249,0.8888309999999999,0.401685
1630674792849,-0.22569999999999998,0.888587,0.401563
1630674792858,-0.225822,0.890051,0.401929
1630674792868,-0.226066,0.890173,0.401319
1630674792877,-0.22508999999999998,0.889624,0.40089199999999997
1630674792887,-0.22539499999999998,0.889014,0.401685
1630674792897,-0.22630999999999998,0.890478,0.401868
1630674792906,-0.225273,0.890478,0.401563
1630674792916,-0.224846,0.890783,0.40199
1630674792925,-0.224602,0.890905,0.402356
1630674792935,-0.225029,0.890173,0.402478
1630674792945,-0.22508999999999998,0.890234,0.402844
1630674792954,-0.224846,0.889746,0.403393
1630674792964,-0.224846,0.889014,0.40272199999999997
1630674792973,-0.224602,0.887977,0.40211199999999997
1630674792983,-0.22447999999999999,0.889075,0.40302699999999997
1630674792993,-0.224541,0.891149,0.40333199999999997
1630674793002,-0.22447999999999999,0.893101,0.403759
1630674793012,-0.225151,0.893528,0.404125
1630674793021,-0.225212,0.892796,0.40394199999999997
1630674793031,-0.225822,0.891576,0.403759
1630674793041,-0.225578,0.888648,0.405223
1630674793050,-0.225334,0.889746,0.405589
1630674793060,-0.224968,0.892308,0.404186
1630674793069,-0.224297,0.8906,0.4026
1630674793079,-0.223809,0.892125,0.402051
1630674793089,-0.223687,0.892003,0.401624
1630674793098,-0.223809,0.88938,0.402783
1630674793108,-0.22539499999999998,0.8857809999999999,0.40516199999999997
1630674793117,-0.224724,0.885598,0.407053
1630674793127,-0.225151,0.887855,0.409005
1630674793137,-0.224602,0.889502,0.410408
1630674793146,-0.22417499999999999,0.891393,0.411628
1630674793156,-0.224724,0.893162,0.413153
1630674793165,-0.225334,0.893528,0.41229899999999997
1630674793175,-0.225944,0.892003,0.410774
1630674793185,-0.225944,0.890234,0.410103
1630674793194,-0.225944,0.888648,0.40790699999999996
1630674793204,-0.225822,0.88877,0.406504
1630674793213,-0.225639,0.889258,0.40455199999999997
1630674793223,-0.225456,0.890478,0.402356
1630674793233,-0.22508999999999998,0.889807,0.40028199999999997
1630674793242,-0.225578,0.889014,0.39967199999999997
1630674793252,-0.225151,0.889563,0.398147
1630674793261,-0.225578,0.889258,0.399062
1630674793271,-0.22630999999999998,0.888648,0.39936699999999997
1630674793281,-0.225822,0.889075,0.400709
1630674793290,-0.225456,0.88938,0.401319
1630674793300,-0.22600499999999998,0.889502,0.401868
1630674793309,-0.225639,0.887733,0.40119699999999997
1630674793319,-0.226249,0.8876109999999999,0.398757
1630674793329,-0.225761,0.891393,0.397293
1630674793338,-0.227713,0.888709,0.395341
1630674793348,-0.228079,0.884622,0.39558499999999996
1630674793357,-0.228201,0.885354,0.397232
1630674793367,-0.227164,0.88755,0.398879
1630674793377,-0.226554,0.889563,0.399855
1630674793386,-0.22569999999999998,0.892064,0.401075
1630674793396,-0.225517,0.8942599999999999,0.402234
1630674793405,-0.225029,0.892552,0.402844
1630674793415,-0.22478499999999998,0.892003,0.40333199999999997
1630674793425,-0.224663,0.892125,0.404613
1630674793434,-0.224663,0.890539,0.405284
1630674793444,-0.223809,0.890112,0.40546699999999997
1630674793453,-0.22326,0.890112,0.405894
1630674793463,-0.22326,0.890844,0.407114
1630674793473,-0.223687,0.890966,0.40687
1630674793482,-0.222711,0.890844,0.408456
1630674793492,-0.222406,0.890478,0.40992
1630674793501,-0.222223,0.890173,0.410469
1630674793511,-0.222467,0.888587,0.411567
1630674793521,-0.221796,0.889319,0.412055
1630674793530,-0.22197899999999998,0.889624,0.412177
1630674793540,-0.222467,0.889075,0.411811
1630674793549,-0.222101,0.888892,0.411506
1630674793559,-0.221857,0.888892,0.41114
1630674793569,-0.22143,0.887794,0.409554
1630674793578,-0.222345,0.888099,0.40760199999999996
1630674793588,-0.222406,0.887428,0.407663
1630674793597,-0.223138,0.8879159999999999,0.406504
1630674793607,-0.223382,0.888648,0.40565
1630674793617,-0.223809,0.887672,0.405284
1630674793626,-0.224114,0.887245,0.40577199999999997
1630674793636,-0.223138,0.885964,0.405528
1630674793645,-0.224419,0.885293,0.40760199999999996
1630674793655,-0.224236,0.88511,0.407236
1630674793665,-0.223748,0.884317,0.407114
1630674793674,-0.223992,0.882304,0.407114
1630674793684,-0.224846,0.8799859999999999,0.406016
1630674793693,-0.225578,0.879254,0.405406
1630674793703,-0.225273,0.881328,0.405284
1630674793713,-0.22539499999999998,0.884378,0.40760199999999996
1630674793722,-0.22386999999999999,0.887428,0.409981
1630674793732,-0.223382,0.889563,0.412848
1630674793741,-0.222772,0.889502,0.413946
1630674793751,-0.222406,0.889258,0.413153
1630674793761,-0.221735,0.888465,0.414373
1630674793770,-0.221308,0.8873059999999999,0.414556
1630674793780,-0.22082,0.888038,0.415227
1630674793789,-0.219112,0.8882209999999999,0.41748399999999997
1630674793799,-0.218075,0.887672,0.41968
1630674793809,-0.216977,0.88755,0.421144
1630674793818,-0.216489,0.887062,0.424255
1630674793828,-0.21533,0.8863909999999999,0.427244
1630674793837,-0.215147,0.8860859999999999,0.429257
1630674793847,-0.214659,0.8863909999999999,0.431087
1630674793857,-0.21411,0.886818,0.432307
1630674793866,-0.214049,0.886452,0.432978
1630674793876,-0.21411,0.88633,0.43188
1630674793885,-0.21411,0.884927,0.430538
1630674793895,-0.214415,0.8818159999999999,0.430233
1630674793905,-0.213439,0.881572,0.427915
1630674793914,-0.214049,0.885354,0.424804
1630674793924,-0.21289,0.885415,0.420595
1630674793933,-0.212707,0.886269,0.416752
1630674793943,-0.214354,0.8888309999999999,0.414251
1630674793953,-0.214964,0.88816,0.412726
1630674793962,-0.215879,0.882792,0.412543
1630674793972,-0.216733,0.880413,0.414617
1630674793981,-0.21655,0.881023,0.41602
1630674793991,-0.215635,0.88328,0.41785
1630674794001,-0.21337799999999998,0.884744,0.418643
1630674794010,-0.214171,0.884134,0.418338
1630674794020,-0.21490299999999998,0.88511,0.418582
1630674794029,-0.215696,0.885293,0.417728
1630674794039,-0.21520799999999998,0.885415,0.417362
1630674794049,-0.215452,0.8836459999999999,0.416691
1630674794058,-0.216367,0.883707,0.416325
1630674794068,-0.216977,0.884988,0.414678
1630674794077,-0.21581799999999998,0.885598,0.41419
1630674794087,-0.215025,0.885659,0.413641
1630674794097,-0.215269,0.886025,0.413397
1630674794106,-0.215452,0.884988,0.414007
1630674794116,-0.215757,0.885049,0.41541
1630674794125,-0.214659,0.885293,0.41663
1630674794135,-0.214232,0.88572,0.418765
1630674794145,-0.213622,0.885049,0.420961
1630674794154,-0.214049,0.884744,0.423645
1630674794164,-0.21276799999999998,0.883829,0.42401099999999997
1630674794173,-0.213622,0.886208,0.423462
1630674794183,-0.213744,0.888587,0.422913
1630674794193,-0.21368299999999998,0.886513,0.423218
1630674794202,-0.215391,0.881145,0.423462
1630674794212,-0.216001,0.880535,0.42334
1630674794221,-0.21594,0.882792,0.42273
1630674794231,-0.215086,0.8854759999999999,0.421876
1630674794241,-0.217282,0.887672,0.420595
1630674794250,-0.217953,0.8894409999999999,0.419558
1630674794260,-0.218075,0.889685,0.41870399999999997
1630674794269,-0.218197,0.888404,0.41907
1630674794279,-0.219173,0.887733,0.41724
1630674794289,-0.219722,0.887184,0.41687399999999997
1630674794298,-0.219722,0.887428,0.415471
1630674794308,-0.220088,0.88755,0.414983
1630674794317,-0.2196,0.887184,0.414556
1630674794327,-0.2196,0.886208,0.414922
1630674794337,-0.2196,0.88694,0.4148
1630674794346,-0.22021,0.886879,0.414251
1630674794356,-0.22021,0.886574,0.41358
1630674794365,-0.22075899999999998,0.8854759999999999,0.413397
1630674794375,-0.220698,0.8848659999999999,0.41290899999999997
1630674794385,-0.221186,0.88572,0.413397
1630674794394,-0.220942,0.886208,0.411445
1630674794404,-0.22167399999999998,0.887123,0.41175
1630674794413,-0.221552,0.887184,0.410591
1630674794423,-0.22143,0.88755,0.410225
1630674794433,-0.221247,0.887489,0.40992
1630674794442,-0.221125,0.887123,0.4087
1630674794452,-0.221003,0.8876109999999999,0.409188
1630674794461,-0.221125,0.887489,0.408578
1630674794471,-0.221552,0.88694,0.40809
1630674794481,-0.221796,0.88694,0.408273
1630674794490,-0.220393,0.885842,0.408883
1630674794500,-0.220515,0.885659,0.410103
1630674794509,-0.220637,0.8860859999999999,0.410286
1630674794519,-0.221003,0.8860859999999999,0.41114
1630674794529,-0.219966,0.886818,0.412665
1630674794538,-0.220027,0.886635,0.41358
1630674794548,-0.219356,0.887123,0.414556
1630674794557,-0.220393,0.886818,0.413397
1630674794567,-0.219966,0.88694,0.413458
1630674794577,-0.2196,0.887062,0.41321399999999997
1630674794586,-0.219722,0.887428,0.412421
1630674794596,-0.219783,0.8870009999999999,0.412177
1630674794605,-0.21984399999999998,0.886269,0.411933
1630674794615,-0.22014899999999998,0.886757,0.41199399999999997
1630674794625,-0.21953899999999998,0.887977,0.410774
1630674794634,-0.220515,0.887855,0.411506
1630674794644,-0.220027,0.887794,0.411811
1630674794653,-0.219966,0.886635,0.411933
1630674794663,-0.220698,0.8860859999999999,0.410713
1630674794673,-0.221613,0.8842559999999999,0.41236
1630674794682,-0.221796,0.884134,0.413946
1630674794692,-0.22326,0.886147,0.415227
1630674794701,-0.223504,0.8891359999999999,0.417545
1630674794711,-0.222589,0.891576,0.41748399999999997
1630674794721,-0.222833,0.890783,0.415288
1630674794730,-0.224297,0.890356,0.413275
1630674794740,-0.223504,0.8876109999999999,0.41229899999999997
1630674794749,-0.223992,0.887062,0.410591
1630674794759,-0.22356499999999999,0.888892,0.40809
1630674794769,-0.222711,0.888099,0.405406
1630674794778,-0.223138,0.887733,0.402478
1630674794788,-0.222772,0.890173,0.401746
1630674794797,-0.222833,0.890722,0.402539
1630674794807,-0.223504,0.8876109999999999,0.404918
1630674794817,-0.223992,0.8842559999999999,0.407358
1630674794826,-0.223931,0.884988,0.410164
1630674794836,-0.223077,0.885903,0.41260399999999997
1630674794845,-0.222955,0.886513,0.41419
1630674794855,-0.223382,0.88816,0.414983
1630674794865,-0.223016,0.8894409999999999,0.414007
1630674794874,-0.222528,0.890417,0.412848
1630674794884,-0.223504,0.889868,0.41138399999999997
1630674794893,-0.22447999999999999,0.88877,0.40992
1630674794903,-0.224602,0.888648,0.408456
1630674794913,-0.223992,0.888648,0.405284
1630674794922,-0.224297,0.888953,0.404125
1630674794932,-0.223626,0.8894409999999999,0.402173
1630674794941,-0.222833,0.888648,0.40199
1630674794951,-0.22265,0.887672,0.402539
1630674794961,-0.223077,0.887245,0.402539
1630674794970,-0.222528,0.8863909999999999,0.40363699999999997
1630674794980,-0.222894,0.887184,0.404491
1630674794989,-0.223016,0.88755,0.40607699999999997
1630674794999,-0.221918,0.8876109999999999,0.408334
1630674795009,-0.222528,0.8873059999999999,0.408639
1630674795018,-0.222833,0.8873059999999999,0.408334
1630674795028,-0.22265,0.88999,0.407358
1630674795037,-0.222894,0.89121,0.406809
1630674795047,-0.222772,0.88755,0.407968
1630674795057,-0.223748,0.884744,0.40821199999999996
1630674795066,-0.224053,0.8854759999999999,0.408456
1630674795076,-0.22386999999999999,0.887794,0.408578
1630674795085,-0.223504,0.888953,0.407846
1630674795095,-0.22356499999999999,0.89121,0.407236
1630674795105,-0.22356499999999999,0.891332,0.406748
1630674795114,-0.223199,0.891942,0.406443
1630674795124,-0.222589,0.890966,0.406809
1630674795133,-0.224297,0.8906,0.406321
1630674795143,-0.223504,0.889075,0.406931
1630674795153,-0.223748,0.887489,0.407114
1630674795162,-0.223992,0.886879,0.407358
1630674795172,-0.223992,0.888648,0.4087
1630674795181,-0.223687,0.887977,0.409371
1630674795191,-0.223016,0.88816,0.410103
1630674795201,-0.22386999999999999,0.888282,0.410896
1630674795210,-0.224358,0.887062,0.411933
1630674795220,-0.22508999999999998,0.8866959999999999,0.41114
1630674795229,-0.22478499999999998,0.8882209999999999,0.41053
1630674795239,-0.225761,0.887062,0.40992
1630674795249,-0.226798,0.8873059999999999,0.4087
1630674795258,-0.22691999999999998,0.88694,0.407358
1630674795268,-0.227164,0.8885259999999999,0.406626
1630674795277,-0.227957,0.8894409999999999,0.405406
1630674795287,-0.22752999999999998,0.889746,0.404674
1630674795297,-0.227652,0.890722,0.40516199999999997
1630674795306,-0.227774,0.889746,0.40565
1630674795316,-0.22630999999999998,0.889197,0.407053
1630674795325,-0.225578,0.888648,0.40638199999999997
1630674795335,-0.225212,0.8870009999999999,0.40748
1630674795345,-0.225517,0.886269,0.408273
1630674795354,-0.225639,0.885598,0.408334
1630674795364,-0.22447999999999999,0.885354,0.409493
1630674795373,-0.22326,0.88572,0.409737
1630674795383,-0.223992,0.88633,0.410042
1630674795393,-0.223626,0.88694,0.409676
1630674795402,-0.222589,0.88633,0.410347
1630674795412,-0.223504,0.885964,0.410286
1630674795421,-0.223138,0.887489,0.410591
1630674795431,-0.222345,0.887428,0.410225
1630674795441,-0.222162,0.887062,0.409859
1630674795450,-0.22197899999999998,0.887489,0.410042
1630674795460,-0.221857,0.888404,0.41053
1630674795469,-0.221552,0.887733,0.41114
1630674795479,-0.22082,0.88755,0.412116
1630674795489,-0.220027,0.885537,0.412726
1630674795498,-0.220088,0.886147,0.413397
1630674795508,-0.22021,0.885354,0.413702
1630674795517,-0.22106399999999998,0.885293,0.41541
1630674795527,-0.22045399999999998,0.8866959999999999,0.416142
1630674795537,-0.220332,0.8873059999999999,0.417606
1630674795546,-0.22045399999999998,0.887794,0.416508
1630674795556,-0.22143,0.888648,0.415532
1630674795565,-0.22167399999999998,0.88816,0.415288
1630674795575,-0.221552,0.8860859999999999,0.41565399999999997
1630674795585,-0.221796,0.886818,0.41419
1630674795594,-0.221247,0.888953,0.412848
1630674795604,-0.22021,0.88816,0.411262
1630674795613,-0.219966,0.889014,0.410408
1630674795623,-0.220332,0.890722,0.408151
1630674795633,-0.221003,0.888465,0.408822
1630674795642,-0.22106399999999998,0.884378,0.410957
1630674795652,-0.222467,0.8830359999999999,0.411933
1630674795661,-0.221552,0.884988,0.413275
1630674795671,-0.22197899999999998,0.885598,0.415227
1630674795681,-0.22167399999999998,0.887062,0.415776
1630674795690,-0.222406,0.8891359999999999,0.415837
1630674795700,-0.222772,0.88999,0.41473899999999997
1630674795709,-0.222406,0.888953,0.414312
1630674795719,-0.223199,0.887184,0.413031
1630674795729,-0.223687,0.887062,0.41138399999999997
1630674795738,-0.222162,0.8870009999999999,0.409554
1630674795748,-0.223199,0.887794,0.40821199999999996
1630674795757,-0.22228399999999998,0.888038,0.40699199999999996
1630674795767,-0.222162,0.887733,0.40577199999999997
1630674795777,-0.22265,0.886452,0.40626
1630674795786,-0.222223,0.885964,0.406016
1630674795796,-0.221491,0.885354,0.407724
1630674795805,-0.221796,0.883524,0.409188
1630674795815,-0.222223,0.884805,0.410835
1630674795825,-0.221796,0.8854759999999999,0.412421
1630674795834,-0.222101,0.884622,0.414861
1630674795844,-0.222345,0.884988,0.4148
1630674795853,-0.222955,0.886635,0.414312
1630674795863,-0.221857,0.889563,0.413458
1630674795873,-0.222162,0.888587,0.411933
1630674795882,-0.223992,0.884012,0.413458
1630674795892,-0.224114,0.882975,0.41168899999999997
1630674795901,-0.223443,0.8860859999999999,0.411262
1630674795911,-0.223138,0.886635,0.412238
1630674795921,-0.223382,0.8879159999999999,0.412055
1630674795930,-0.224114,0.889014,0.41107899999999997
1630674795940,-0.224297,0.88999,0.410408
1630674795949,-0.224236,0.890112,0.411811
1630674795959,-0.224053,0.88938,0.410774
1630674795969,-0.223992,0.8882209999999999,0.411262
1630674795978,-0.224846,0.8876109999999999,0.410896
1630674795988,-0.22417499999999999,0.887184,0.412116
1630674795997,-0.222467,0.888099,0.411506
1630674796007,-0.222833,0.888099,0.41138399999999997
1630674796017,-0.223138,0.8873059999999999,0.410652
1630674796026,-0.223321,0.884988,0.411567
1630674796036,-0.223138,0.885903,0.411628
1630674796045,-0.222345,0.885354,0.411201
1630674796055,-0.222833,0.884927,0.411506
1630674796065,-0.223687,0.885354,0.411933
1630674796074,-0.223077,0.885415,0.410957
1630674796084,-0.223992,0.886208,0.410835
1630674796093,-0.224541,0.886574,0.410164
1630674796103,-0.22447999999999999,0.887062,0.40931
1630674796113,-0.22417499999999999,0.886818,0.409249
1630674796122,-0.223992,0.8866959999999999,0.410164
1630674796132,-0.223504,0.886818,0.41107899999999997
1630674796141,-0.22326,0.887672,0.411018
1630674796151,-0.222589,0.885964,0.41168899999999997
1630674796161,-0.222528,0.887367,0.41260399999999997
1630674796170,-0.221918,0.886574,0.41297
1630674796180,-0.221552,0.885537,0.414373
1630674796189,-0.222162,0.8854759999999999,0.415288
1630674796199,-0.221125,0.886025,0.4148
1630674796209,-0.22204,0.885842,0.416752
1630674796218,-0.221247,0.8848659999999999,0.416813
1630674796228,-0.221308,0.885232,0.41785
1630674796237,-0.221186,0.885293,0.417423
1630674796247,-0.220698,0.8860859999999999,0.41778899999999997
1630674796257,-0.220576,0.886513,0.41778899999999997
1630674796266,-0.220393,0.886025,0.41687399999999997
1630674796276,-0.219478,0.886025,0.416325
1630674796285,-0.220698,0.886452,0.416508
1630674796295,-0.22082,0.8857809999999999,0.416142
1630674796305,-0.220576,0.884927,0.41656899999999997
1630674796314,-0.22045399999999998,0.88389,0.41595899999999997
1630674796324,-0.22021,0.8830359999999999,0.41663
1630674796333,-0.221918,0.883219,0.417606
1630674796343,-0.221491,0.883768,0.41785
1630674796353,-0.22167399999999998,0.885598,0.41809399999999997
1630674796362,-0.221735,0.88755,0.418155
1630674796372,-0.222406,0.887489,0.41687399999999997
1630674796381,-0.222406,0.886513,0.418338
1630674796391,-0.222101,0.883158,0.418582
1630674796401,-0.22167399999999998,0.884134,0.417362
1630674796410,-0.221613,0.8866959999999999,0.415532
1630674796420,-0.22075899999999998,0.885659,0.414617
1630674796429,-0.220271,0.886025,0.413153
1630674796439,-0.220332,0.888648,0.410896
1630674796449,-0.220271,0.886208,0.412116
1630674796458,-0.220576,0.881145,0.41358
1630674796468,-0.221735,0.879803,0.4148
1630674796477,-0.221247,0.8821209999999999,0.417606
1630674796487,-0.220942,0.884378,0.41931399999999996
1630674796497,-0.22082,0.885964,0.419741
1630674796506,-0.22136899999999998,0.8870009999999999,0.419558
1630674796516,-0.221796,0.888587,0.41931399999999996
1630674796525,-0.22136899999999998,0.887794,0.41778899999999997
1630674796535,-0.22204,0.887428,0.416386
1630674796545,-0.222467,0.8860859999999999,0.41565399999999997
1630674796554,-0.221735,0.885964,0.413885
1630674796564,-0.221735,0.885903,0.411933
1630674796573,-0.220332,0.8860859999999999,0.41138399999999997
1630674796583,-0.22106399999999998,0.885049,0.409798
1630674796593,-0.220393,0.884378,0.409493
1630674796602,-0.219905,0.884439,0.408944
1630674796612,-0.220088,0.884012,0.41053
1630674796621,-0.220576,0.883829,0.412116
1630674796631,-0.220942,0.8842559999999999,0.41351899999999997
1630674796641,-0.22136899999999998,0.885049,0.415471
1630674796650,-0.222406,0.885598,0.417362
1630674796660,-0.221247,0.885232,0.417728
1630674796669,-0.221735,0.887367,0.41541
1630674796679,-0.221857,0.889197,0.415105
1630674796689,-0.221918,0.8860859999999999,0.41382399999999997
1630674796698,-0.222467,0.8830359999999999,0.4148
1630674796708,-0.223504,0.8836459999999999,0.413031
1630674796717,-0.223626,0.884927,0.412543
1630674796727,-0.222772,0.887062,0.412421
1630674796737,-0.222345,0.887489,0.411872
1630674796746,-0.223138,0.887672,0.413092
1630674796756,-0.22326,0.88816,0.413763
1630674796765,-0.223077,0.8879159999999999,0.414983
1630674796775,-0.22265,0.887245,0.415288
1630674796785,-0.221857,0.886452,0.416752
1630674796794,-0.222894,0.885354,0.41717899999999997
1630674796804,-0.222162,0.885232,0.41626399999999997
1630674796813,-0.221613,0.885232,0.417545
1630674796823,-0.221735,0.885354,0.417606
1630674796833,-0.221552,0.8860859999999999,0.41785
1630674796842,-0.22082,0.88572,0.41687399999999997
1630674796852,-0.221918,0.88511,0.416752
1630674796861,-0.221552,0.8845,0.416691
1630674796871,-0.222101,0.884744,0.41717899999999997
1630674796881,-0.222528,0.884622,0.416935
1630674796890,-0.223382,0.885354,0.416386
1630674796900,-0.22386999999999999,0.885659,0.414922
1630674796909,-0.22386999999999999,0.885598,0.4148
1630674796919,-0.22265,0.886269,0.414251
1630674796929,-0.222467,0.885659,0.413641
1630674796938,-0.223077,0.885842,0.414312
1630674796948,-0.222223,0.88511,0.413336
1630674796957,-0.222223,0.8842559999999999,0.413275
1630674796967,-0.221491,0.8836459999999999,0.414861
1630674796977,-0.220698,0.883768,0.414556
1630674796986,-0.221003,0.884012,0.41565399999999997
1630674796996,-0.22021,0.8842559999999999,0.41504399999999997
1630674797005,-0.21923399999999998,0.883463,0.414922
1630674797015,-0.219661,0.883585,0.415471
1630674797025,-0.219051,0.8842559999999999,0.416081
1630674797034,-0.219478,0.883402,0.41785
1630674797044,-0.21862399999999999,0.884012,0.417728
1630674797053,-0.218441,0.884988,0.41809399999999997
1630674797063,-0.218502,0.88511,0.41778899999999997
1630674797073,-0.218197,0.88572,0.418277
1630674797082,-0.218258,0.885293,0.41870399999999997
1630674797092,-0.218563,0.884683,0.41846
1630674797101,-0.218502,0.8845609999999999,0.417972
1630674797111,-0.218502,0.8854759999999999,0.418338
1630674797121,-0.218563,0.884317,0.419497
1630674797130,-0.218807,0.8833409999999999,0.420168
1630674797140,-0.218746,0.884073,0.419985
1630674797149,-0.218746,0.885415,0.421327
1630674797159,-0.219112,0.885964,0.42273
1630674797169,-0.21899,0.887123,0.42273
1630674797178,-0.220515,0.885659,0.422852
1630674797188,-0.220576,0.885598,0.422242
1630674797197,-0.220088,0.883585,0.424072
1630674797207,-0.220027,0.8827309999999999,0.422364
1630674797217,-0.220088,0.8836459999999999,0.419375
1630674797226,-0.22106399999999998,0.884683,0.41595899999999997
1630674797236,-0.221003,0.8839509999999999,0.41351899999999997
1630674797245,-0.220576,0.8866959999999999,0.41290899999999997
1630674797255,-0.221735,0.88755,0.41236
1630674797265,-0.222772,0.882853,0.414556
1630674797274,-0.223687,0.880169,0.414617
1630674797284,-0.223992,0.8815109999999999,0.418582
1630674797293,-0.223748,0.883402,0.420412
1630674797303,-0.223687,0.883158,0.42212
1630674797313,-0.22508999999999998,0.884378,0.422242
1630674797322,-0.225822,0.885537,0.421083
1630674797332,-0.226554,0.885842,0.421205
1630674797341,-0.227957,0.884744,0.42029
1630674797351,-0.22813999999999998,0.88328,0.417545
1630674797361,-0.22942099999999999,0.881633,0.416142
1630674797370,-0.22844499999999998,0.881633,0.414861
1630674797380,-0.227408,0.882609,0.412482
1630674797389,-0.227042,0.882609,0.410835
1630674797399,-0.225151,0.8830359999999999,0.410347
1630674797409,-0.22447999999999999,0.883219,0.410713
1630674797418,-0.22386999999999999,0.882182,0.41168899999999997
1630674797428,-0.222894,0.880718,0.412238
1630674797437,-0.222467,0.881572,0.41443399999999997
1630674797447,-0.220027,0.882243,0.416508
1630674797457,-0.220088,0.883585,0.41992399999999996
1630674797466,-0.21862399999999999,0.88267,0.421144
1630674797476,-0.218502,0.885659,0.421266
1630674797485,-0.217465,0.8885259999999999,0.421876
1630674797495,-0.217282,0.884988,0.42212
1630674797505,-0.217526,0.881023,0.424377
1630674797514,-0.215635,0.8809009999999999,0.424987
1630674797524,-0.214659,0.883585,0.426085
1630674797533,-0.214842,0.884317,0.426268
1630674797543,-0.21276799999999998,0.885842,0.425475
1630674797553,-0.21215799999999999,0.8873059999999999,0.425597
1630674797562,-0.21215799999999999,0.887428,0.424804
1630674797572,-0.21215799999999999,0.88755,0.423462
1630674797581,-0.211426,0.884988,0.422486
1630674797591,-0.210816,0.884744,0.422669
1630674797601,-0.210511,0.884439,0.422486
1630674797610,-0.210633,0.8848659999999999,0.42334
1630674797620,-0.210877,0.88511,0.42456
1630674797629,-0.211914,0.885354,0.425597
1630674797639,-0.211121,0.886269,0.426268
1630674797649,-0.211243,0.8863909999999999,0.42553599999999997
1630674797658,-0.21228,0.885659,0.42578
1630674797668,-0.21228,0.885964,0.424804
1630674797677,-0.21276799999999998,0.885415,0.42456
1630674797687,-0.213622,0.884744,0.422669
1630674797697,-0.213744,0.884744,0.421205
1630674797706,-0.21337799999999998,0.8839509999999999,0.41870399999999997
1630674797716,-0.213744,0.8845,0.416996
1630674797725,-0.21459799999999998,0.884195,0.415532
1630674797735,-0.215269,0.884805,0.415105
1630674797745,-0.215086,0.884073,0.41297
1630674797754,-0.21429299999999998,0.88389,0.41473899999999997
1630674797764,-0.216794,0.8839509999999999,0.414861
1630674797773,-0.215696,0.8836459999999999,0.416203
1630674797783,-0.216062,0.884134,0.417362
1630674797793,-0.214659,0.884134,0.41931399999999996
1630674797802,-0.214659,0.883463,0.420717
1630674797812,-0.21459799999999998,0.883463,0.42273
1630674797821,-0.21411,0.884683,0.424194
1630674797831,-0.21398799999999998,0.884805,0.425475
1630674797841,-0.213439,0.883219,0.426329
1630674797850,-0.212402,0.882853,0.425414
1630674797860,-0.212036,0.8815109999999999,0.424682
1630674797869,-0.211121,0.880962,0.424987
1630674797879,-0.211426,0.8815109999999999,0.42431599999999997
1630674797889,-0.21106,0.880779,0.425658
1630674797898,-0.211792,0.87962,0.425902
1630674797908,-0.212219,0.879437,0.425475
1630674797917,-0.213256,0.879315,0.427793
1630674797927,-0.213622,0.8815109999999999,0.429867
1630674797937,-0.213744,0.883402,0.429745
1630674797946,-0.214781,0.8842559999999999,0.43041599999999997
1630674797956,-0.215879,0.8842559999999999,0.428159
1630674797965,-0.216916,0.8842559999999999,0.42645099999999997
1630674797975,-0.219051,0.883402,0.42401099999999997
1630674797985,-0.21831899999999999,0.881877,0.42431599999999997
1630674797994,-0.219356,0.88267,0.422181
1630674798004,-0.219417,0.8848659999999999,0.41961899999999996
1630674798013,-0.217953,0.884927,0.41656899999999997
1630674798023,-0.219112,0.88572,0.415898
1630674798033,-0.219722,0.88877,0.415776
1630674798042,-0.220698,0.886757,0.415593
1630674798052,-0.220881,0.8833409999999999,0.415898
1630674798061,-0.222162,0.881877,0.418277
1630674798071,-0.220942,0.8827309999999999,0.41931399999999996
1630674798081,-0.219295,0.886025,0.41961899999999996
1630674798090,-0.218685,0.8870009999999999,0.420656
1630674798100,-0.218563,0.8882209999999999,0.41968
1630674798109,-0.218502,0.887733,0.418887
1630674798119,-0.218502,0.8885259999999999,0.41748399999999997
1630674798129,-0.219356,0.887062,0.416996
1630674798138,-0.218868,0.884622,0.416691
1630674798148,-0.21838,0.884378,0.416142
1630674798157,-0.217343,0.883524,0.415166
1630674798167,-0.216245,0.884195,0.41504399999999997
1630674798177,-0.215757,0.8848659999999999,0.414373
1630674798186,-0.215757,0.8854759999999999,0.414495
1630674798196,-0.21551299999999998,0.884683,0.414312
1630674798205,-0.216001,0.884927,0.412787
1630674798215,-0.21594,0.885354,0.412848
1630674798225,-0.215879,0.8854759999999999,0.413275
1630674798234,-0.21612299999999998,0.885354,0.413275
1630674798244,-0.216489,0.886147,0.416508
1630674798253,-0.215696,0.885537,0.41595899999999997
1630674798263,-0.216062,0.8885259999999999,0.41541
1630674798273,-0.216001,0.889258,0.414495
1630674798282,-0.217343,0.885659,0.415105
1630674798292,-0.217648,0.882243,0.414983
1630674798301,-0.216489,0.883524,0.415898
1630674798311,-0.21655,0.883768,0.41534899999999997
1630674798321,-0.217648,0.884744,0.41419
1630674798330,-0.217953,0.88633,0.412543
1630674798340,-0.217892,0.888038,0.413763
1630674798349,-0.219173,0.888892,0.41358
1630674798359,-0.2196,0.889563,0.41297
1630674798369,-0.220576,0.888892,0.412726
1630674798378,-0.221186,0.888343,0.41236
1630674798388,-0.22136899999999998,0.888038,0.413031
1630674798397,-0.220698,0.887367,0.41199399999999997
1630674798407,-0.220332,0.88694,0.41236
1630674798417,-0.220942,0.886757,0.412543
1630674798426,-0.220698,0.887367,0.413458
1630674798436,-0.220942,0.886879,0.412665
1630674798445,-0.22143,0.8863909999999999,0.41236
1630674798455,-0.221857,0.886147,0.414068
1630674798465,-0.221918,0.885659,0.414678
1630674798474,-0.22143,0.8848659999999999,0.41473899999999997
1630674798484,-0.22143,0.885537,0.4148
1630674798493,-0.221552,0.8854759999999999,0.41541
1630674798503,-0.221186,0.8860859999999999,0.414617
1630674798513,-0.222162,0.886574,0.414678
1630674798522,-0.22265,0.8866959999999999,0.414007
1630674798532,-0.221735,0.886574,0.413458
1630674798541,-0.222162,0.886757,0.413763
1630674798551,-0.22265,0.886879,0.413336
1630674798561,-0.221125,0.8863909999999999,0.413397
1630674798570,-0.22136899999999998,0.8860859999999999,0.41260399999999997
1630674798580,-0.221491,0.884744,0.41199399999999997
1630674798589,-0.221186,0.884744,0.411628
1630674798599,-0.221003,0.885842,0.41236
1630674798609,-0.220698,0.885293,0.414007
1630674798618,-0.22021,0.886208,0.415532
1630674798628,-0.21899,0.886818,0.415837
1630674798637,-0.219478,0.885537,0.417423
1630674798647,-0.218868,0.885415,0.418277
1630674798657,-0.21899,0.884439,0.418582
1630674798666,-0.218746,0.8842559999999999,0.419497
1630674798676,-0.21862399999999999,0.884012,0.420168
1630674798685,-0.218685,0.883402,0.419497
1630674798695,-0.218807,0.8824259999999999,0.41900899999999996
1630674798705,-0.219356,0.884622,0.420046
1630674798714,-0.219112,0.888282,0.421083
1630674798724,-0.218258,0.889563,0.423584
1630674798733,-0.218563,0.890112,0.423157
1630674798743,-0.218807,0.888038,0.422181
1630674798753,-0.219173,0.8876109999999999,0.421022
1630674798762,-0.218685,0.885537,0.420473
1630674798772,-0.218502,0.88694,0.419192
1630674798781,-0.217831,0.8894409999999999,0.41595899999999997
1630674798791,-0.215635,0.888648,0.41297
1630674798801,-0.21520799999999998,0.8876109999999999,0.41053
1630674798810,-0.215879,0.8885259999999999,0.409005
1630674798820,-0.215696,0.8873059999999999,0.408334
1630674798829,-0.215879,0.8836459999999999,0.409066
1630674798839,-0.216489,0.881877,0.409737
1630674798849,-0.216001,0.882182,0.411506
1630674798858,-0.215635,0.882914,0.412665
1630674798868,-0.21551299999999998,0.882975,0.413946
1630674798877,-0.216489,0.885537,0.41504399999999997
1630674798887,-0.216977,0.886513,0.414922
1630674798897,-0.21801399999999999,0.886757,0.41504399999999997
1630674798906,-0.218258,0.8860859999999999,0.415105
1630674798916,-0.21899,0.885964,0.41504399999999997
1630674798925,-0.2196,0.8857809999999999,0.414312
1630674798935,-0.219356,0.8870009999999999,0.412116
1630674798945,-0.220515,0.8873059999999999,0.412177
1630674798954,-0.219417,0.8873059999999999,0.410652
1630674798964,-0.219356,0.886818,0.40931
1630674798973,-0.21984399999999998,0.885903,0.40931
1630674798983,-0.219356,0.884683,0.408944
1630674798993,-0.219417,0.884988,0.409554
1630674799002,-0.219722,0.885232,0.410957
1630674799012,-0.220027,0.885293,0.41199399999999997
1630674799021,-0.220881,0.885354,0.415227
1630674799031,-0.220271,0.8851709999999999,0.41687399999999997
1630674799041,-0.22082,0.886269,0.416752
1630674799050,-0.22075899999999998,0.8891359999999999,0.417118
1630674799060,-0.22106399999999998,0.888038,0.41687399999999997
1630674799069,-0.222467,0.884012,0.417057
1630674799079,-0.222162,0.883524,0.41717899999999997
1630674799089,-0.22197899999999998,0.88572,0.416508
1630674799098,-0.221796,0.8876109999999999,0.41565399999999997
1630674799108,-0.22167399999999998,0.888892,0.41541
1630674799117,-0.222223,0.889929,0.41412899999999997
1630674799127,-0.222406,0.890234,0.41412899999999997
1630674799137,-0.222711,0.88938,0.413336
1630674799146,-0.222711,0.8891359999999999,0.41351899999999997
1630674799156,-0.22228399999999998,0.887977,0.413153
1630674799165,-0.223016,0.887428,0.41412899999999997
1630674799175,-0.221247,0.887428,0.414861
1630674799185,-0.22106399999999998,0.88633,0.4148
1630674799194,-0.221247,0.885659,0.41504399999999997
1630674799204,-0.219966,0.885842,0.415898
1630674799213,-0.21892899999999998,0.884805,0.415593
1630674799223,-0.21923399999999998,0.884378,0.415532
1630674799233,-0.22045399999999998,0.884805,0.416325
1630674799242,-0.22014899999999998,0.884317,0.41717899999999997
1630674799252,-0.220027,0.885232,0.417545
1630674799261,-0.220332,0.885354,0.415166
1630674799271,-0.220271,0.8857809999999999,0.414617
1630674799281,-0.220637,0.886452,0.413397
1630674799290,-0.220942,0.88633,0.41260399999999997
1630674799300,-0.221125,0.8870009999999999,0.411933
1630674799309,-0.221125,0.88816,0.410774
1630674799319,-0.219966,0.887489,0.410103
1630674799329,-0.219112,0.886452,0.41114
1630674799338,-0.219722,0.886208,0.411018
1630674799348,-0.21838,0.886025,0.412543
1630674799357,-0.218258,0.886513,0.413275
1630674799367,-0.21716,0.886025,0.413885
1630674799377,-0.217038,0.885598,0.415288
1630674799386,-0.21716,0.885293,0.41595899999999997
1630674799396,-0.217038,0.885232,0.416508
1630674799405,-0.215757,0.8860859999999999,0.417423
1630674799415,-0.216611,0.8857809999999999,0.417728
1630674799425,-0.215879,0.884988,0.418765
1630674799434,-0.21612299999999998,0.8860859999999999,0.418155
1630674799444,-0.215757,0.885903,0.41931399999999996
1630674799453,-0.21551299999999998,0.8857809999999999,0.41907
1630674799463,-0.21581799999999998,0.8845,0.419253
1630674799473,-0.215452,0.883707,0.418948
1630674799482,-0.215879,0.883097,0.418643
1630674799492,-0.216611,0.884439,0.41992399999999996
1630674799501,-0.216489,0.886025,0.4209
1630674799511,-0.216794,0.887367,0.420717
1630674799521,-0.215696,0.8866959999999999,0.419802
1630674799530,-0.216611,0.887123,0.419253
1630674799540,-0.217038,0.886757,0.420107
1630674799549,-0.216977,0.883524,0.421571
1630674799559,-0.217404,0.8848659999999999,0.419802
1630674799569,-0.216611,0.8876109999999999,0.418338
1630674799578,-0.215452,0.88633,0.417545
1630674799588,-0.215391,0.886635,0.41602
1630674799597,-0.215269,0.8885259999999999,0.416508
1630674799607,-0.215452,0.886513,0.418216
1630674799617,-0.215147,0.882243,0.421876
1630674799626,-0.215635,0.881999,0.423828
1630674799636,-0.21594,0.8836459999999999,0.424743
1630674799645,-0.216062,0.885537,0.424743
1630674799655,-0.215879,0.887123,0.424865
1630674799665,-0.21594,0.8888309999999999,0.42492599999999997
1630674799674,-0.216611,0.88938,0.423584
1630674799684,-0.217282,0.889258,0.421632
1630674799693,-0.217282,0.887245,0.41968
1630674799703,-0.217953,0.88572,0.417667
1630674799713,-0.217587,0.884988,0.41534899999999997
1630674799722,-0.217526,0.88511,0.412116
1630674799732,-0.216977,0.884378,0.409493
1630674799741,-0.216855,0.884805,0.408578
1630674799751,-0.216245,0.884439,0.409005
1630674799761,-0.216489,0.884317,0.408883
1630674799770,-0.216184,0.8830359999999999,0.410774
1630674799780,-0.215635,0.8830359999999999,0.41175
1630674799789,-0.216001,0.882792,0.41199399999999997
1630674799799,-0.215879,0.883402,0.413702
1630674799809,-0.215574,0.883463,0.4148
1630674799818,-0.215879,0.8827309999999999,0.414617
1630674799828,-0.216794,0.884195,0.41358
1630674799837,-0.216672,0.885842,0.412238
1630674799847,-0.21838,0.883219,0.412421
1630674799857,-0.219112,0.881267,0.413153
1630674799866,-0.22045399999999998,0.88145,0.413458
1630674799876,-0.219722,0.8845609999999999,0.415532
1630674799885,-0.21984399999999998,0.8857809999999999,0.415715
1630674799895,-0.220698,0.887062,0.416752
1630674799905,-0.220698,0.888587,0.41717899999999997
1630674799914,-0.22167399999999998,0.887977,0.41656899999999997
1630674799924,-0.22228399999999998,0.88755,0.41626399999999997
1630674799933,-0.221857,0.887123,0.41717899999999997
1630674799943,-0.22167399999999998,0.886635,0.417118
1630674799953,-0.22197899999999998,0.887428,0.418033
1630674799962,-0.221796,0.887062,0.418765
1630674799972,-0.222101,0.887184,0.420168
1630674799981,-0.221003,0.886635,0.42022899999999996
1630674799991,-0.22197899999999998,0.885659,0.420961
1630674800001,-0.22167399999999998,0.8857809999999999,0.421571
1630674800010,-0.221491,0.8860859999999999,0.422059
1630674800020,-0.221918,0.884744,0.422547
1630674800029,-0.221613,0.885293,0.422852
1630674800039,-0.222711,0.884927,0.423279
1630674800049,-0.222406,0.884927,0.423462
1630674800058,-0.221796,0.8845609999999999,0.421449
1630674800068,-0.22265,0.884927,0.420778
1630674800077,-0.22228399999999998,0.8851709999999999,0.418948
1630674800087,-0.223138,0.885354,0.417911
1630674800097,-0.222894,0.885049,0.41748399999999997
1630674800106,-0.222833,0.883768,0.416691
1630674800116,-0.22228399999999998,0.883707,0.416325
1630674800125,-0.22204,0.884195,0.414922
1630674800135,-0.22045399999999998,0.883707,0.415532
1630674800145,-0.220576,0.8842559999999999,0.41626399999999997
1630674800154,-0.219722,0.883402,0.417362
1630674800164,-0.21899,0.88267,0.418216
1630674800173,-0.218258,0.88206,0.418582
1630674800183,-0.217343,0.882914,0.41968
1630674800193,-0.217038,0.88206,0.420351
1630674800202,-0.216733,0.882548,0.421571
1630674800212,-0.21716,0.8812059999999999,0.422059
1630674800221,-0.21655,0.880535,0.422608
1630674800231,-0.21594,0.8809009999999999,0.422974
1630674800241,-0.214964,0.8805959999999999,0.42334
1630674800250,-0.21551299999999998,0.880413,0.424133
1630674800260,-0.216184,0.880413,0.422913
1630674800269,-0.21490299999999998,0.8809009999999999,0.424255
1630674800279,-0.214171,0.882243,0.424194
1630674800289,-0.215696,0.883585,0.42578
1630674800298,-0.21520799999999998,0.885354,0.42456
1630674800308,-0.214476,0.884622,0.42309599999999997
1630674800317,-0.215025,0.884378,0.421754
1630674800327,-0.214781,0.883219,0.422425
1630674800337,-0.212829,0.880657,0.421632
1630674800346,-0.213012,0.8818159999999999,0.420595
1630674800356,-0.213256,0.880352,0.420412
1630674800365,-0.21228,0.878705,0.420778
1630674800375,-0.21307299999999998,0.880657,0.423584
1630674800385,-0.215391,0.882548,0.42767099999999997
1630674800394,-0.21777,0.879437,0.433039
1630674800404,-0.218868,0.875594,0.438224
1630674800413,-0.221491,0.877302,0.440664
1630674800423,-0.221003,0.880474,0.44182299999999997
1630674800433,-0.219051,0.882609,0.439139
1630674800442,-0.219417,0.883829,0.433649
1630674800452,-0.221247,0.8857809999999999,0.42950099999999997
1630674800461,-0.221247,0.885537,0.426512
1630674800471,-0.221003,0.885598,0.423645
1630674800481,-0.220942,0.883524,0.421388
1630674800490,-0.221125,0.8824259999999999,0.41809399999999997
1630674800500,-0.220576,0.881755,0.41809399999999997
1630674800509,-0.21838,0.8818159999999999,0.41870399999999997
1630674800519,-0.218441,0.881145,0.418277
1630674800529,-0.217099,0.883097,0.419863
1630674800538,-0.217038,0.882975,0.421083
1630674800548,-0.216184,0.882243,0.422852
1630674800557,-0.216428,0.881938,0.423889
1630674800567,-0.21520799999999998,0.881694,0.424377
1630674800577,-0.21398799999999998,0.879803,0.426329
1630674800586,-0.21459799999999998,0.879315,0.426512
1630674800596,-0.214049,0.8784,0.427488
1630674800605,-0.21337799999999998,0.8784609999999999,0.424438
1630674800615,-0.21398799999999998,0.881938,0.421998
1630674800625,-0.214415,0.8821209999999999,0.421754
1630674800634,-0.216855,0.8775459999999999,0.421083
1630674800644,-0.216428,0.876814,0.420656
1630674800653,-0.216184,0.879803,0.419802
1630674800663,-0.216672,0.882609,0.41968
1630674800673,-0.217892,0.883707,0.41968
1630674800682,-0.218807,0.886208,0.420046
1630674800692,-0.21923399999999998,0.885903,0.420046
1630674800701,-0.220881,0.885659,0.41961899999999996
1630674800711,-0.222101,0.885964,0.419375
1630674800721,-0.223443,0.8848659999999999,0.41992399999999996
1630674800730,-0.223382,0.884988,0.420473
1630674800740,-0.223748,0.884988,0.420534
1630674800749,-0.22478499999999998,0.884683,0.421205
1630674800759,-0.225883,0.885354,0.421937
1630674800769,-0.225212,0.88511,0.421632
1630674800778,-0.225822,0.8842559999999999,0.423035
1630674800788,-0.226066,0.882853,0.42151
1630674800797,-0.227042,0.881694,0.421388
1630674800807,-0.22691999999999998,0.881633,0.421449
1630674800817,-0.22691999999999998,0.882792,0.420534
1630674800826,-0.227957,0.881877,0.420656
1630674800836,-0.22783499999999998,0.882304,0.42022899999999996
1630674800845,-0.22783499999999998,0.881145,0.419558
1630674800855,-0.227591,0.8821209999999999,0.420717
1630674800865,-0.227408,0.88206,0.420656
1630674800874,-0.227591,0.882182,0.420046
1630674800884,-0.227286,0.88206,0.419985
1630674800893,-0.227408,0.882914,0.419558
1630674800903,-0.22630999999999998,0.882975,0.419985
1630674800913,-0.225578,0.882304,0.42029
1630674800922,-0.224541,0.88145,0.420046
1630674800932,-0.224968,0.881694,0.420961
1630674800941,-0.224297,0.8805959999999999,0.421693
1630674800951,-0.224236,0.880413,0.422303
1630674800961,-0.222772,0.8812059999999999,0.422486
1630674800970,-0.223138,0.88023,0.422913
1630674800980,-0.22228399999999998,0.880352,0.422486
1630674800989,-0.221613,0.880047,0.424255
1630674800999,-0.22082,0.880779,0.42517
1630674801009,-0.22021,0.8812059999999999,0.425475
1630674801018,-0.2196,0.880352,0.425292
1630674801028,-0.22082,0.878705,0.424743
1630674801037,-0.219966,0.8781559999999999,0.424682
1630674801047,-0.219478,0.878644,0.425292
1630674801057,-0.21899,0.880047,0.42584099999999997
1630674801066,-0.218258,0.8821209999999999,0.426268
1630674801076,-0.21923399999999998,0.8830359999999999,0.425048
1630674801085,-0.219905,0.882914,0.42340099999999997
1630674801095,-0.22082,0.8830359999999999,0.422852
1630674801105,-0.219966,0.880474,0.423889
1630674801114,-0.220027,0.880169,0.423767
1630674801124,-0.22021,0.884744,0.42212
1630674801133,-0.2196,0.8848659999999999,0.42022899999999996
1630674801143,-0.219295,0.883097,0.41931399999999996
1630674801153,-0.2196,0.885354,0.41968
1630674801162,-0.219356,0.886635,0.419253
1630674801172,-0.219966,0.882975,0.420412
1630674801181,-0.22143,0.879803,0.421266
1630674801191,-0.22143,0.880352,0.42309599999999997
1630674801201,-0.22045399999999998,0.881328,0.424133
1630674801210,-0.219783,0.882304,0.424987
1630674801220,-0.220637,0.88389,0.42492599999999997
1630674801229,-0.221125,0.885964,0.423523
1630674801239,-0.221796,0.8857809999999999,0.423157
1630674801249,-0.223138,0.884988,0.421632
1630674801258,-0.223382,0.885598,0.42022899999999996
1630674801268,-0.223443,0.884195,0.420351
1630674801277,-0.222589,0.884012,0.418948
1630674801287,-0.222955,0.8845,0.417728
1630674801297,-0.222955,0.884988,0.416081
1630674801306,-0.22197899999999998,0.884195,0.414556
1630674801316,-0.222528,0.883402,0.414251
1630674801325,-0.223016,0.881694,0.413946
1630674801335,-0.224297,0.881267,0.41321399999999997
1630674801345,-0.223748,0.882487,0.413763
1630674801354,-0.222772,0.882975,0.413031
1630674801364,-0.224236,0.882792,0.41382399999999997
1630674801373,-0.224541,0.883707,0.417301
1630674801383,-0.223626,0.88267,0.416325
1630674801393,-0.224114,0.886513,0.416508
1630674801402,-0.223504,0.887489,0.416996
1630674801412,-0.225151,0.8824259999999999,0.41663
1630674801421,-0.225944,0.877424,0.417728
1630674801431,-0.225578,0.878827,0.416386
1630674801441,-0.224968,0.881694,0.413946
1630674801450,-0.225273,0.883158,0.41321399999999997
1630674801460,-0.225273,0.883768,0.414068
1630674801469,-0.225456,0.885537,0.41419
1630674801479,-0.225883,0.8857809999999999,0.413336
1630674801489,-0.226432,0.886513,0.413641
1630674801498,-0.226188,0.8866959999999999,0.413458
1630674801508,-0.227408,0.887062,0.414922
1630674801517,-0.227286,0.886757,0.41626399999999997
1630674801527,-0.226554,0.886208,0.416752
1630674801537,-0.226676,0.885293,0.417423
1630674801546,-0.22661499999999998,0.884744,0.417911
1630674801556,-0.22478499999999998,0.885598,0.41870399999999997
1630674801565,-0.22478499999999998,0.884073,0.41961899999999996
1630674801575,-0.225212,0.884073,0.41931399999999996
1630674801585,-0.224846,0.883524,0.418826
1630674801594,-0.224358,0.88267,0.419436
1630674801604,-0.224724,0.8836459999999999,0.418338
1630674801613,-0.225029,0.8827309999999999,0.418948
1630674801623,-0.224846,0.8836459999999999,0.41870399999999997
1630674801633,-0.223748,0.884317,0.41785
1630674801642,-0.22386999999999999,0.884317,0.41846
1630674801652,-0.223809,0.884073,0.41748399999999997
1630674801661,-0.22386999999999999,0.8836459999999999,0.416203
1630674801671,-0.222711,0.88389,0.415227
1630674801681,-0.223321,0.884134,0.415288
1630674801690,-0.22228399999999998,0.8836459999999999,0.41419
1630674801700,-0.222467,0.8839509999999999,0.414556
1630674801709,-0.222528,0.8833409999999999,0.41412899999999997
1630674801719,-0.221735,0.8833409999999999,0.414495
1630674801729,-0.221491,0.8836459999999999,0.414678
1630674801738,-0.22143,0.883463,0.415471
1630674801748,-0.219905,0.883768,0.417118
1630674801757,-0.22014899999999998,0.884378,0.418216
1630674801767,-0.219478,0.884012,0.418765
1630674801777,-0.219966,0.883158,0.419131
1630674801786,-0.219966,0.8833409999999999,0.41961899999999996
1630674801796,-0.21899,0.8833409999999999,0.420351
1630674801805,-0.218868,0.882975,0.421266
1630674801815,-0.21899,0.8818159999999999,0.420046
1630674801825,-0.219112,0.879742,0.41968
1630674801834,-0.219417,0.8805959999999999,0.419375
1630674801844,-0.219051,0.882304,0.420717
1630674801853,-0.219112,0.883402,0.421693
1630674801863,-0.219356,0.884439,0.422242
1630674801873,-0.219783,0.8860859999999999,0.422913
1630674801882,-0.2196,0.885354,0.42273
1630674801892,-0.22021,0.883158,0.42395
1630674801901,-0.22021,0.882609,0.42456
1630674801911,-0.220271,0.884439,0.424194
1630674801921,-0.2196,0.8845,0.421266
1630674801930,-0.219112,0.882243,0.419497
1630674801940,-0.219966,0.884622,0.418582
1630674801949,-0.219356,0.886452,0.41870399999999997
1630674801959,-0.219966,0.8821209999999999,0.420656
1630674801969,-0.220576,0.8781559999999999,0.421876
1630674801978,-0.221186,0.877912,0.42309599999999997
1630674801988,-0.221125,0.879742,0.42401099999999997
1630674801997,-0.22075899999999998,0.881877,0.426024
1630674802007,-0.221247,0.88389,0.426085
1630674802017,-0.221186,0.8848659999999999,0.42639
1630674802026,-0.222162,0.8851709999999999,0.424804
1630674802036,-0.22265,0.884744,0.422608
1630674802045,-0.22386999999999999,0.883707,0.420717
1630674802055,-0.224114,0.8836459999999999,0.41907
1630674802065,-0.223809,0.884073,0.417667
1630674802074,-0.223809,0.883768,0.415227
1630674802084,-0.222833,0.884073,0.4148
1630674802093,-0.223016,0.883219,0.41504399999999997
1630674802103,-0.22265,0.8827309999999999,0.41534899999999997
1630674802113,-0.222162,0.881938,0.415166
1630674802122,-0.223199,0.881084,0.416691
1630674802132,-0.222101,0.880657,0.417423
1630674802141,-0.222528,0.881694,0.418643
1630674802151,-0.221613,0.881938,0.420107
1630674802161,-0.222528,0.880535,0.422364
1630674802170,-0.221918,0.8812059999999999,0.422608
1630674802180,-0.222406,0.884134,0.421937
1630674802189,-0.221918,0.886025,0.420961
1630674802199,-0.222833,0.88328,0.421388
1630674802209,-0.222467,0.881084,0.423218
1630674802218,-0.222528,0.880352,0.424743
1630674802228,-0.222467,0.880718,0.423645
1630674802237,-0.222772,0.881938,0.422608
1630674802247,-0.222955,0.883524,0.419985
1630674802257,-0.223443,0.884378,0.418521
1630674802266,-0.223992,0.8854759999999999,0.417972
1630674802276,-0.223626,0.885903,0.41839899999999997
1630674802285,-0.224297,0.88572,0.418765
1630674802295,-0.223626,0.884927,0.418948
1630674802305,-0.223748,0.884683,0.41809399999999997
1630674802314,-0.223626,0.883585,0.41846
1630674802324,-0.22356499999999999,0.882914,0.41931399999999996
1630674802333,-0.222894,0.882609,0.420046
1630674802343,-0.222772,0.881938,0.421144
1630674802353,-0.222589,0.881694,0.422303
1630674802362,-0.221796,0.8812059999999999,0.42273
1630674802372,-0.223138,0.88145,0.422486
1630674802381,-0.222894,0.8815109999999999,0.422059
1630674802391,-0.223443,0.881267,0.421937
1630674802401,-0.223138,0.88145,0.420473
1630674802410,-0.223199,0.882304,0.41870399999999997
1630674802420,-0.22386999999999999,0.883097,0.419436
1630674802429,-0.223443,0.883463,0.419192
1630674802439,-0.223016,0.885232,0.418765
1630674802449,-0.223138,0.884622,0.41785
1630674802458,-0.22228399999999998,0.884805,0.416935
1630674802468,-0.222894,0.883585,0.41565399999999997
1630674802477,-0.222162,0.8830359999999999,0.415776
1630674802487,-0.221735,0.882365,0.415715
1630674802497,-0.221796,0.882853,0.41626399999999997
1630674802506,-0.222162,0.88267,0.416935
1630674802516,-0.223138,0.883463,0.417911
1630674802525,-0.224053,0.887367,0.416996
1630674802535,-0.22386999999999999,0.888465,0.415288
1630674802545,-0.224907,0.886879,0.415227
1630674802554,-0.225334,0.885537,0.416813
1630674802564,-0.225212,0.884439,0.417667
1630674802573,-0.223504,0.88389,0.420107
1630674802583,-0.22167399999999998,0.884378,0.422852
1630674802593,-0.219966,0.882975,0.42614599999999997
1630674802602,-0.218075,0.881633,0.428037
1630674802612,-0.216672,0.880413,0.429989
1630674802621,-0.215269,0.8805959999999999,0.430172
1630674802631,-0.21411,0.879315,0.43188
1630674802641,-0.213622,0.876448,0.431575
1630674802650,-0.213256,0.876814,0.431514
1630674802660,-0.212829,0.879254,0.432307
1630674802669,-0.212036,0.8815109999999999,0.43127
1630674802679,-0.211914,0.882792,0.42950099999999997
1630674802689,-0.212036,0.882792,0.429562
1630674802698,-0.211365,0.879132,0.429257
1630674802708,-0.210694,0.880657,0.428464
1630674802717,-0.210267,0.881999,0.42761
1630674802727,-0.209169,0.881023,0.42639
1630674802737,-0.20843699999999998,0.879864,0.424499
1630674802746,-0.209291,0.884073,0.42340099999999997
1630674802756,-0.209291,0.8830359999999999,0.423584
1630674802765,-0.21045,0.8775459999999999,0.424804
1630674802775,-0.212402,0.87413,0.425353
1630674802785,-0.213012,0.876204,0.42553599999999997
1630674802794,-0.211121,0.877668,0.42822
1630674802804,-0.211487,0.879742,0.429989
1630674802813,-0.212219,0.8839509999999999,0.43102599999999996
1630674802823,-0.211304,0.886879,0.430233
1630674802833,-0.211243,0.886635,0.42797599999999997
1630674802842,-0.210816,0.8836459999999999,0.426207
1630674802852,-0.210633,0.880535,0.426268
1630674802861,-0.21106,0.878217,0.42675599999999997
1630674802871,-0.21045,0.878339,0.427427
1630674802881,-0.210145,0.878095,0.428647
1630674802890,-0.209291,0.878949,0.430355
1630674802900,-0.208559,0.880535,0.432063
1630674802909,-0.207949,0.881633,0.434076
1630674802919,-0.206973,0.882304,0.435235
1630674802929,-0.208376,0.8824259999999999,0.436516
1630674802938,-0.20874199999999998,0.8815109999999999,0.436211
1630674802948,-0.207888,0.88206,0.437004
1630674802957,-0.208254,0.880474,0.438346
1630674802967,-0.206668,0.879254,0.438712
1630674802977,-0.206851,0.880352,0.437614
1630674802986,-0.207461,0.8830359999999999,0.436516
1630674802996,-0.207034,0.8787659999999999,0.436394
1630674803005,-0.207705,0.875289,0.43816299999999997
1630674803015,-0.208193,0.87535,0.438529
1630674803025,-0.206668,0.8775459999999999,0.438712
1630674803034,-0.205448,0.87962,0.437675
1630674803044,-0.205265,0.88145,0.43737
1630674803053,-0.205204,0.881938,0.436394
1630674803063,-0.205326,0.881877,0.43541799999999997
1630674803073,-0.20691199999999998,0.879742,0.434076
1630674803082,-0.20752199999999998,0.87962,0.433771
1630674803092,-0.20782699999999998,0.879132,0.434076
1630674803101,-0.20691199999999998,0.8790709999999999,0.434015
1630674803111,-0.208315,0.8772409999999999,0.435052
1630674803121,-0.20801,0.877668,0.43694299999999997
1630674803130,-0.209291,0.8784,0.437675
1630674803140,-0.209901,0.879193,0.439444
1630674803149,-0.209169,0.881145,0.43968799999999997
1630674803159,-0.210267,0.881267,0.440115
1630674803169,-0.210877,0.8796809999999999,0.439444
1630674803178,-0.211304,0.880169,0.438529
1630674803188,-0.210938,0.8799859999999999,0.437126
1630674803197,-0.21215799999999999,0.87962,0.435601
1630674803207,-0.212219,0.879193,0.435052
1630674803217,-0.21154799999999999,0.878949,0.434015
1630674803226,-0.21045,0.877973,0.433405
1630674803236,-0.211609,0.8781559999999999,0.431453
1630674803245,-0.212524,0.87718,0.430294
1630674803255,-0.212646,0.877729,0.429623
1630674803265,-0.21246299999999999,0.878217,0.429989
1630674803274,-0.212097,0.877973,0.429867
1630674803284,-0.212829,0.8781559999999999,0.43005
1630674803293,-0.212829,0.878095,0.43072099999999997
1630674803303,-0.213317,0.878095,0.43066
1630674803313,-0.214171,0.877912,0.431392
1630674803322,-0.213195,0.876204,0.431148
1630674803332,-0.213256,0.87718,0.430172
1630674803341,-0.214232,0.87657,0.431758
1630674803351,-0.21429299999999998,0.87657,0.431209
1630674803361,-0.214964,0.876814,0.43255099999999996
1630674803370,-0.214415,0.876814,0.431514
1630674803380,-0.21472,0.8781559999999999,0.43133099999999996
1630674803389,-0.214842,0.8793759999999999,0.431697
1630674803399,-0.215696,0.88023,0.43133099999999996
1630674803409,-0.215757,0.879498,0.430233
1630674803418,-0.216245,0.87962,0.429745
1630674803428,-0.216794,0.878522,0.430538
1630674803437,-0.216794,0.8784,0.431087
1630674803447,-0.216001,0.87962,0.431758
1630674803457,-0.216001,0.880169,0.433466
1630674803466,-0.21594,0.880962,0.433893
1630674803476,-0.215879,0.880413,0.434259
1630674803485,-0.216184,0.880657,0.433771
1630674803495,-0.215452,0.87962,0.435906
1630674803505,-0.21551299999999998,0.8775459999999999,0.436821
1630674803514,-0.21581799999999998,0.880108,0.434503
1630674803524,-0.214659,0.881694,0.433588
1630674803533,-0.21398799999999998,0.8787659999999999,0.43072099999999997
1630674803543,-0.213317,0.880169,0.42944
1630674803553,-0.21368299999999998,0.882853,0.428769
1630674803562,-0.214842,0.882609,0.428342
1630674803572,-0.215574,0.877973,0.429684
1630674803581,-0.21581799999999998,0.877973,0.430965
1630674803591,-0.214476,0.87901,0.432429
1630674803601,-0.213317,0.880718,0.433039
1630674803610,-0.21398799999999998,0.881267,0.432795
1630674803620,-0.214171,0.88206,0.432917
1630674803629,-0.213622,0.882914,0.432734
1630674803639,-0.2135,0.882609,0.432612
1630674803649,-0.21289,0.880535,0.431148
1630674803658,-0.214232,0.879925,0.43127
1630674803668,-0.2135,0.879193,0.43041599999999997
1630674803677,-0.213561,0.878705,0.429989
1630674803687,-0.212524,0.87779,0.42883
1630674803697,-0.213012,0.878339,0.427122
1630674803706,-0.212036,0.877607,0.427732
1630674803716,-0.211304,0.876753,0.42822
1630674803725,-0.212524,0.877302,0.42767099999999997
1630674803735,-0.212829,0.878827,0.42767099999999997
1630674803745,-0.212829,0.8793759999999999,0.428098
1630674803754,-0.212951,0.88145,0.429928
1630674803764,-0.21289,0.88084,0.43066
1630674803773,-0.212646,0.87901,0.429684
1630674803783,-0.212585,0.882792,0.428708
1630674803793,-0.21289,0.884439,0.427122
1630674803802,-0.214415,0.880047,0.427
1630674803812,-0.214537,0.877668,0.427549
1630674803821,-0.215086,0.877973,0.427427
1630674803831,-0.21459799999999998,0.87962,0.428098
1630674803841,-0.21472,0.879864,0.42858599999999997
1630674803850,-0.21533,0.8802909999999999,0.429379
1630674803860,-0.215879,0.882792,0.429745
1630674803869,-0.216977,0.882609,0.43011099999999997
1630674803879,-0.216489,0.881938,0.43127
1630674803889,-0.217343,0.880962,0.431209
1630674803898,-0.217282,0.880779,0.430904
1630674803908,-0.217099,0.880657,0.431209
1630674803917,-0.217282,0.880779,0.430904
1630674803927,-0.217465,0.881328,0.429745
1630674803937,-0.217831,0.881633,0.42889099999999997
1630674803946,-0.217953,0.881023,0.427854
1630674803956,-0.217831,0.880718,0.426573
1630674803965,-0.21831899999999999,0.88023,0.426268
1630674803975,-0.219173,0.880962,0.427
1630674803985,-0.217404,0.881389,0.427183
1630674803994,-0.218258,0.880413,0.42736599999999997
1630674804004,-0.218868,0.880413,0.42736599999999997
1630674804013,-0.219173,0.8799859999999999,0.427244
1630674804023,-0.21984399999999998,0.879437,0.427244
1630674804033,-0.2196,0.8805959999999999,0.426573
1630674804042,-0.21923399999999998,0.880474,0.426817
1630674804052,-0.219173,0.880352,0.425963
1630674804061,-0.21984399999999998,0.880352,0.426207
1630674804071,-0.219112,0.880535,0.425719
1630674804081,-0.21899,0.8809009999999999,0.42492599999999997
1630674804090,-0.218563,0.880779,0.42395
1630674804100,-0.218807,0.880474,0.424072
1630674804109,-0.21899,0.881389,0.42340099999999997
1630674804119,-0.218075,0.882243,0.423462
1630674804129,-0.218868,0.8812059999999999,0.42309599999999997
1630674804138,-0.217892,0.881084,0.423767
1630674804148,-0.21770899999999999,0.88145,0.423462
1630674804157,-0.217282,0.8812059999999999,0.424072
1630674804167,-0.217648,0.88084,0.424255
1630674804177,-0.217282,0.881267,0.425292
1630674804186,-0.216062,0.881694,0.426878
1630674804196,-0.217343,0.881389,0.42736599999999997
1630674804205,-0.216672,0.8812059999999999,0.42767099999999997
1630674804215,-0.21581799999999998,0.880413,0.426695
1630674804225,-0.215269,0.878888,0.426878
1630674804234,-0.215879,0.878522,0.42706099999999997
1630674804244,-0.216428,0.878705,0.426878
1630674804253,-0.217404,0.879864,0.42584099999999997
1630674804263,-0.21655,0.880779,0.426878
1630674804273,-0.216794,0.882365,0.42736599999999997
1630674804282,-0.216611,0.883158,0.426939
1630674804292,-0.217892,0.882853,0.42639
1630674804301,-0.218746,0.882304,0.42675599999999997
1630674804311,-0.21899,0.880657,0.427732
1630674804321,-0.219417,0.88267,0.427122
1630674804330,-0.218868,0.8851709999999999,0.425292
1630674804340,-0.216733,0.8812059999999999,0.424438
1630674804349,-0.217404,0.88267,0.424194
1630674804359,-0.217221,0.882792,0.42401099999999997
1630674804369,-0.217404,0.8809009999999999,0.423828
1630674804378,-0.21923399999999998,0.878217,0.42492599999999997
1630674804388,-0.219051,0.8772409999999999,0.425902
1630674804397,-0.219112,0.878034,0.427305
1630674804407,-0.21831899999999999,0.879254,0.42828099999999997
1630674804417,-0.218685,0.880962,0.43011099999999997
1630674804426,-0.21838,0.883158,0.429989
1630674804436,-0.21899,0.883219,0.429623
1630674804445,-0.220271,0.88267,0.429623
1630674804455,-0.219966,0.881938,0.428464
1630674804465,-0.21984399999999998,0.881877,0.426512
1630674804474,-0.219356,0.8809009999999999,0.425658
1630674804484,-0.218441,0.8815109999999999,0.42431599999999997
1630674804493,-0.218502,0.88145,0.421632
1630674804503,-0.21777,0.880779,0.421205
1630674804513,-0.217831,0.879742,0.420778
1630674804522,-0.217526,0.879193,0.421632
1630674804532,-0.217282,0.8787659999999999,0.421754
1630674804541,-0.217587,0.878949,0.42273
1630674804551,-0.217465,0.878949,0.425109
1630674804561,-0.217465,0.879864,0.42767099999999997
1630674804570,-0.216733,0.880535,0.42889099999999997
1630674804580,-0.215452,0.879864,0.430294
1630674804589,-0.217282,0.881084,0.429989
1630674804599,-0.216428,0.883585,0.429135
1630674804609,-0.216672,0.881084,0.428952
1630674804618,-0.219051,0.877485,0.428464
1630674804628,-0.218075,0.877119,0.427854
1630674804637,-0.217282,0.879498,0.427915
1630674804647,-0.216611,0.8799859999999999,0.426817
1630674804657,-0.217221,0.881145,0.426024
1630674804666,-0.218258,0.88328,0.426268
1630674804676,-0.21862399999999999,0.883585,0.425292
1630674804685,-0.218746,0.8830359999999999,0.42645099999999997
1630674804695,-0.21862399999999999,0.883524,0.426207
1630674804705,-0.219173,0.881755,0.425414
1630674804714,-0.21892899999999998,0.88206,0.42675599999999997
1630674804724,-0.218502,0.881572,0.426634
1630674804733,-0.218563,0.881267,0.42736599999999997
1630674804743,-0.217953,0.880535,0.428708
1630674804753,-0.218136,0.8796809999999999,0.42767099999999997
1630674804762,-0.218441,0.88023,0.428037
1630674804772,-0.21831899999999999,0.880535,0.428647
1630674804781,-0.218258,0.880108,0.429379
1630674804791,-0.219478,0.879864,0.428464
1630674804801,-0.219417,0.879803,0.42828099999999997
1630674804810,-0.220515,0.879864,0.426878
1630674804820,-0.220088,0.88023,0.42584099999999997
1630674804829,-0.220881,0.882243,0.425597
1630674804839,-0.220576,0.88267,0.425109
1630674804849,-0.220332,0.882243,0.425109
1630674804858,-0.22021,0.881999,0.424743
1630674804868,-0.219417,0.882304,0.42492599999999997
1630674804877,-0.218807,0.881755,0.424804
1630674804887,-0.218502,0.88084,0.424377
1630674804897,-0.218197,0.879498,0.423157
1630674804906,-0.217953,0.8793759999999999,0.424377
1630674804916,-0.218075,0.877912,0.42395
1630674804925,-0.21801399999999999,0.879254,0.425109
1630674804935,-0.217587,0.8799859999999999,0.425719
1630674804945,-0.21716,0.8793759999999999,0.426512
1630674804954,-0.217648,0.8796809999999999,0.42822
1630674804964,-0.21777,0.879437,0.42883
1630674804973,-0.216794,0.8802909999999999,0.43005
1630674804983,-0.216672,0.879742,0.428464
1630674804993,-0.216062,0.8799859999999999,0.42944
1630674805002,-0.216794,0.879742,0.428769
1630674805012,-0.217343,0.880718,0.428403
1630674805021,-0.217099,0.8805959999999999,0.429013
1630674805031,-0.21716,0.879498,0.427732
1630674805041,-0.21716,0.879254,0.427793
1630674805050,-0.217648,0.87901,0.42822
1630674805060,-0.217648,0.8799859999999999,0.42919599999999997
1630674805069,-0.217648,0.880108,0.429623
1630674805079,-0.216855,0.881328,0.431453
1630674805089,-0.218136,0.882792,0.431453
1630674805098,-0.218136,0.882853,0.431148
1630674805108,-0.2196,0.881877,0.429989
1630674805117,-0.219661,0.879559,0.430355
1630674805127,-0.219661,0.878888,0.430294
1630674805137,-0.21899,0.881084,0.428647
1630674805146,-0.218441,0.8818159999999999,0.427
1630674805156,-0.217892,0.880535,0.425109
1630674805165,-0.218136,0.882487,0.424072
1630674805175,-0.218075,0.8827309999999999,0.42431599999999997
1630674805185,-0.218746,0.878827,0.42517
1630674805194,-0.21953899999999998,0.8754109999999999,0.42614599999999997
1630674805204,-0.219112,0.876204,0.428159
1630674805213,-0.21862399999999999,0.878217,0.429867
1630674805223,-0.218258,0.879437,0.43041599999999997
1630674805233,-0.219112,0.881633,0.430782
1630674805242,-0.219051,0.8827309999999999,0.43133099999999996
1630674805252,-0.21862399999999999,0.882487,0.430294
1630674805261,-0.21953899999999998,0.8818159999999999,0.428708
1630674805271,-0.21899,0.881267,0.427305
1630674805281,-0.219356,0.8802909999999999,0.426573
1630674805290,-0.218258,0.880169,0.42492599999999997
1630674805300,-0.217526,0.879864,0.42334
1630674805309,-0.217831,0.8805959999999999,0.421693
1630674805319,-0.216306,0.8787659999999999,0.422303
1630674805329,-0.216062,0.879925,0.422059
1630674805338,-0.216062,0.8784609999999999,0.422608
1630674805348,-0.216672,0.8787659999999999,0.423157
1630674805357,-0.216062,0.879559,0.424438
1630674805367,-0.216794,0.879132,0.426207
1630674805377,-0.216672,0.878827,0.429013
1630674805386,-0.216001,0.8790709999999999,0.43066
1630674805396,-0.216184,0.8799859999999999,0.429989
1630674805405,-0.21777,0.883097,0.43011099999999997
1630674805415,-0.216916,0.883097,0.429867
1630674805425,-0.218075,0.879559,0.430233
1630674805434,-0.218197,0.87718,0.429074
1630674805444,-0.218197,0.878522,0.429135
1630674805453,-0.218685,0.881328,0.427793
1630674805463,-0.218746,0.8821209999999999,0.426024
1630674805473,-0.21953899999999998,0.882304,0.425963
1630674805482,-0.220393,0.88328,0.425719
1630674805492,-0.22082,0.884073,0.425902
1630674805501,-0.220088,0.883768,0.42578
1630674805511,-0.220515,0.882975,0.427122
1630674805521,-0.22021,0.8818159999999999,0.427793
1630674805530,-0.21984399999999998,0.880413,0.428098
1630674805540,-0.220271,0.87901,0.42828099999999997
1630674805549,-0.219966,0.879193,0.429257
1630674805559,-0.220576,0.878644,0.429074
1630674805569,-0.22082,0.878583,0.42889099999999997
1630674805578,-0.220942,0.87901,0.429013
1630674805588,-0.220698,0.878888,0.428708
1630674805597,-0.22167399999999998,0.8787659999999999,0.428037
1630674805607,-0.22143,0.878888,0.428159
1630674805617,-0.221247,0.879559,0.427244
1630674805626,-0.22197899999999998,0.879803,0.427549
1630674805636,-0.22167399999999998,0.879925,0.426878
1630674805645,-0.223382,0.880413,0.426207
1630674805655,-0.221796,0.88084,0.42517
1630674805665,-0.22082,0.880413,0.42639
1630674805674,-0.220393,0.880779,0.425902
1630674805684,-0.220576,0.88023,0.42639
1630674805693,-0.219417,0.879742,0.42639
1630674805703,-0.218746,0.879437,0.427183
1630674805713,-0.219173,0.8790709999999999,0.428037
1630674805722,-0.21862399999999999,0.879132,0.427854
1630674805732,-0.218502,0.878827,0.42950099999999997
1630674805741,-0.217282,0.878583,0.43005
1630674805751,-0.217343,0.878888,0.43011099999999997
1630674805761,-0.216245,0.878827,0.43072099999999997
1630674805770,-0.216428,0.8787659999999999,0.43163599999999996
1630674805780,-0.215696,0.878278,0.43102599999999996
1630674805789,-0.216062,0.878949,0.430599
1630674805799,-0.215696,0.879559,0.430233
1630674805809,-0.215696,0.880108,0.42980599999999997
1630674805818,-0.215391,0.880108,0.428769
