timestamp,ax,ay,az
1630674781592,-0.34075927734375,0.0228271484375,0.8076171875
1630674781603,-0.2869873046875,0.01324462890625,0.79913330078125
1630674781614,-0.31256103515625,0.01910400390625,0.80657958984375
1630674781667,-0.2369384765625,-0.0128173828125,0.9366455078125
1630674781667,-0.2000732421875,-0.01116943359375,0.9803466796875
1630674781667,-0.26287841796875,0.00146484375,0.8480224609375
1630674781700,-0.16363525390625,0.028076171875,1.04571533203125
1630674781719,-0.16619873046875,0.0174560546875,1.0242919921875
1630674781722,-0.17474365234375,-0.0008544921875,1.01885986328125
1630674781748,-0.1544189453125,0.05224609375,1.04248046875
1630674781748,-0.15655517578125,0.03668212890625,1.05712890625
1630674781752,-0.15228271484375,0.04437255859375,1.05584716796875
1630674781857,-0.1478271484375,0.05419921875,1.0286865234375
1630674781857,-0.13018798828125,0.05255126953125,1.03662109375
1630674781857,-0.1419677734375,0.05157470703125,1.037841796875
1630674781884,-0.1318359375,0.044677734375,1.02069091796875
1630674781888,-0.12945556640625,0.02734375,1.0081787109375
1630674781891,-0.13092041015625,0.008056640625,0.9788818359375
1630674781932,-0.13507080078125,-0.00823974609375,0.96148681640625
1630674781935,-0.12750244140625,-0.0164794921875,0.971435546875
1630674781935,-0.11895751953125,-0.01666259765625,0.99371337890625
1630674781994,-0.1229248046875,0.00372314453125,0.9866943359375
1630674781995,-0.12396240234375,0.0167236328125,0.9700927734375
1630674781995,-0.12451171875,0.02911376953125,0.944091796875
1630674782062,-0.1278076171875,0.04193115234375,0.92535400390625
1630674782062,-0.11065673828125,0.0684814453125,0.98468017578125
1630674782062,-0.11663818359375,0.0545654296875,0.93072509765625
1630674782114,-0.06146240234375,0.041259765625,1.02008056640625
1630674782114,-0.07598876953125,0.05450439453125,1.0179443359375
1630674782117,-0.0955810546875,0.06756591796875,1.0072021484375
1630674782187,-0.0509033203125,0.01385498046875,1.06182861328125
1630674782187,-0.0513916015625,0.02423095703125,1.03546142578125
1630674782187,-0.052001953125,0.01190185546875,1.0419921875
1630674782223,-0.09283447265625,0.01361083984375,1.01739501953125
1630674782234,-0.06829833984375,0.01568603515625,1.0650634765625
1630674782235,-0.07989501953125,0.013671875,1.03753662109375
1630674782300,-0.11285400390625,0.01568603515625,1.00146484375
1630674782301,-0.14190673828125,0.00238037109375,0.95062255859375
1630674782301,-0.13446044921875,0.0086669921875,0.98846435546875
1630674782378,-0.132080078125,-0.0125732421875,0.91009521484375
1630674782380,-0.12286376953125,-0.01153564453125,0.9268798828125
1630674782383,-0.13763427734375,-0.005615234375,0.91888427734375
1630674782407,-0.07275390625,-0.001220703125,0.976806640625
1630674782409,-0.08740234375,-0.005126953125,0.939208984375
1630674782409,-0.11163330078125,-0.0074462890625,0.93450927734375
1630674782470,-0.0260009765625,0.02972412109375,1.04925537109375
1630674782470,-0.05950927734375,0.01641845703125,0.9986572265625
1630674782470,-0.0440673828125,0.01885986328125,1.02386474609375
1630674782535,-0.02606201171875,0.0989990234375,1.07989501953125
1630674782535,-0.022216796875,0.07403564453125,1.09246826171875
1630674782536,-0.01483154296875,0.04461669921875,1.07861328125
1630674782581,-0.03973388671875,0.11444091796875,1.0439453125
1630674782581,-0.0596923828125,0.09429931640625,0.96624755859375
1630674782581,-0.0499267578125,0.11322021484375,0.99786376953125
1630674782652,-0.06890869140625,0.04486083984375,0.97210693359375
1630674782652,-0.06634521484375,0.03076171875,0.98162841796875
1630674782652,-0.06390380859375,0.06866455078125,0.95660400390625
1630674782718,-0.06561279296875,0.0220947265625,0.98736572265625
1630674782719,-0.06390380859375,0.02313232421875,0.9765625
1630674782719,-0.06207275390625,0.02984619140625,0.9827880859375
1630674782785,-0.05712890625,0.03790283203125,1.00628662109375
1630674782785,-0.0552978515625,0.04339599609375,1.01025390625
1630674782785,-0.0523681640625,0.0482177734375,1.001953125
1630674782852,-0.06005859375,0.0545654296875,0.99102783203125
1630674782866,-0.0511474609375,0.0517578125,0.994140625
1630674782867,-0.05694580078125,0.0528564453125,0.98748779296875
1630674782898,-0.059814453125,0.0565185546875,0.9962158203125
1630674782898,-0.0528564453125,0.05804443359375,1.0118408203125
1630674782898,-0.05670166015625,0.0596923828125,1.01287841796875
1630674782946,-0.05389404296875,0.05267333984375,1.00927734375
1630674782960,-0.05596923828125,0.0462646484375,1.0042724609375
1630674782960,-0.05487060546875,0.04302978515625,1.00445556640625
1630674783024,-0.05657958984375,0.04364013671875,1.00360107421875
1630674783024,-0.05865478515625,0.044189453125,1.0059814453125
1630674783025,-0.05999755859375,0.0390625,1.0006103515625
1630674783072,-0.06097412109375,0.05126953125,1.00146484375
1630674783072,-0.0645751953125,0.05584716796875,0.9957275390625
1630674783073,-0.06005859375,0.0543212890625,0.99810791015625
1630674783116,-0.06500244140625,0.05621337890625,0.98992919921875
1630674783116,-0.06439208984375,0.05322265625,0.98974609375
1630674783120,-0.0631103515625,0.05523681640625,0.99005126953125
1630674783184,-0.0623779296875,0.04949951171875,0.99755859375
1630674783185,-0.0650634765625,0.05535888671875,0.99017333984375
1630674783185,-0.06463623046875,0.0513916015625,0.99908447265625
1630674783271,-0.05511474609375,0.0528564453125,1.00146484375
1630674783271,-0.056396484375,0.04547119140625,1.0003662109375
1630674783271,-0.05694580078125,0.05267333984375,1.00244140625
1630674783316,-0.05743408203125,0.0509033203125,0.99957275390625
1630674783317,-0.060546875,0.048583984375,0.9967041015625
1630674783319,-0.057373046875,0.05078125,1.00384521484375
1630674783346,-0.06512451171875,0.04681396484375,0.99005126953125
1630674783346,-0.06500244140625,0.03948974609375,0.99884033203125
1630674783346,-0.0645751953125,0.046875,0.9884033203125
1630674783410,-0.06146240234375,0.03466796875,0.9952392578125
1630674783410,-0.0616455078125,0.02691650390625,0.99371337890625
1630674783429,-0.064453125,0.03851318359375,0.99609375
1630674783468,-0.06182861328125,0.03009033203125,0.99005126953125
1630674783469,-0.06719970703125,0.03021240234375,0.9892578125
1630674783470,-0.0626220703125,0.0328369140625,0.99810791015625
1630674783533,-0.0623779296875,0.037841796875,1.001708984375
1630674783533,-0.06182861328125,0.03594970703125,1.0037841796875
1630674783533,-0.05926513671875,0.04046630859375,1.00787353515625
1630674783603,-0.06536865234375,0.04144287109375,1.004638671875
1630674783603,-0.063720703125,0.04327392578125,1.00335693359375
1630674783603,-0.06695556640625,0.03216552734375,1.006103515625
1630674783667,-0.07025146484375,0.03271484375,0.99871826171875
1630674783668,-0.07122802734375,0.0313720703125,0.99652099609375
1630674783671,-0.06707763671875,0.03277587890625,1.000244140625
1630674783698,-0.076171875,0.033447265625,0.9915771484375
1630674783698,-0.07354736328125,0.03411865234375,0.9951171875
1630674783699,-0.07403564453125,0.029296875,0.99420166015625
1630674783769,-0.07666015625,0.0335693359375,0.9931640625
1630674783769,-0.07537841796875,0.03155517578125,0.98931884765625
1630674783769,-0.07867431640625,0.03314208984375,0.992431640625
1630674783816,-0.075927734375,0.0322265625,0.990966796875
1630674783817,-0.077392578125,0.0301513671875,0.98992919921875
1630674783817,-0.0794677734375,0.03521728515625,0.992431640625
1630674783880,-0.07427978515625,0.0400390625,0.99285888671875
1630674783882,-0.07708740234375,0.0374755859375,0.9971923828125
1630674783896,-0.07513427734375,0.04437255859375,1.0032958984375
1630674783944,-0.07861328125,0.04205322265625,0.9952392578125
1630674783944,-0.0751953125,0.0357666015625,0.9927978515625
1630674783945,-0.07647705078125,0.04608154296875,0.9957275390625
1630674783992,-0.07537841796875,0.03802490234375,0.98382568359375
1630674783992,-0.07916259765625,0.04327392578125,0.995361328125
1630674783992,-0.0791015625,0.04058837890625,0.98577880859375
1630674784071,-0.0770263671875,0.04376220703125,0.998779296875
1630674784072,-0.0770263671875,0.04901123046875,0.99481201171875
1630674784072,-0.07684326171875,0.04864501953125,0.99615478515625
1630674784135,-0.0755615234375,0.0440673828125,0.993896484375
1630674784136,-0.0750732421875,0.04437255859375,0.997802734375
1630674784138,-0.07757568359375,0.04180908203125,0.9908447265625
1630674784219,-0.08013916015625,0.04254150390625,0.99298095703125
1630674784219,-0.07818603515625,0.04364013671875,1.0
1630674784219,-0.08154296875,0.04376220703125,0.99407958984375
1630674784252,-0.07379150390625,0.04345703125,0.998046875
1630674784252,-0.07757568359375,0.0439453125,0.99163818359375
1630674784253,-0.07275390625,0.04461669921875,0.99462890625
1630674784319,-0.07476806640625,0.0447998046875,1.00006103515625
1630674784319,-0.06866455078125,0.04107666015625,0.998779296875
1630674784319,-0.07318115234375,0.0455322265625,0.99920654296875
1630674784352,-0.07177734375,0.04345703125,1.00323486328125
1630674784355,-0.06951904296875,0.04498291015625,0.9971923828125
1630674784355,-0.07110595703125,0.04205322265625,1.001220703125
1630674784413,-0.07061767578125,0.0484619140625,0.996337890625
1630674784415,-0.072021484375,0.04248046875,0.9912109375
1630674784416,-0.0750732421875,0.04107666015625,0.99383544921875
1630674784492,-0.07037353515625,0.0491943359375,0.99493408203125
1630674784492,-0.06964111328125,0.0494384765625,0.99725341796875
1630674784504,-0.0697021484375,0.049072265625,0.99627685546875
1630674784652,-0.066650390625,0.0452880859375,1.00390625
1630674784652,-0.06781005859375,0.0487060546875,1.00592041015625
1630674784654,-0.0693359375,0.0450439453125,0.997802734375
1630674784656,-0.0657958984375,0.04241943359375,0.99444580078125
1630674784672,-0.0697021484375,0.044677734375,0.99322509765625
1630674784673,-0.0653076171875,0.04144287109375,0.99365234375
1630674784732,-0.06591796875,0.036376953125,1.00604248046875
1630674784732,-0.06561279296875,0.05023193359375,0.998046875
1630674784732,-0.0662841796875,0.04302978515625,1.00274658203125
1630674784747,-0.06329345703125,0.05084228515625,0.99749755859375
1630674784747,-0.06597900390625,0.04827880859375,0.9969482421875
1630674784750,-0.0667724609375,0.05029296875,0.9976806640625
1630674784845,-0.0634765625,0.0531005859375,0.9998779296875
1630674784846,-0.06829833984375,0.0538330078125,0.99993896484375
1630674784846,-0.0657958984375,0.0537109375,1.00189208984375
1630674784878,-0.06890869140625,0.0472412109375,0.9918212890625
1630674784879,-0.0694580078125,0.0478515625,0.99505615234375
1630674784893,-0.0704345703125,0.05059814453125,0.9920654296875
1630674784940,-0.0794677734375,0.05218505859375,1.00616455078125
1630674784940,-0.0845947265625,0.06085205078125,1.0072021484375
1630674784941,-0.09173583984375,0.05267333984375,0.9957275390625
1630674785003,-0.08746337890625,0.04632568359375,0.97589111328125
1630674785004,-0.0887451171875,0.03192138671875,0.97210693359375
1630674785004,-0.08941650390625,0.0291748046875,0.98358154296875
1630674785069,-0.09661865234375,0.0137939453125,0.980224609375
1630674785070,-0.1009521484375,0.02001953125,1.0001220703125
1630674785070,-0.0989990234375,0.0279541015625,0.99267578125
1630674785132,-0.0870361328125,0.007080078125,0.985107421875
1630674785132,-0.093505859375,0.01214599609375,0.9730224609375
1630674785132,-0.0924072265625,0.01458740234375,0.96917724609375
1630674785194,-0.04864501953125,-0.012939453125,0.98590087890625
1630674785195,-0.03314208984375,0.0048828125,1.0042724609375
1630674785196,-0.06622314453125,0.00128173828125,0.9798583984375
1630674785246,-0.01849365234375,0.0035400390625,1.04180908203125
1630674785246,-0.02801513671875,-0.00128173828125,1.0264892578125
1630674785247,-0.018798828125,0.017822265625,1.0465087890625
1630674785291,-0.02508544921875,0.03692626953125,1.0067138671875
1630674785291,-0.02044677734375,0.02142333984375,1.04193115234375
1630674785292,-0.02032470703125,0.0322265625,1.02606201171875
1630674785369,-0.02618408203125,0.04254150390625,1.0015869140625
1630674785370,-0.0423583984375,0.05010986328125,1.01025390625
1630674785371,-0.03216552734375,0.04833984375,1.003173828125
1630674785437,-0.06201171875,0.04510498046875,1.0086669921875
1630674785437,-0.078125,0.04693603515625,1.000244140625
1630674785437,-0.04827880859375,0.04974365234375,1.0159912109375
1630674785515,-0.112060546875,0.028564453125,0.97930908203125
1630674785516,-0.121826171875,0.01934814453125,0.9698486328125
1630674785516,-0.09527587890625,0.0418701171875,0.98724365234375
1630674785550,-0.11334228515625,0.02490234375,0.9581298828125
1630674785550,-0.12225341796875,0.02777099609375,0.9525146484375
1630674785567,-0.10284423828125,0.01251220703125,0.96856689453125
1630674785582,-0.095703125,0.005859375,0.99761962890625
1630674785582,-0.0872802734375,0.012939453125,1.00457763671875
1630674785583,-0.099365234375,0.00189208984375,0.99481201171875
1630674785647,-0.0709228515625,0.027587890625,0.99456787109375
1630674785647,-0.07708740234375,0.01531982421875,1.00701904296875
1630674785647,-0.07684326171875,0.02239990234375,1.00726318359375
1630674785760,-0.07391357421875,0.02008056640625,0.98541259765625
1630674785760,-0.06591796875,0.03125,0.97760009765625
1630674785761,-0.07391357421875,0.02801513671875,0.996337890625
1630674785761,-0.0723876953125,0.02740478515625,0.977783203125
1630674785762,-0.0706787109375,0.030029296875,0.9825439453125
1630674785763,-0.07135009765625,0.02056884765625,0.978759765625
1630674785857,-0.04095458984375,0.04205322265625,0.98211669921875
1630674785857,-0.0506591796875,0.04107666015625,0.97174072265625
1630674785858,-0.0574951171875,0.03289794921875,0.97314453125
1630674785911,-0.0157470703125,0.02081298828125,0.994140625
1630674785911,-0.0335693359375,0.0302734375,0.992919921875
1630674785912,-0.00128173828125,0.02008056640625,1.0106201171875
1630674785957,0.010009765625,0.03765869140625,1.0311279296875
1630674785957,0.00592041015625,0.03375244140625,1.034423828125
1630674785957,0.00189208984375,0.02728271484375,1.02130126953125
1630674785989,0.005615234375,0.04095458984375,1.0247802734375
1630674785989,-0.00225830078125,0.04119873046875,1.02154541015625
1630674785989,-0.011962890625,0.03515625,1.0078125
1630674786071,-0.00860595703125,0.03302001953125,0.99957275390625
1630674786071,-0.01080322265625,0.02978515625,1.00274658203125
1630674786071,-0.01513671875,0.0299072265625,1.007568359375
1630674786135,-0.0172119140625,0.0242919921875,1.0115966796875
1630674786136,-0.0142822265625,0.0267333984375,1.0096435546875
1630674786136,-0.017333984375,0.02642822265625,1.01263427734375
1630674786172,-0.0194091796875,0.0206298828125,1.0130615234375
1630674786173,-0.0240478515625,0.01690673828125,1.0203857421875
1630674786176,-0.02301025390625,0.02508544921875,1.008056640625
1630674786251,-0.034912109375,0.01763916015625,1.004150390625
1630674786251,-0.02947998046875,0.01806640625,1.01654052734375
1630674786251,-0.037841796875,0.01922607421875,0.99896240234375
1630674786297,-0.0491943359375,0.031005859375,0.9951171875
1630674786297,-0.04534912109375,0.02545166015625,0.9986572265625
1630674786297,-0.05047607421875,0.02838134765625,0.999267578125
1630674786391,-0.05645751953125,0.02410888671875,0.99365234375
1630674786391,-0.05743408203125,0.0255126953125,0.9957275390625
1630674786391,-0.05633544921875,0.02728271484375,0.99322509765625
1630674786437,-0.05914306640625,0.02398681640625,0.994384765625
1630674786439,-0.05828857421875,0.024169921875,0.99066162109375
1630674786439,-0.059326171875,0.01983642578125,1.0032958984375
1630674786483,-0.06585693359375,0.0201416015625,0.99273681640625
1630674786484,-0.06536865234375,0.02008056640625,0.997314453125
1630674786500,-0.06097412109375,0.01788330078125,0.9947509765625
1630674786533,-0.069091796875,0.01959228515625,0.98876953125
1630674786537,-0.0653076171875,0.01947021484375,0.99639892578125
1630674786541,-0.062255859375,0.020263671875,0.9913330078125
1630674786576,-0.06280517578125,0.0185546875,0.98992919921875
1630674786577,-0.067138671875,0.020751953125,0.99017333984375
1630674786577,-0.05938720703125,0.0191650390625,0.9969482421875
1630674786660,-0.05615234375,0.0205078125,0.99822998046875
1630674786660,-0.05548095703125,0.023681640625,0.9954833984375
1630674786660,-0.05743408203125,0.02447509765625,0.998046875
1630674786720,-0.0538330078125,0.029541015625,0.99530029296875
1630674786720,-0.05731201171875,0.0224609375,0.99114990234375
1630674786720,-0.0517578125,0.02569580078125,0.98974609375
1630674786769,-0.0526123046875,0.02447509765625,0.9940185546875
1630674786769,-0.05316162109375,0.02294921875,0.99737548828125
1630674786769,-0.0538330078125,0.0186767578125,1.00067138671875
1630674786870,-0.04766845703125,0.01092529296875,1.0074462890625
1630674786870,-0.04461669921875,0.01116943359375,1.00146484375
1630674786870,-0.046875,0.01251220703125,1.00103759765625
1630674786886,-0.0458984375,0.01568603515625,1.0035400390625
1630674786888,-0.0499267578125,0.01800537109375,0.99945068359375
1630674786888,-0.05206298828125,0.01446533203125,1.0001220703125
1630674786960,-0.0535888671875,0.02490234375,1.002685546875
1630674786960,-0.05108642578125,0.024169921875,1.0040283203125
1630674786962,-0.0516357421875,0.02264404296875,1.00103759765625
1630674787017,-0.05096435546875,0.019287109375,1.00738525390625
1630674787025,-0.05560302734375,0.031494140625,0.994873046875
1630674787025,-0.053955078125,0.02587890625,1.00445556640625
1630674787046,-0.05621337890625,0.030029296875,0.99658203125
1630674787048,-0.057373046875,0.029296875,0.99688720703125
1630674787067,-0.056884765625,0.036376953125,0.994140625
1630674787149,-0.05859375,0.0269775390625,0.9984130859375
1630674787149,-0.06134033203125,0.0294189453125,0.99627685546875
1630674787151,-0.06121826171875,0.03094482421875,0.9974365234375
1630674787168,-0.06182861328125,0.024169921875,0.99517822265625
1630674787169,-0.061767578125,0.02508544921875,0.999755859375
1630674787170,-0.05810546875,0.02557373046875,0.99359130859375
1630674787258,-0.0626220703125,0.03021240234375,0.9923095703125
1630674787258,-0.06201171875,0.0257568359375,0.9932861328125
1630674787258,-0.0606689453125,0.02423095703125,1.00146484375
1630674787324,-0.0567626953125,0.023681640625,0.99310302734375
1630674787324,-0.05731201171875,0.02001953125,0.99560546875
1630674787324,-0.0537109375,0.02490234375,1.0098876953125
1630674787417,-0.10845947265625,0.04766845703125,0.9830322265625
1630674787417,-0.055419921875,0.03509521484375,1.02490234375
1630674787417,-0.0941162109375,0.048583984375,1.00396728515625
1630674787419,-0.07672119140625,0.05145263671875,1.01751708984375
1630674787420,-0.059814453125,0.04449462890625,1.0205078125
1630674787420,-0.0521240234375,0.0433349609375,1.02984619140625
1630674787481,-0.10760498046875,0.03985595703125,0.9356689453125
1630674787481,-0.10736083984375,0.025634765625,0.94317626953125
1630674787481,-0.10968017578125,0.04827880859375,0.96331787109375
1630674787542,-0.1024169921875,0.011474609375,0.944091796875
1630674787542,-0.0849609375,-0.00933837890625,0.94232177734375
1630674787543,-0.06427001953125,-0.0289306640625,0.9285888671875
1630674787618,-0.0006103515625,-0.05377197265625,1.0413818359375
1630674787619,-0.010986328125,-0.056396484375,0.95281982421875
1630674787619,-0.03509521484375,-0.05029296875,0.91900634765625
1630674787649,0.02490234375,0.01385498046875,1.04473876953125
1630674787649,0.03277587890625,0.00836181640625,1.04913330078125
1630674787649,0.01458740234375,-0.02154541015625,1.04638671875
1630674787751,0.02001953125,0.0338134765625,1.0460205078125
1630674787752,0.017578125,0.0152587890625,1.05426025390625
1630674787752,0.01910400390625,0.01318359375,1.05078125
1630674787835,-0.04827880859375,0.0267333984375,1.015380859375
1630674787835,-0.01861572265625,0.06329345703125,1.05926513671875
1630674787836,0.00592041015625,0.08831787109375,1.0543212890625
1630674787836,-0.0291748046875,0.048095703125,1.04034423828125
1630674787837,-0.00299072265625,0.08331298828125,1.06207275390625
1630674787837,0.01312255859375,0.06689453125,1.05743408203125
1630674787895,-0.06536865234375,-0.00189208984375,1.00634765625
1630674787897,-0.07611083984375,-0.02783203125,0.96337890625
1630674787897,-0.076416015625,-0.0159912109375,0.9827880859375
1630674787942,-0.0721435546875,-0.03533935546875,0.9632568359375
1630674787963,-0.06500244140625,-0.02978515625,0.97625732421875
1630674787963,-0.06561279296875,-0.0135498046875,0.9884033203125
1630674788096,-0.0899658203125,0.00555419921875,0.99188232421875
1630674788096,-0.08843994140625,0.00048828125,0.98773193359375
1630674788096,-0.071533203125,-0.00213623046875,0.9969482421875
1630674788096,-0.0775146484375,0.00543212890625,0.99346923828125
1630674788096,-0.08514404296875,0.00054931640625,0.99481201171875
1630674788096,-0.088134765625,-0.00958251953125,0.9893798828125
1630674788143,-0.09954833984375,-0.02484130859375,0.9910888671875
1630674788143,-0.10821533203125,-0.02484130859375,0.98797607421875
1630674788144,-0.09405517578125,-0.01947021484375,0.98577880859375
1630674788163,-0.13116455078125,-0.0048828125,0.9786376953125
1630674788168,-0.11572265625,-0.01727294921875,0.9788818359375
1630674788169,-0.112548828125,-0.0252685546875,0.98077392578125
1630674788268,-0.1361083984375,0.026123046875,0.97100830078125
1630674788269,-0.13519287109375,0.01177978515625,0.96875
1630674788269,-0.1380615234375,0.0377197265625,0.966796875
1630674788300,-0.1263427734375,0.06494140625,0.9757080078125
1630674788312,-0.139404296875,0.04827880859375,0.9676513671875
1630674788322,-0.1326904296875,0.056884765625,0.973876953125
1630674788368,-0.1199951171875,0.0775146484375,0.98931884765625
1630674788368,-0.11492919921875,0.0869140625,0.99542236328125
1630674788369,-0.1170654296875,0.08282470703125,0.99365234375
1630674788470,-0.11944580078125,0.07379150390625,0.993896484375
1630674788470,-0.119140625,0.06439208984375,0.98443603515625
1630674788470,-0.112548828125,0.07904052734375,0.99554443359375
1630674788486,-0.11273193359375,0.057861328125,0.98028564453125
1630674788501,-0.11456298828125,0.05181884765625,0.98309326171875
1630674788501,-0.10650634765625,0.0455322265625,0.98931884765625
1630674788547,-0.10821533203125,0.04278564453125,0.98883056640625
1630674788548,-0.10443115234375,0.0318603515625,0.99249267578125
1630674788548,-0.09820556640625,0.02215576171875,0.99114990234375
1630674788601,-0.09844970703125,0.02960205078125,1.00445556640625
1630674788602,-0.09478759765625,0.0228271484375,0.9986572265625
1630674788612,-0.09539794921875,0.02972412109375,0.99114990234375
1630674788684,-0.09259033203125,0.0252685546875,0.9990234375
1630674788685,-0.09564208984375,0.0247802734375,1.00311279296875
1630674788685,-0.090576171875,0.02288818359375,0.99969482421875
1630674788732,-0.09039306640625,-0.003173828125,0.998779296875
1630674788732,-0.09197998046875,0.01422119140625,1.00213623046875
1630674788732,-0.087890625,-0.00244140625,1.00048828125
1630674788752,-0.08447265625,-0.0089111328125,0.99169921875
1630674788752,-0.087646484375,0.00250244140625,0.99163818359375
1630674788753,-0.08453369140625,-0.01104736328125,0.99359130859375
1630674788867,-0.08905029296875,0.025634765625,0.999755859375
1630674788868,-0.087646484375,0.00726318359375,0.99102783203125
1630674788868,-0.0887451171875,0.01800537109375,0.9864501953125
1630674788951,-0.0875244140625,0.05029296875,0.99462890625
1630674788951,-0.089111328125,0.04888916015625,0.99090576171875
1630674788951,-0.09075927734375,0.04925537109375,0.99041748046875
1630674788952,-0.0908203125,0.02752685546875,1.005126953125
1630674788952,-0.08966064453125,0.04400634765625,0.985595703125
1630674788952,-0.09033203125,0.03460693359375,0.9923095703125
1630674789050,-0.08953857421875,0.03936767578125,1.00531005859375
1630674789050,-0.08905029296875,0.04010009765625,0.991943359375
1630674789051,-0.0872802734375,0.0372314453125,0.9979248046875
1630674789051,-0.088623046875,0.03759765625,0.99542236328125
1630674789051,-0.08905029296875,0.04864501953125,0.99981689453125
1630674789066,-0.0831298828125,0.03558349609375,1.00201416015625
1630674789154,-0.091552734375,0.0404052734375,0.9888916015625
1630674789154,-0.0902099609375,0.03802490234375,0.99383544921875
1630674789154,-0.09356689453125,0.0411376953125,0.995849609375
1630674789199,-0.091064453125,0.035400390625,0.99755859375
1630674789200,-0.0908203125,0.03900146484375,0.9959716796875
1630674789200,-0.0826416015625,0.035888671875,1.0008544921875
1630674789250,-0.08837890625,0.03369140625,0.99566650390625
1630674789250,-0.0928955078125,0.031005859375,0.9925537109375
1630674789266,-0.09033203125,0.02880859375,0.9986572265625
1630674789299,-0.0877685546875,0.02349853515625,0.99249267578125
1630674789300,-0.0885009765625,0.02191162109375,0.992919921875
1630674789301,-0.08807373046875,0.0238037109375,0.994873046875
1630674789400,-0.0858154296875,0.0211181640625,0.99530029296875
1630674789400,-0.09027099609375,0.01678466796875,0.99359130859375
1630674789402,-0.0850830078125,0.02191162109375,0.98956298828125
1630674789416,-0.08837890625,0.01898193359375,0.9891357421875
1630674789417,-0.08245849609375,0.02239990234375,0.9998779296875
1630674789417,-0.087646484375,0.01702880859375,0.9962158203125
1630674789503,-0.082763671875,0.018798828125,0.988037109375
1630674789503,-0.0794677734375,0.017822265625,0.990234375
1630674789504,-0.083251953125,0.01318359375,0.99688720703125
1630674789552,-0.07672119140625,0.02288818359375,1.00146484375
1630674789552,-0.0760498046875,0.02093505859375,0.99700927734375
1630674789552,-0.080322265625,0.01934814453125,0.99267578125
1630674789636,-0.07659912109375,0.02789306640625,0.99658203125
1630674789636,-0.0770263671875,0.0299072265625,0.99871826171875
1630674789636,-0.0775146484375,0.0281982421875,0.9996337890625
1630674789667,-0.07965087890625,0.02618408203125,0.9962158203125
1630674789668,-0.07562255859375,0.026611328125,0.99688720703125
1630674789686,-0.08203125,0.0247802734375,0.99615478515625
1630674789733,-0.07806396484375,0.0347900390625,0.99285888671875
1630674789733,-0.08050537109375,0.0245361328125,0.99700927734375
1630674789746,-0.0787353515625,0.02252197265625,0.996337890625
1630674789797,-0.07781982421875,0.0321044921875,0.9949951171875
1630674789798,-0.078125,0.03106689453125,1.00030517578125
1630674789798,-0.07635498046875,0.0345458984375,1.00274658203125
1630674789847,-0.07586669921875,0.03106689453125,1.0008544921875
1630674789847,-0.07867431640625,0.03009033203125,1.00347900390625
1630674789849,-0.07659912109375,0.0252685546875,0.99774169921875
1630674789901,-0.08319091796875,0.02325439453125,0.99298095703125
1630674789914,-0.0841064453125,0.0272216796875,0.9954833984375
1630674789915,-0.08111572265625,0.02410888671875,0.9974365234375
1630674789961,-0.08380126953125,0.03179931640625,0.99200439453125
1630674789961,-0.08514404296875,0.02947998046875,0.9964599609375
1630674789961,-0.083984375,0.0301513671875,0.99688720703125
1630674790014,-0.083984375,0.02362060546875,0.99676513671875
1630674790014,-0.08245849609375,0.03314208984375,0.99188232421875
1630674790015,-0.08258056640625,0.03076171875,0.99761962890625
1630674790075,-0.08416748046875,0.02069091796875,0.99774169921875
1630674790075,-0.0855712890625,0.02056884765625,0.99493408203125
1630674790094,-0.08172607421875,0.02191162109375,0.99261474609375
1630674790137,-0.07867431640625,0.02752685546875,0.9971923828125
1630674790137,-0.08599853515625,0.0228271484375,0.993896484375
1630674790137,-0.0845947265625,0.0224609375,0.9940185546875
1630674790186,-0.08331298828125,0.02337646484375,0.9940185546875
1630674790202,-0.0821533203125,0.02099609375,0.99468994140625
1630674790202,-0.084228515625,0.0272216796875,0.995361328125
1630674790248,-0.08331298828125,0.02044677734375,0.99395751953125
1630674790249,-0.08612060546875,0.0147705078125,0.99676513671875
1630674790264,-0.0845947265625,0.02545166015625,0.9873046875
1630674790300,-0.07684326171875,0.028564453125,0.998779296875
1630674790315,-0.0810546875,0.02789306640625,1.0015869140625
1630674790315,-0.08245849609375,0.02056884765625,0.9915771484375
1630674790384,-0.077392578125,0.029541015625,0.997314453125
1630674790384,-0.07684326171875,0.031982421875,0.9954833984375
1630674790384,-0.08099365234375,0.0323486328125,0.99188232421875
1630674790431,-0.0782470703125,0.0255126953125,0.99444580078125
1630674790432,-0.0784912109375,0.0286865234375,0.9952392578125
1630674790432,-0.079345703125,0.0238037109375,0.99688720703125
1630674790498,-0.07733154296875,0.02191162109375,0.99395751953125
1630674790500,-0.07696533203125,0.02386474609375,0.99005126953125
1630674790501,-0.07989501953125,0.0242919921875,1.0029296875
1630674790531,-0.0772705078125,0.0316162109375,0.99761962890625
1630674790531,-0.07781982421875,0.02264404296875,0.992919921875
1630674790533,-0.07891845703125,0.0311279296875,0.99407958984375
1630674790601,-0.07403564453125,0.03424072265625,1.00225830078125
1630674790601,-0.07379150390625,0.032958984375,1.00372314453125
1630674790601,-0.0772705078125,0.0316162109375,0.9986572265625
1630674790648,-0.07696533203125,0.02685546875,0.99871826171875
1630674790648,-0.07611083984375,0.0302734375,0.9969482421875
1630674790648,-0.07623291015625,0.0283203125,0.9951171875
1630674790712,-0.07421875,0.03179931640625,0.99505615234375
1630674790712,-0.07373046875,0.028564453125,1.002685546875
1630674790713,-0.07611083984375,0.0372314453125,0.990234375
1630674790780,-0.08013916015625,0.03363037109375,0.9923095703125
1630674790781,-0.07781982421875,0.03118896484375,0.99774169921875
1630674790782,-0.0771484375,0.0318603515625,0.99359130859375
1630674790849,-0.07611083984375,0.02716064453125,0.9952392578125
1630674790850,-0.07891845703125,0.03228759765625,0.99566650390625
1630674790854,-0.075927734375,0.02398681640625,0.997314453125
1630674790883,-0.07391357421875,0.02471923828125,0.9989013671875
1630674790885,-0.076171875,0.0303955078125,0.99835205078125
1630674790886,-0.07342529296875,0.02783203125,0.99578857421875
1630674790955,-0.07318115234375,0.02825927734375,0.99908447265625
1630674790972,-0.0726318359375,0.028564453125,0.98895263671875
1630674790973,-0.07379150390625,0.02447509765625,1.0103759765625
1630674791018,-0.0670166015625,0.02789306640625,1.0008544921875
1630674791018,-0.07476806640625,0.02740478515625,0.9942626953125
1630674791023,-0.07281494140625,0.02545166015625,1.00225830078125
1630674791049,-0.06719970703125,0.03302001953125,0.99700927734375
1630674791049,-0.07147216796875,0.0306396484375,1.00311279296875
1630674791050,-0.070068359375,0.02435302734375,1.00006103515625
1630674791132,-0.0682373046875,0.0218505859375,0.99761962890625
1630674791133,-0.0711669921875,0.02490234375,0.9942626953125
1630674791133,-0.07208251953125,0.02618408203125,0.99212646484375
1630674791198,-0.072509765625,0.02728271484375,0.99505615234375
1630674791198,-0.07476806640625,0.031982421875,0.9990234375
1630674791198,-0.07122802734375,0.03961181640625,0.9971923828125
1630674791267,-0.0728759765625,0.029541015625,0.991943359375
1630674791267,-0.07122802734375,0.033447265625,0.9970703125
1630674791284,-0.07525634765625,0.0404052734375,0.99359130859375
1630674791298,-0.0728759765625,0.0269775390625,0.99761962890625
1630674791298,-0.07745361328125,0.02325439453125,0.999267578125
1630674791312,-0.0748291015625,0.026611328125,0.99237060546875
1630674791385,-0.0692138671875,0.03570556640625,0.99560546875
1630674791385,-0.0701904296875,0.0372314453125,0.99542236328125
1630674791385,-0.07427978515625,0.02813720703125,0.99969482421875
1630674791419,-0.07391357421875,0.03607177734375,1.0032958984375
1630674791433,-0.0726318359375,0.0372314453125,1.0006103515625
1630674791434,-0.06890869140625,0.03582763671875,1.001953125
1630674791501,-0.06787109375,0.0352783203125,1.00103759765625
1630674791501,-0.07366943359375,0.0333251953125,0.99859619140625
1630674791502,-0.07403564453125,0.034423828125,0.99945068359375
1630674791551,-0.07464599609375,0.03570556640625,0.98828125
1630674791551,-0.0740966796875,0.03564453125,0.99560546875
1630674791552,-0.07440185546875,0.03936767578125,0.98870849609375
1630674791600,-0.077392578125,0.0384521484375,0.99200439453125
1630674791601,-0.074951171875,0.03704833984375,0.9913330078125
1630674791601,-0.076416015625,0.03179931640625,0.98992919921875
1630674791733,-0.0723876953125,0.030517578125,0.99542236328125
1630674791733,-0.07501220703125,0.0289306640625,0.9979248046875
1630674791750,-0.07794189453125,0.02978515625,0.99261474609375
1630674791750,-0.070068359375,0.03179931640625,0.99981689453125
1630674791752,-0.0723876953125,0.03363037109375,0.9986572265625
1630674791753,-0.06988525390625,0.03509521484375,0.999267578125
1630674791812,-0.06927490234375,0.036865234375,1.00238037109375
1630674791812,-0.06756591796875,0.03192138671875,1.002685546875
1630674791812,-0.06121826171875,0.02618408203125,1.00189208984375
1630674791828,-0.06378173828125,0.02935791015625,0.99505615234375
1630674791828,-0.0758056640625,0.03094482421875,1.00213623046875
1630674791828,-0.0653076171875,0.02874755859375,1.003173828125
1630674791918,-0.06536865234375,0.03094482421875,0.997314453125
1630674791918,-0.07452392578125,0.0372314453125,0.9908447265625
1630674791918,-0.07427978515625,0.03424072265625,0.9930419921875
1630674791934,-0.07025146484375,0.02655029296875,0.99810791015625
1630674791941,-0.0709228515625,0.03033447265625,0.9891357421875
1630674791951,-0.06683349609375,0.03277587890625,0.98931884765625
1630674792034,-0.0697021484375,0.033935546875,0.99481201171875
1630674792034,-0.07037353515625,0.03265380859375,0.99139404296875
1630674792034,-0.06768798828125,0.03515625,0.998779296875
1630674792103,-0.0670166015625,0.0347900390625,0.9970703125
1630674792103,-0.06671142578125,0.03302001953125,0.9996337890625
1630674792103,-0.063232421875,0.03460693359375,0.996826171875
1630674792150,-0.06048583984375,0.0267333984375,1.00262451171875
1630674792151,-0.06195068359375,0.03094482421875,1.0030517578125
1630674792151,-0.0634765625,0.028564453125,1.00091552734375
1630674792229,-0.0614013671875,0.036865234375,0.994140625
1630674792229,-0.06365966796875,0.02783203125,0.9981689453125
1630674792230,-0.06671142578125,0.0372314453125,0.999755859375
1630674792246,-0.0673828125,0.0340576171875,1.0015869140625
1630674792246,-0.0648193359375,0.039306640625,0.99981689453125
1630674792247,-0.0672607421875,0.0355224609375,0.99908447265625
1630674792295,-0.06634521484375,0.0313720703125,0.99957275390625
1630674792310,-0.06854248046875,0.03131103515625,0.99261474609375
1630674792310,-0.0723876953125,0.030029296875,0.99578857421875
1630674792387,-0.06903076171875,0.03924560546875,0.99365234375
1630674792388,-0.07281494140625,0.044677734375,0.99517822265625
1630674792391,-0.0718994140625,0.0362548828125,0.9970703125
1630674792418,-0.07232666015625,0.036376953125,0.99530029296875
1630674792420,-0.07000732421875,0.04339599609375,0.99041748046875
1630674792420,-0.07183837890625,0.03985595703125,0.99285888671875
1630674792520,-0.06964111328125,0.0361328125,0.99798583984375
1630674792520,-0.06658935546875,0.03594970703125,1.00262451171875
1630674792520,-0.06695556640625,0.03173828125,0.9959716796875
1630674792584,-0.0692138671875,0.03179931640625,0.9976806640625
1630674792584,-0.06573486328125,0.03082275390625,1.00225830078125
1630674792586,-0.065673828125,0.03472900390625,0.9991455078125
1630674792614,-0.065185546875,0.0330810546875,1.000732421875
1630674792614,-0.06048583984375,0.03033447265625,0.99725341796875
1630674792615,-0.0645751953125,0.03277587890625,0.998779296875
1630674792660,-0.06561279296875,0.0333251953125,1.00140380859375
1630674792661,-0.062744140625,0.031982421875,1.00299072265625
1630674792661,-0.0638427734375,0.03558349609375,0.9930419921875
1630674792759,-0.0704345703125,0.0283203125,0.99871826171875
1630674792759,-0.064453125,0.036865234375,0.99346923828125
1630674792761,-0.070556640625,0.0316162109375,0.9998779296875
1630674792821,-0.06585693359375,0.0286865234375,0.9918212890625
1630674792822,-0.066162109375,0.02728271484375,0.9954833984375
1630674792823,-0.0655517578125,0.02899169921875,0.99725341796875
1630674792836,-0.06561279296875,0.0350341796875,0.99993896484375
1630674792836,-0.070068359375,0.0374755859375,0.9993896484375
1630674792837,-0.0667724609375,0.0328369140625,0.99853515625
1630674792950,-0.0732421875,0.02606201171875,0.99383544921875
1630674792950,-0.0689697265625,0.0355224609375,0.99859619140625
1630674792950,-0.0687255859375,0.03021240234375,0.99420166015625
1630674792950,-0.06536865234375,0.032958984375,0.99517822265625
1630674792950,-0.07318115234375,0.03106689453125,1.00494384765625
1630674792950,-0.07342529296875,0.0281982421875,0.99658203125
1630674793028,-0.0731201171875,0.0360107421875,0.991455078125
1630674793030,-0.07281494140625,0.03680419921875,0.994873046875
1630674793105,-0.07073974609375,0.03369140625,0.9967041015625
1630674793105,-0.0714111328125,0.03155517578125,0.997802734375
1630674793106,-0.0728759765625,0.033447265625,0.9990234375
1630674793147,-0.07220458984375,0.03338623046875,0.998779296875
1630674793147,-0.07049560546875,0.0296630859375,0.99700927734375
1630674793148,-0.07220458984375,0.0321044921875,0.99676513671875
1630674793199,-0.07525634765625,0.04132080078125,0.99627685546875
1630674793199,-0.07232666015625,0.0340576171875,0.99859619140625
1630674793202,-0.07421875,0.04022216796875,0.9918212890625
1630674793269,-0.07342529296875,0.03662109375,0.99365234375
1630674793269,-0.0740966796875,0.0391845703125,0.99053955078125
1630674793269,-0.07452392578125,0.03460693359375,0.99267578125
1630674793317,-0.07342529296875,0.028564453125,0.9951171875
1630674793334,-0.07354736328125,0.0321044921875,0.99072265625
1630674793335,-0.07501220703125,0.03167724609375,0.99652099609375
1630674793402,-0.06878662109375,0.0330810546875,0.99737548828125
1630674793402,-0.06756591796875,0.03460693359375,0.99658203125
1630674793403,-0.07012939453125,0.0302734375,0.99334716796875
1630674793419,-0.06683349609375,0.033203125,0.999755859375
1630674793423,-0.07000732421875,0.03302001953125,0.999755859375
1630674793424,-0.07196044921875,0.032958984375,0.99761962890625
1630674793528,-0.06866455078125,0.0341796875,1.001220703125
1630674793528,-0.0673828125,0.0355224609375,0.99609375
1630674793528,-0.06829833984375,0.0318603515625,1.000244140625
1630674793544,-0.0665283203125,0.0423583984375,0.99481201171875
1630674793544,-0.069091796875,0.040771484375,1.00347900390625
1630674793546,-0.066650390625,0.03375244140625,0.9957275390625
1630674793630,-0.06903076171875,0.02783203125,0.994873046875
1630674793632,-0.067626953125,0.0247802734375,0.99664306640625
1630674793632,-0.06781005859375,0.03033447265625,0.99847412109375
1630674793664,-0.0672607421875,0.0352783203125,0.9971923828125
1630674793664,-0.06829833984375,0.0350341796875,0.99786376953125
1630674793664,-0.06964111328125,0.032958984375,0.99468994140625
1630674793738,-0.0684814453125,0.03472900390625,0.99920654296875
1630674793739,-0.069091796875,0.04083251953125,0.99951171875
1630674793739,-0.068603515625,0.03778076171875,0.99383544921875
1630674793804,-0.0679931640625,0.02685546875,0.99822998046875
1630674793804,-0.07122802734375,0.02960205078125,0.9970703125
1630674793804,-0.070068359375,0.0272216796875,0.99578857421875
1630674793867,-0.07098388671875,0.042236328125,0.98944091796875
1630674793868,-0.0714111328125,0.03179931640625,0.9969482421875
1630674793868,-0.07073974609375,0.0301513671875,0.9940185546875
1630674793887,-0.06927490234375,0.038818359375,0.99542236328125
1630674793888,-0.07110595703125,0.0386962890625,0.99322509765625
1630674793888,-0.06903076171875,0.03826904296875,0.99420166015625
1630674793995,-0.07049560546875,0.0357666015625,0.99853515625
1630674793995,-0.0655517578125,0.03045654296875,1.00048828125
1630674793996,-0.06884765625,0.0338134765625,1.0037841796875
1630674794049,-0.06781005859375,0.03729248046875,0.997802734375
1630674794049,-0.06561279296875,0.03533935546875,0.99981689453125
1630674794049,-0.0733642578125,0.039794921875,0.9981689453125
1630674794099,-0.0694580078125,0.03955078125,1.00030517578125
1630674794099,-0.0709228515625,0.03887939453125,0.99798583984375
1630674794099,-0.06658935546875,0.0386962890625,0.99749755859375
1630674794171,-0.06585693359375,0.03533935546875,0.99627685546875
1630674794171,-0.06829833984375,0.0330810546875,0.997802734375
1630674794171,-0.06829833984375,0.03564453125,0.99359130859375
1630674794218,-0.06536865234375,0.0350341796875,0.99591064453125
1630674794218,-0.06689453125,0.0321044921875,0.99578857421875
1630674794218,-0.06488037109375,0.0328369140625,0.99920654296875
1630674794280,-0.06640625,0.03289794921875,0.99420166015625
1630674794280,-0.06341552734375,0.03057861328125,0.995361328125
1630674794280,-0.068359375,0.0296630859375,0.9930419921875
1630674794324,-0.06549072265625,0.032958984375,0.99407958984375
1630674794324,-0.0675048828125,0.03485107421875,0.99615478515625
1630674794324,-0.06353759765625,0.0321044921875,0.99578857421875
1630674794371,-0.06439208984375,0.0328369140625,0.99945068359375
1630674794371,-0.06243896484375,0.03863525390625,0.99859619140625
1630674794371,-0.0655517578125,0.03497314453125,1.00164794921875
1630674794483,-0.05877685546875,0.03924560546875,0.9962158203125
1630674794484,-0.0599365234375,0.0380859375,1.002197265625
1630674794484,-0.062744140625,0.03167724609375,0.999267578125
1630674794484,-0.0621337890625,0.02606201171875,1.00244140625
1630674794484,-0.064208984375,0.0318603515625,0.99981689453125
1630674794485,-0.06280517578125,0.0350341796875,1.00286865234375
1630674794562,-0.062744140625,0.0404052734375,0.99951171875
1630674794562,-0.0631103515625,0.03668212890625,1.003662109375
1630674794562,-0.0621337890625,0.04180908203125,0.9967041015625
1630674794609,-0.063232421875,0.043701171875,0.9952392578125
1630674794610,-0.06927490234375,0.0347900390625,0.99322509765625
1630674794610,-0.06512451171875,0.03741455078125,0.99871826171875
1630674794667,-0.07330322265625,0.02978515625,0.98590087890625
1630674794670,-0.0689697265625,0.029541015625,0.990234375
1630674794682,-0.07421875,0.0338134765625,0.98846435546875
1630674794716,-0.07318115234375,0.03204345703125,0.98553466796875
1630674794716,-0.0672607421875,0.035400390625,0.98553466796875
1630674794717,-0.06842041015625,0.03515625,0.99310302734375
1630674794809,-0.0618896484375,0.03363037109375,1.00054931640625
1630674794809,-0.0634765625,0.03131103515625,0.99761962890625
1630674794809,-0.0596923828125,0.0323486328125,1.00518798828125
1630674794848,-0.058837890625,0.033447265625,1.00390625
1630674794862,-0.0565185546875,0.03021240234375,1.00390625
1630674794863,-0.06231689453125,0.03143310546875,1.00592041015625
1630674794892,-0.0570068359375,0.03515625,1.00274658203125
1630674794892,-0.05828857421875,0.03369140625,0.99932861328125
1630674794892,-0.05914306640625,0.037353515625,1.00048828125
1630674794982,-0.06317138671875,0.04150390625,0.9927978515625
1630674794982,-0.0599365234375,0.03509521484375,0.9937744140625
1630674794983,-0.05670166015625,0.03863525390625,0.99639892578125
1630674795035,-0.06109619140625,0.0343017578125,0.98248291015625
1630674795035,-0.0640869140625,0.03631591796875,0.9794921875
1630674795035,-0.06072998046875,0.03424072265625,0.9874267578125
1630674795098,-0.06439208984375,0.04119873046875,0.98028564453125
1630674795100,-0.0487060546875,0.04620361328125,0.998291015625
1630674795101,-0.05438232421875,0.04718017578125,0.98529052734375
1630674795169,-0.03924560546875,0.0396728515625,1.010498046875
1630674795169,-0.04608154296875,0.05047607421875,1.01019287109375
1630674795169,-0.04241943359375,0.04681396484375,1.0130615234375
1630674795214,-0.0386962890625,0.03125,1.01470947265625
1630674795214,-0.03533935546875,0.03424072265625,1.0140380859375
1630674795214,-0.0396728515625,0.02935791015625,1.0155029296875
1630674795261,-0.036865234375,0.03839111328125,1.003662109375
1630674795262,-0.03582763671875,0.032470703125,1.00653076171875
1630674795262,-0.04443359375,0.03955078125,0.997314453125
1630674795348,-0.0467529296875,0.03021240234375,0.9954833984375
1630674795349,-0.04669189453125,0.03253173828125,1.00592041015625
1630674795350,-0.04681396484375,0.0352783203125,1.00762939453125
1630674795365,-0.04742431640625,0.036376953125,0.98974609375
1630674795365,-0.04998779296875,0.0361328125,0.9908447265625
1630674795367,-0.0460205078125,0.03704833984375,0.98980712890625
1630674795437,-0.04541015625,0.03924560546875,0.9971923828125
1630674795437,-0.04693603515625,0.04058837890625,0.99444580078125
1630674795437,-0.0472412109375,0.0439453125,0.99725341796875
1630674795499,-0.0472412109375,0.034423828125,0.998291015625
1630674795501,-0.0386962890625,0.0316162109375,0.9996337890625
1630674795501,-0.044677734375,0.03277587890625,0.99676513671875
1630674795573,-0.04412841796875,0.03155517578125,1.00970458984375
1630674795573,-0.0426025390625,0.03778076171875,1.0030517578125
1630674795573,-0.0384521484375,0.0281982421875,1.01031494140625
1630674795604,-0.0491943359375,0.04058837890625,1.0045166015625
1630674795604,-0.04608154296875,0.04205322265625,1.00653076171875
1630674795604,-0.04815673828125,0.0413818359375,1.0042724609375
1630674795665,-0.05084228515625,0.038818359375,0.9971923828125
1630674795665,-0.04827880859375,0.03790283203125,0.99859619140625
1630674795680,-0.049072265625,0.0426025390625,1.00042724609375
1630674795733,-0.05657958984375,0.03692626953125,0.9921875
1630674795733,-0.05157470703125,0.0369873046875,0.9954833984375
1630674795733,-0.05426025390625,0.0369873046875,0.993896484375
1630674795851,-0.05804443359375,0.04071044921875,0.99334716796875
1630674795851,-0.0565185546875,0.0390625,0.99285888671875
1630674795851,-0.05975341796875,0.03948974609375,0.99090576171875
1630674795867,-0.05499267578125,0.03265380859375,0.99560546875
1630674795879,-0.05548095703125,0.0369873046875,0.99273681640625
1630674795879,-0.056396484375,0.03887939453125,0.9951171875
1630674795958,-0.05316162109375,0.031005859375,0.99383544921875
1630674795959,-0.052490234375,0.03546142578125,1.00054931640625
1630674795959,-0.05511474609375,0.03521728515625,0.997802734375
1630674795989,-0.0506591796875,0.03424072265625,1.00067138671875
1630674795991,-0.05230712890625,0.03863525390625,1.00048828125
1630674795992,-0.05316162109375,0.03790283203125,0.99932861328125
1630674796069,-0.05108642578125,0.03582763671875,1.0028076171875
1630674796070,-0.05584716796875,0.0390625,0.99822998046875
1630674796070,-0.05523681640625,0.03363037109375,1.00152587890625
1630674796100,-0.0545654296875,0.0443115234375,1.00018310546875
1630674796103,-0.05859375,0.03790283203125,0.9931640625
1630674796103,-0.056884765625,0.0380859375,0.997802734375
1630674796148,-0.05853271484375,0.04071044921875,0.99835205078125
1630674796148,-0.05712890625,0.04315185546875,0.99658203125
1630674796149,-0.059326171875,0.03240966796875,1.00140380859375
1630674796201,-0.0592041015625,0.0325927734375,0.9969482421875
1630674796202,-0.0615234375,0.03271484375,0.991455078125
1630674796202,-0.05908203125,0.03228759765625,0.9901123046875
1630674796305,-0.05963134765625,0.0396728515625,0.998291015625
1630674796305,-0.06060791015625,0.043212890625,0.99749755859375
1630674796305,-0.06268310546875,0.03802490234375,0.993408203125
1630674796305,-0.06109619140625,0.04339599609375,0.99786376953125
1630674796335,-0.0616455078125,0.03680419921875,0.9913330078125
1630674796335,-0.0640869140625,0.0323486328125,0.9910888671875
1630674796394,-0.05926513671875,0.03118896484375,0.99261474609375
1630674796394,-0.06170654296875,0.03094482421875,0.9959716796875
1630674796395,-0.0609130859375,0.02886962890625,0.99822998046875
1630674796454,-0.0621337890625,0.0411376953125,0.995849609375
1630674796454,-0.06072998046875,0.03717041015625,0.99609375
1630674796455,-0.05694580078125,0.04071044921875,0.99932861328125
1630674796518,-0.0589599609375,0.031982421875,1.00128173828125
1630674796520,-0.05657958984375,0.0333251953125,1.00482177734375
1630674796521,-0.05804443359375,0.03973388671875,1.00079345703125
1630674796565,-0.0595703125,0.0355224609375,0.99371337890625
1630674796565,-0.06024169921875,0.0323486328125,0.9954833984375
1630674796566,-0.056396484375,0.0328369140625,1.001953125
1630674796615,-0.06182861328125,0.04815673828125,0.99700927734375
1630674796615,-0.0601806640625,0.0438232421875,0.99609375
1630674796616,-0.060546875,0.04827880859375,0.99713134765625
1630674796738,-0.0606689453125,0.036865234375,0.99481201171875
1630674796739,-0.0584716796875,0.0377197265625,0.99359130859375
1630674796739,-0.05780029296875,0.03546142578125,0.99639892578125
1630674796739,-0.06097412109375,0.03692626953125,0.99029541015625
1630674796750,-0.0616455078125,0.0435791015625,0.993408203125
1630674796755,-0.05975341796875,0.03973388671875,0.98828125
1630674796815,-0.05657958984375,0.03887939453125,0.9969482421875
1630674796815,-0.0538330078125,0.03802490234375,1.0029296875
1630674796831,-0.05047607421875,0.0352783203125,1.001220703125
1630674796832,-0.05194091796875,0.033203125,1.0010986328125
1630674796845,-0.05169677734375,0.03424072265625,1.00213623046875
1630674796852,-0.05572509765625,0.0325927734375,1.0018310546875
1630674796944,-0.047607421875,0.0362548828125,1.0013427734375
1630674796944,-0.0540771484375,0.03521728515625,1.00384521484375
1630674796944,-0.04998779296875,0.04315185546875,1.003662109375
1630674796973,-0.0535888671875,0.03564453125,1.002197265625
1630674796973,-0.05322265625,0.030517578125,0.999755859375
1630674796974,-0.0513916015625,0.04681396484375,0.99957275390625
1630674797038,-0.05419921875,0.03778076171875,0.9970703125
1630674797038,-0.05548095703125,0.03619384765625,0.99261474609375
1630674797038,-0.05633544921875,0.03753662109375,0.99444580078125
1630674797104,-0.05181884765625,0.04632568359375,0.99481201171875
1630674797105,-0.0537109375,0.04461669921875,0.99749755859375
1630674797105,-0.0557861328125,0.03973388671875,1.00006103515625
1630674797152,-0.05780029296875,0.03656005859375,0.99664306640625
1630674797152,-0.05706787109375,0.03302001953125,0.995849609375
1630674797152,-0.0562744140625,0.0380859375,0.9959716796875
1630674797198,-0.05926513671875,0.033935546875,1.00213623046875
1630674797198,-0.0555419921875,0.03240966796875,0.994873046875
1630674797198,-0.0567626953125,0.03399658203125,1.00103759765625
1630674797269,-0.05609130859375,0.044921875,0.9970703125
1630674797270,-0.0552978515625,0.04144287109375,0.99639892578125
1630674797270,-0.05078125,0.0418701171875,0.99713134765625
1630674797337,-0.05316162109375,0.03924560546875,0.99932861328125
1630674797337,-0.05633544921875,0.0367431640625,1.0006103515625
1630674797353,-0.05389404296875,0.036865234375,1.0006103515625
1630674797400,-0.05767822265625,0.03692626953125,0.99517822265625
1630674797401,-0.05322265625,0.03497314453125,0.99700927734375
1630674797402,-0.0567626953125,0.0367431640625,0.99554443359375
1630674797446,-0.05499267578125,0.044677734375,0.9923095703125
1630674797446,-0.05755615234375,0.0399169921875,0.99493408203125
1630674797446,-0.05352783203125,0.042236328125,0.99908447265625
1630674797537,-0.05255126953125,0.0406494140625,0.99884033203125
1630674797537,-0.05328369140625,0.0401611328125,0.9979248046875
1630674797537,-0.0548095703125,0.04168701171875,0.99365234375
1630674797568,-0.05096435546875,0.03887939453125,1.00140380859375
1630674797568,-0.0478515625,0.0372314453125,1.0013427734375
1630674797569,-0.0452880859375,0.0384521484375,1.0030517578125
1630674797615,-0.04949951171875,0.03955078125,1.00244140625
1630674797615,-0.04803466796875,0.03961181640625,1.00341796875
1630674797616,-0.047607421875,0.041259765625,1.00299072265625
1630674797681,-0.04827880859375,0.03887939453125,0.99908447265625
1630674797697,-0.050048828125,0.03802490234375,0.9964599609375
1630674797697,-0.05059814453125,0.0379638671875,1.00018310546875
1630674797743,-0.05010986328125,0.03961181640625,0.9979248046875
1630674797743,-0.0465087890625,0.03790283203125,1.00048828125
1630674797743,-0.05133056640625,0.04144287109375,0.99139404296875
1630674797802,-0.04913330078125,0.03521728515625,0.99261474609375
1630674797803,-0.05206298828125,0.03271484375,0.9990234375
1630674797804,-0.0499267578125,0.04168701171875,1.00201416015625
1630674797851,-0.051025390625,0.04150390625,1.00177001953125
1630674797853,-0.04913330078125,0.03802490234375,0.997802734375
1630674797853,-0.05169677734375,0.0377197265625,1.00048828125
1630674797936,-0.05352783203125,0.04376220703125,0.99725341796875
1630674797937,-0.04852294921875,0.03961181640625,0.9947509765625
1630674797937,-0.0496826171875,0.0478515625,1.000244140625
1630674797969,-0.05462646484375,0.031005859375,0.9912109375
1630674797970,-0.05389404296875,0.0308837890625,0.99530029296875
1630674797971,-0.05242919921875,0.033447265625,0.998046875
1630674798046,-0.05181884765625,0.03704833984375,0.99749755859375
1630674798047,-0.05194091796875,0.04437255859375,0.99578857421875
1630674798047,-0.05487060546875,0.036865234375,0.99603271484375
1630674798096,-0.0528564453125,0.04510498046875,0.99755859375
1630674798096,-0.05126953125,0.04290771484375,0.99957275390625
1630674798097,-0.05401611328125,0.04449462890625,0.99957275390625
1630674798158,-0.051025390625,0.04083251953125,1.00372314453125
1630674798158,-0.0511474609375,0.04156494140625,1.00439453125
1630674798158,-0.05303955078125,0.037109375,1.00494384765625
1630674798217,-0.04827880859375,0.04132080078125,0.99822998046875
1630674798218,-0.05377197265625,0.04559326171875,0.99310302734375
1630674798218,-0.04974365234375,0.041259765625,1.003662109375
1630674798279,-0.05010986328125,0.0408935546875,0.993408203125
1630674798280,-0.05084228515625,0.04345703125,0.99468994140625
1630674798280,-0.05145263671875,0.04534912109375,0.99609375
1630674798385,-0.05157470703125,0.0377197265625,0.98919677734375
1630674798385,-0.0487060546875,0.0347900390625,0.99603271484375
1630674798385,-0.05010986328125,0.03448486328125,0.9952392578125
1630674798385,-0.0487060546875,0.03594970703125,0.9925537109375
1630674798385,-0.04644775390625,0.03741455078125,1.00006103515625
1630674798385,-0.0487060546875,0.03497314453125,1.00250244140625
1630674798469,-0.045654296875,0.0379638671875,1.0008544921875
1630674798469,-0.0438232421875,0.03436279296875,1.0042724609375
1630674798473,-0.04443359375,0.03546142578125,1.00042724609375
1630674798498,-0.0439453125,0.03948974609375,1.005126953125
1630674798498,-0.0478515625,0.03961181640625,0.99871826171875
1630674798498,-0.04290771484375,0.03643798828125,1.00634765625
1630674798573,-0.044921875,0.04376220703125,1.00372314453125
1630674798573,-0.05389404296875,0.04217529296875,0.99945068359375
1630674798573,-0.0458984375,0.0484619140625,0.99517822265625
1630674798622,-0.0499267578125,0.0372314453125,1.00201416015625
1630674798622,-0.05181884765625,0.040771484375,0.99237060546875
1630674798622,-0.0499267578125,0.0386962890625,0.9952392578125
1630674798671,-0.05084228515625,0.05682373046875,0.98809814453125
1630674798691,-0.0543212890625,0.04534912109375,0.99066162109375
1630674798691,-0.052734375,0.04937744140625,0.9906005859375
1630674798719,-0.0462646484375,0.05755615234375,0.99310302734375
1630674798720,-0.04962158203125,0.058837890625,0.9893798828125
1630674798720,-0.04705810546875,0.04656982421875,0.998779296875
1630674798818,-0.041015625,0.03271484375,1.00225830078125
1630674798819,-0.045166015625,0.0413818359375,1.0001220703125
1630674798819,-0.04254150390625,0.0372314453125,1.0010986328125
1630674798879,-0.04034423828125,0.03228759765625,1.00213623046875
1630674798879,-0.0418701171875,0.02593994140625,0.998779296875
1630674798879,-0.04193115234375,0.0345458984375,0.99859619140625
1630674798920,-0.0345458984375,0.0340576171875,1.006103515625
1630674798920,-0.03631591796875,0.033935546875,1.01104736328125
1630674798920,-0.03497314453125,0.033935546875,1.007568359375
1630674798966,-0.0355224609375,0.026611328125,1.00335693359375
1630674798967,-0.04266357421875,0.0281982421875,1.0029296875
1630674798969,-0.037841796875,0.02685546875,1.0123291015625
1630674799036,-0.04132080078125,0.03192138671875,1.00091552734375
1630674799038,-0.046630859375,0.0406494140625,0.99267578125
1630674799038,-0.04449462890625,0.038818359375,0.99090576171875
1630674799102,-0.0440673828125,0.039794921875,0.99267578125
1630674799102,-0.04449462890625,0.0426025390625,0.99652099609375
1630674799102,-0.0423583984375,0.04638671875,0.99017333984375
1630674799168,-0.0418701171875,0.0364990234375,0.9993896484375
1630674799168,-0.03704833984375,0.0369873046875,1.00238037109375
1630674799168,-0.04132080078125,0.038818359375,0.99578857421875
1630674799218,-0.03216552734375,0.0382080078125,1.0068359375
1630674799218,-0.03631591796875,0.0360107421875,1.0059814453125
1630674799219,-0.03558349609375,0.038330078125,1.0048828125
1630674799285,-0.0396728515625,0.03619384765625,1.0032958984375
1630674799285,-0.04327392578125,0.040771484375,1.00408935546875
1630674799286,-0.03521728515625,0.03955078125,1.00396728515625
1630674799307,-0.04541015625,0.05029296875,1.003662109375
1630674799317,-0.04345703125,0.0506591796875,0.9949951171875
1630674799318,-0.040771484375,0.041748046875,0.995849609375
1630674799378,-0.04779052734375,0.04248046875,0.9898681640625
1630674799378,-0.048583984375,0.03875732421875,1.0010986328125
1630674799379,-0.0482177734375,0.0384521484375,1.00384521484375
1630674799447,-0.0467529296875,0.03759765625,0.998046875
1630674799447,-0.047119140625,0.03558349609375,0.99932861328125
1630674799447,-0.04779052734375,0.03765869140625,0.99945068359375
1630674799499,-0.04888916015625,0.0341796875,0.9937744140625
1630674799499,-0.04705810546875,0.03387451171875,0.994873046875
1630674799499,-0.04595947265625,0.03594970703125,0.9962158203125
1630674799624,-0.04779052734375,0.02984619140625,0.9984130859375
1630674799626,-0.048828125,0.0306396484375,0.9967041015625
1630674799627,-0.04827880859375,0.03759765625,0.99456787109375
1630674799633,-0.05023193359375,0.02984619140625,0.99908447265625
1630674799634,-0.04986572265625,0.0335693359375,0.99664306640625
1630674799635,-0.0506591796875,0.03131103515625,1.00299072265625
1630674799670,-0.0498046875,0.03857421875,1.00042724609375
1630674799684,-0.05072021484375,0.03802490234375,0.99755859375
1630674799684,-0.05023193359375,0.0401611328125,0.99456787109375
1630674799774,-0.05157470703125,0.039794921875,0.9993896484375
1630674799776,-0.05059814453125,0.03863525390625,0.998779296875
1630674799776,-0.04913330078125,0.03973388671875,1.00286865234375
1630674799804,-0.05108642578125,0.03936767578125,0.9970703125
1630674799804,-0.04986572265625,0.0372314453125,0.99798583984375
1630674799804,-0.05157470703125,0.0399169921875,0.9996337890625
1630674799870,-0.05120849609375,0.0399169921875,0.99163818359375
1630674799872,-0.05621337890625,0.04046630859375,0.9925537109375
1630674799872,-0.0496826171875,0.04132080078125,0.99365234375
1630674799919,-0.046875,0.03802490234375,1.00421142578125
1630674799919,-0.0494384765625,0.04296875,1.00091552734375
1630674799919,-0.05157470703125,0.03924560546875,0.99945068359375
1630674799983,-0.04840087890625,0.03411865234375,0.99609375
1630674799983,-0.05047607421875,0.0341796875,0.99627685546875
1630674799983,-0.05145263671875,0.03924560546875,1.003173828125
1630674800033,-0.04595947265625,0.036865234375,1.0015869140625
1630674800033,-0.04669189453125,0.0401611328125,1.00579833984375
1630674800034,-0.04364013671875,0.03375244140625,0.99884033203125
1630674800078,-0.04217529296875,0.0465087890625,1.01007080078125
1630674800079,-0.04248046875,0.03948974609375,1.0074462890625
1630674800080,-0.04461669921875,0.04736328125,0.9993896484375
1630674800176,-0.05084228515625,0.02923583984375,0.9923095703125
1630674800177,-0.0462646484375,0.0372314453125,1.002685546875
1630674800177,-0.05169677734375,0.0301513671875,0.999755859375
1630674800208,-0.049072265625,0.0328369140625,0.99249267578125
1630674800210,-0.04852294921875,0.02734375,0.9908447265625
1630674800212,-0.05389404296875,0.03521728515625,0.9947509765625
1630674800303,-0.052490234375,0.03411865234375,0.99993896484375
1630674800303,-0.05133056640625,0.037353515625,0.9967041015625
1630674800303,-0.05035400390625,0.036376953125,0.9947509765625
1630674800304,-0.052978515625,0.04193115234375,0.99481201171875
1630674800307,-0.05352783203125,0.04254150390625,0.99334716796875
1630674800307,-0.05181884765625,0.03961181640625,0.9912109375
1630674800421,-0.0552978515625,0.0360107421875,1.00244140625
1630674800423,-0.05169677734375,0.036865234375,1.000244140625
1630674800423,-0.05126953125,0.04364013671875,0.99755859375
1630674800455,-0.0526123046875,0.04779052734375,0.9989013671875
1630674800470,-0.0504150390625,0.04296875,1.00115966796875
1630674800470,-0.0504150390625,0.042236328125,1.0045166015625
1630674800503,-0.0543212890625,0.0390625,1.00457763671875
1630674800532,-0.05023193359375,0.04119873046875,1.00372314453125
1630674800585,-0.0560302734375,0.0340576171875,0.99609375
1630674800585,-0.05322265625,0.03485107421875,0.99249267578125
1630674800586,-0.05108642578125,0.03369140625,0.99578857421875
1630674800632,-0.0552978515625,0.040283203125,0.993896484375
1630674800632,-0.0489501953125,0.04217529296875,0.9942626953125
1630674800633,-0.04937744140625,0.03997802734375,0.99761962890625
1630674800713,-0.04974365234375,0.03875732421875,0.99688720703125
1630674800713,-0.047119140625,0.03143310546875,0.99664306640625
1630674800713,-0.0499267578125,0.03497314453125,0.99652099609375
1630674800744,-0.0460205078125,0.0303955078125,1.00067138671875
1630674800744,-0.046875,0.0350341796875,1.0018310546875
1630674800747,-0.04931640625,0.03277587890625,0.99761962890625
1630674800792,-0.04498291015625,0.03546142578125,1.0
1630674800793,-0.04351806640625,0.03875732421875,1.00048828125
1630674800797,-0.0418701171875,0.03680419921875,0.999755859375
1630674800957,-0.04705810546875,0.0338134765625,1.00067138671875
1630674800957,-0.047119140625,0.041015625,0.99859619140625
1630674800957,-0.04205322265625,0.03076171875,1.0068359375
1630674800973,-0.04681396484375,0.0419921875,1.0023193359375
1630674800980,-0.0479736328125,0.0361328125,1.00250244140625
1630674800981,-0.04248046875,0.03863525390625,0.99713134765625
1630674800992,-0.0455322265625,0.0406494140625,1.00390625
1630674800994,-0.03997802734375,0.0340576171875,1.00311279296875
1630674800994,-0.04364013671875,0.03826904296875,1.005126953125
1630674801056,-0.0506591796875,0.0423583984375,0.99627685546875
1630674801056,-0.04534912109375,0.04058837890625,0.995361328125
1630674801056,-0.05108642578125,0.045654296875,0.99688720703125
1630674801085,-0.0531005859375,0.02545166015625,0.98870849609375
1630674801086,-0.0484619140625,0.03558349609375,0.9962158203125
1630674801090,-0.0506591796875,0.0313720703125,0.9931640625
1630674801184,-0.0533447265625,0.0330810546875,0.994873046875
1630674801184,-0.05621337890625,0.03302001953125,0.99212646484375
1630674801185,-0.0535888671875,0.02410888671875,0.9923095703125
1630674801214,-0.0516357421875,0.04132080078125,0.9892578125
1630674801214,-0.05133056640625,0.04571533203125,1.000244140625
1630674801214,-0.05401611328125,0.043212890625,0.99871826171875
1630674801270,-0.0440673828125,0.0465087890625,1.0087890625
1630674801270,-0.0452880859375,0.0482177734375,1.00457763671875
1630674801271,-0.0472412109375,0.0455322265625,1.00738525390625
1630674801349,-0.0478515625,0.04278564453125,0.99859619140625
1630674801351,-0.045166015625,0.0428466796875,1.0106201171875
1630674801352,-0.044677734375,0.04449462890625,1.0052490234375
1630674801401,-0.0474853515625,0.04681396484375,0.9945068359375
1630674801402,-0.04998779296875,0.04852294921875,0.9976806640625
1630674801402,-0.04730224609375,0.04437255859375,0.99969482421875
1630674801464,-0.0438232421875,0.0462646484375,0.9945068359375
1630674801464,-0.04571533203125,0.03765869140625,0.99591064453125
1630674801464,-0.04998779296875,0.04840087890625,0.99395751953125
1630674801520,-0.04034423828125,0.03271484375,0.99755859375
1630674801521,-0.04644775390625,0.03515625,0.99456787109375
1630674801521,-0.04486083984375,0.03515625,0.99407958984375
1630674801599,-0.041259765625,0.03729248046875,0.99810791015625
1630674801604,-0.04150390625,0.03326416015625,0.997802734375
1630674801604,-0.0418701171875,0.0396728515625,0.99676513671875
1630674801649,-0.03753662109375,0.03887939453125,1.00384521484375
1630674801649,-0.03857421875,0.0390625,0.99957275390625
1630674801650,-0.03955078125,0.03948974609375,0.9970703125
1630674801687,-0.03985595703125,0.02801513671875,0.99591064453125
1630674801687,-0.03668212890625,0.0364990234375,1.01190185546875
1630674801687,-0.03765869140625,0.0391845703125,0.99835205078125
1630674801751,-0.03668212890625,0.05718994140625,1.00677490234375
1630674801756,-0.03460693359375,0.04150390625,1.00714111328125
1630674801757,-0.03717041015625,0.06085205078125,1.005859375
1630674801834,-0.038330078125,0.05926513671875,1.00115966796875
1630674801835,-0.0386962890625,0.0635986328125,1.0028076171875
1630674801839,-0.04412841796875,0.05487060546875,1.002197265625
1630674801867,-0.0379638671875,0.03521728515625,0.99737548828125
1630674801868,-0.043701171875,0.041259765625,0.9993896484375
1630674801868,-0.0428466796875,0.0274658203125,0.99468994140625
1630674801899,-0.04840087890625,0.02825927734375,0.993896484375
1630674801900,-0.04461669921875,0.0225830078125,0.99566650390625
1630674801900,-0.04583740234375,0.0284423828125,1.0010986328125
1630674801961,-0.0438232421875,0.0465087890625,0.99932861328125
1630674801962,-0.0457763671875,0.04400634765625,0.99517822265625
1630674801968,-0.04718017578125,0.0372314453125,0.99591064453125
1630674802085,-0.0457763671875,0.04425048828125,1.00421142578125
1630674802086,-0.04833984375,0.0433349609375,1.00665283203125
1630674802086,-0.049072265625,0.04315185546875,1.00628662109375
1630674802116,-0.0518798828125,0.04534912109375,1.0018310546875
1630674802116,-0.0472412109375,0.05010986328125,0.9970703125
1630674802116,-0.04986572265625,0.05029296875,0.99755859375
1630674802184,-0.05047607421875,0.05438232421875,0.99688720703125
1630674802184,-0.0543212890625,0.05218505859375,0.9970703125
1630674802184,-0.05029296875,0.05230712890625,0.99365234375
1630674802199,-0.0430908203125,0.04949951171875,0.9942626953125
1630674802215,-0.049072265625,0.05560302734375,0.99395751953125
1630674802216,-0.0467529296875,0.05230712890625,0.99798583984375
1630674802268,-0.04229736328125,0.04052734375,1.00079345703125
1630674802269,-0.0469970703125,0.043701171875,0.99578857421875
1630674802269,-0.0457763671875,0.0491943359375,0.99847412109375
1630674802314,-0.04412841796875,0.0418701171875,0.99676513671875
1630674802314,-0.042724609375,0.0374755859375,1.000732421875
1630674802317,-0.04400634765625,0.038818359375,0.99603271484375
1630674802396,-0.04119873046875,0.04473876953125,1.0048828125
1630674802396,-0.03741455078125,0.04559326171875,1.00201416015625
1630674802396,-0.0418701171875,0.0433349609375,1.00079345703125
1630674802502,-0.04718017578125,0.04522705078125,0.9990234375
1630674802502,-0.04803466796875,0.04052734375,0.99481201171875
1630674802505,-0.04461669921875,0.040283203125,0.9954833984375
1630674802506,-0.044921875,0.05072021484375,1.005859375
1630674802515,-0.04669189453125,0.0361328125,0.99603271484375
1630674802519,-0.0440673828125,0.04315185546875,0.99993896484375
1630674802586,-0.0478515625,0.0465087890625,0.99859619140625
1630674802586,-0.04742431640625,0.04705810546875,1.00390625
1630674802586,-0.04461669921875,0.044921875,1.0045166015625
1630674802666,-0.04730224609375,0.04193115234375,1.00030517578125
1630674802667,-0.0535888671875,0.04644775390625,0.99859619140625
1630674802669,-0.056396484375,0.044677734375,0.99176025390625
1630674802718,-0.05377197265625,0.04840087890625,0.99517822265625
1630674802718,-0.05169677734375,0.0465087890625,0.99395751953125
1630674802720,-0.05364990234375,0.03741455078125,0.9945068359375
1630674802720,-0.05523681640625,0.03564453125,0.99554443359375
1630674802721,-0.0546875,0.0399169921875,0.9920654296875
1630674802742,-0.0556640625,0.036865234375,0.9970703125
1630674802800,-0.0523681640625,0.0499267578125,0.9976806640625
1630674802800,-0.0504150390625,0.05145263671875,1.00299072265625
1630674802800,-0.0521240234375,0.0477294921875,1.00067138671875
1630674802882,-0.0469970703125,0.04193115234375,1.00067138671875
1630674802882,-0.05169677734375,0.04498291015625,0.997802734375
1630674802883,-0.047607421875,0.044677734375,0.9998779296875
1630674802949,-0.04974365234375,0.0401611328125,0.994384765625
1630674802950,-0.052490234375,0.04150390625,1.00030517578125
1630674802951,-0.04962158203125,0.0428466796875,0.995361328125
1630674802971,-0.05279541015625,0.0426025390625,0.99224853515625
1630674802989,-0.05181884765625,0.04510498046875,0.99078369140625
1630674802989,-0.0533447265625,0.04693603515625,0.9979248046875
1630674803027,-0.049072265625,0.03936767578125,0.997314453125
1630674803044,-0.04632568359375,0.04296875,0.99652099609375
1630674803044,-0.05010986328125,0.03741455078125,0.999267578125
1630674803094,-0.0472412109375,0.037353515625,0.99652099609375
1630674803094,-0.0474853515625,0.03973388671875,0.998291015625
1630674803094,-0.0443115234375,0.03680419921875,0.99951171875
1630674803187,-0.042236328125,0.04522705078125,1.00762939453125
1630674803187,-0.0413818359375,0.04046630859375,1.002197265625
1630674803187,-0.0455322265625,0.0428466796875,1.0025634765625
1630674803252,-0.044189453125,0.04345703125,1.006103515625
1630674803252,-0.04425048828125,0.04052734375,0.99981689453125
1630674803252,-0.0445556640625,0.0474853515625,1.00177001953125
1630674803294,-0.04498291015625,0.03765869140625,1.0009765625
1630674803295,-0.0458984375,0.0399169921875,0.9990234375
1630674803295,-0.04547119140625,0.03936767578125,0.99761962890625
1630674803364,-0.046142578125,0.04351806640625,0.998291015625
1630674803365,-0.04937744140625,0.0543212890625,1.005859375
1630674803365,-0.0491943359375,0.04669189453125,0.9881591796875
1630674803369,-0.05072021484375,0.0516357421875,0.99908447265625
1630674803372,-0.0450439453125,0.0460205078125,0.9993896484375
1630674803372,-0.051513671875,0.048583984375,1.00201416015625
1630674803475,-0.051025390625,0.0374755859375,0.99822998046875
1630674803475,-0.05218505859375,0.03912353515625,0.99359130859375
1630674803476,-0.0516357421875,0.04119873046875,0.99383544921875
1630674803508,-0.05096435546875,0.0400390625,0.99560546875
1630674803509,-0.05108642578125,0.041015625,0.99517822265625
1630674803509,-0.04766845703125,0.04388427734375,0.9993896484375
1630674803571,-0.0474853515625,0.04937744140625,1.00079345703125
1630674803572,-0.04730224609375,0.04925537109375,1.00457763671875
1630674803572,-0.04864501953125,0.04815673828125,1.0020751953125
1630674803651,-0.04949951171875,0.04193115234375,0.9964599609375
1630674803651,-0.0487060546875,0.0452880859375,1.00238037109375
1630674803654,-0.051025390625,0.0416259765625,0.99810791015625
1630674803699,-0.04815673828125,0.04571533203125,1.0004272460937
1630674803699,-0.046142578125,0.046142578125,0.99859619140625
1630674803732,-0.05230712890625,0.04937744140625,0.987548828125
1630674803732,-0.0484619140625,0.0506591796875,0.99090576171875
1630674803734,-0.05224609375,0.04931640625,0.99200439453125
1630674803810,-0.0506591796875,0.049560546875,0.98565673828125
1630674803810,-0.0523681640625,0.06103515625,0.99066162109375
1630674803810,-0.05133056640625,0.05670166015625,0.98223876953125
1630674803871,-0.037841796875,0.041748046875,1.005615234375
1630674803871,-0.04095458984375,0.0479736328125,1.0128173828125
1630674803875,-0.04290771484375,0.05511474609375,1.0028076171875
1630674803934,-0.03814697265625,0.02960205078125,1.00030517578125
1630674803935,-0.03729248046875,0.03692626953125,1.0047607421875
1630674803936,-0.03466796875,0.03033447265625,1.005615234375
1630674804002,-0.03448486328125,0.0341796875,1.00860595703125
1630674804002,-0.03582763671875,0.03424072265625,1.0048828125
1630674804002,-0.0341796875,0.03350830078125,1.00439453125
1630674804065,-0.03656005859375,0.03192138671875,0.99664306640625
1630674804065,-0.03790283203125,0.03057861328125,0.99462890625
1630674804065,-0.044921875,0.01947021484375,0.99310302734375
1630674804099,-0.03460693359375,0.03997802734375,0.991943359375
1630674804100,-0.03326416015625,0.04693603515625,1.0029296875
1630674804115,-0.04302978515625,0.03155517578125,0.9820556640625
1630674804180,-0.0279541015625,0.04656982421875,1.00128173828125
1630674804180,-0.02777099609375,0.04144287109375,1.003173828125
1630674804182,-0.026123046875,0.04766845703125,1.00274658203125
1630674804225,-0.02435302734375,0.04669189453125,1.001220703125
1630674804225,-0.02410888671875,0.041748046875,1.00787353515625
1630674804225,-0.02301025390625,0.04388427734375,1.00836181640625
1630674804286,-0.02490234375,0.03515625,1.0001220703125
1630674804286,-0.02484130859375,0.03594970703125,1.00189208984375
1630674804287,-0.0245361328125,0.04180908203125,1.0003662109375
1630674804352,-0.02484130859375,0.03912353515625,0.996337890625
1630674804352,-0.02606201171875,0.04302978515625,1.00543212890625
1630674804353,-0.02294921875,0.043212890625,1.013671875
1630674804384,-0.0257568359375,0.0400390625,1.005859375
1630674804384,-0.02459716796875,0.04339599609375,0.99847412109375
1630674804385,-0.02618408203125,0.04144287109375,1.012451171875
1630674804463,-0.0277099609375,0.041748046875,0.9976806640625
1630674804464,-0.0301513671875,0.0413818359375,0.9979248046875
1630674804464,-0.028076171875,0.04791259765625,0.99566650390625
1630674804503,-0.02667236328125,0.04364013671875,0.99957275390625
1630674804503,-0.02850341796875,0.0482177734375,0.9970703125
1630674804506,-0.02801513671875,0.044677734375,0.9998779296875
1630674804602,-0.03509521484375,0.04278564453125,0.99383544921875
1630674804602,-0.03564453125,0.04266357421875,0.9964599609375
1630674804602,-0.03118896484375,0.0472412109375,0.99810791015625
1630674804650,-0.0406494140625,0.0389404296875,0.9906005859375
1630674804650,-0.03863525390625,0.04351806640625,0.9925537109375
1630674804650,-0.03485107421875,0.03851318359375,0.99493408203125
1630674804696,-0.0343017578125,0.05230712890625,1.002197265625
1630674804696,-0.033203125,0.044921875,0.99407958984375
1630674804696,-0.0338134765625,0.05035400390625,1.0001220703125
1630674804775,-0.02838134765625,0.0447998046875,1.00537109375
1630674804775,-0.03045654296875,0.045166015625,1.0057373046875
1630674804775,-0.0323486328125,0.0469970703125,1.00335693359375
1630674804843,-0.02838134765625,0.04510498046875,1.000244140625
1630674804843,-0.030517578125,0.05145263671875,1.0040283203125
1630674804844,-0.03076171875,0.04296875,1.001220703125
1630674804860,-0.03521728515625,0.044921875,1.001220703125
1630674804873,-0.03033447265625,0.04656982421875,0.9974365234375
1630674804875,-0.03631591796875,0.04486083984375,0.99932861328125
1630674804936,-0.0318603515625,0.0472412109375,0.9984130859375
1630674804937,-0.0318603515625,0.04119873046875,1.0020751953125
1630674804937,-0.03424072265625,0.041015625,1.001220703125
1630674804983,-0.03619384765625,0.0386962890625,1.000732421875
1630674804983,-0.03314208984375,0.038330078125,0.99615478515625
1630674804983,-0.03411865234375,0.03759765625,0.99383544921875
1630674805053,-0.03363037109375,0.03485107421875,0.99664306640625
1630674805053,-0.03558349609375,0.0386962890625,0.99822998046875
1630674805053,-0.036376953125,0.04327392578125,0.99951171875
1630674805114,-0.03814697265625,0.0391845703125,0.9957275390625
1630674805114,-0.03564453125,0.04278564453125,0.9970703125
1630674805115,-0.03448486328125,0.0419921875,0.999267578125
1630674805146,-0.03533935546875,0.0458984375,0.999267578125
1630674805162,-0.0335693359375,0.0428466796875,1.00244140625
1630674805162,-0.0330810546875,0.043212890625,1.0047607421875
1630674805231,-0.03509521484375,0.04449462890625,1.00335693359375
1630674805231,-0.0369873046875,0.05023193359375,1.00030517578125
1630674805231,-0.03570556640625,0.0479736328125,1.00079345703125
1630674805286,-0.037841796875,0.04620361328125,0.9976806640625
1630674805289,-0.0416259765625,0.04437255859375,0.99761962890625
1630674805289,-0.04083251953125,0.04791259765625,0.99871826171875
1630674805334,-0.04168701171875,0.04827880859375,0.996826171875
1630674805334,-0.03936767578125,0.04205322265625,0.99609375
1630674805334,-0.04083251953125,0.0443115234375,0.99212646484375
1630674805402,-0.0396728515625,0.04473876953125,0.995361328125
1630674805402,-0.042724609375,0.0458984375,0.998779296875
1630674805402,-0.04266357421875,0.04315185546875,0.9986572265625
1630674805503,-0.0396728515625,0.03948974609375,0.99822998046875
1630674805503,-0.039306640625,0.03790283203125,1.00048828125
1630674805503,-0.0416259765625,0.0411376953125,0.99896240234375
1630674805503,-0.0394287109375,0.0406494140625,0.9979248046875
1630674805503,-0.0380859375,0.03814697265625,0.9979248046875
1630674805503,-0.0418701171875,0.0406494140625,1.0013427734375
1630674805586,-0.03985595703125,0.0404052734375,1.001220703125
1630674805586,-0.03985595703125,0.0458984375,1.00439453125
1630674805586,-0.0369873046875,0.0455322265625,1.0047607421875
1630674805648,-0.0418701171875,0.0469970703125,1.00189208984375
1630674805648,-0.0445556640625,0.04205322265625,0.99945068359375
1630674805648,-0.0355224609375,0.04931640625,0.9957275390625
1630674805718,-0.04022216796875,0.0399169921875,0.99896240234375
1630674805719,-0.03973388671875,0.04290771484375,0.9979248046875
1630674805719,-0.04022216796875,0.04351806640625,0.9974365234375
1630674805768,-0.04046630859375,0.05084228515625,0.99578857421875
1630674805769,-0.040283203125,0.04608154296875,0.9970703125
1630674805787,-0.0408935546875,0.0433349609375,1.00067138671875
1630674805845,-0.03997802734375,0.03814697265625,1.0029296875
1630674805845,-0.04193115234375,0.0399169921875,0.99566650390625
1630674805846,-0.03436279296875,0.03717041015625,0.99932861328125
1630674805848,-0.036376953125,0.0428466796875,0.999267578125
1630674805848,-0.04095458984375,0.0443115234375,0.99578857421875
1630674805850,-0.03778076171875,0.0374755859375,0.99566650390625
1630674805968,-0.0411376953125,0.03955078125,0.99957275390625
1630674805970,-0.03961181640625,0.046630859375,1.00213623046875
1630674805970,-0.0369873046875,0.04351806640625,1.0076904296875
1630674805970,-0.03753662109375,0.04925537109375,1.0025634765625
1630674805970,-0.03814697265625,0.0484619140625,1.0003662109375
1630674805970,-0.034912109375,0.04486083984375,1.00140380859375
1630674806046,-0.04058837890625,0.04150390625,0.99517822265625
1630674806046,-0.03753662109375,0.04302978515625,1.00335693359375
1630674806046,-0.03985595703125,0.0419921875,1.00042724609375
1630674806137,-0.0369873046875,0.0489501953125,0.99468994140625
1630674806137,-0.04107666015625,0.0394287109375,0.99664306640625
1630674806139,-0.04290771484375,0.04290771484375,1.0001220703125
1630674806139,-0.041015625,0.043212890625,0.99432373046875
1630674806140,-0.0439453125,0.0433349609375,1.001708984375
1630674806140,-0.03924560546875,0.05230712890625,0.99884033203125
1630674806245,-0.03778076171875,0.03948974609375,1.001953125
1630674806245,-0.03826904296875,0.03985595703125,0.998779296875
1630674806245,-0.03570556640625,0.03948974609375,0.99639892578125
1630674806284,-0.036865234375,0.04705810546875,1.00360107421875
1630674806284,-0.03631591796875,0.043701171875,1.00244140625
1630674806288,-0.03497314453125,0.03839111328125,1.00225830078125
1630674806344,-0.03228759765625,0.04632568359375,1.00048828125
1630674806344,-0.0330810546875,0.0460205078125,0.99981689453125
1630674806345,-0.03240966796875,0.04449462890625,1.00469970703125
1630674806418,-0.03662109375,0.04547119140625,1.00250244140625
1630674806418,-0.0369873046875,0.0487060546875,1.00372314453125
1630674806418,-0.03411865234375,0.0509033203125,0.99774169921875
1630674806464,-0.0380859375,0.03936767578125,0.99566650390625
1630674806464,-0.03924560546875,0.050537109375,1.00341796875
1630674806464,-0.03656005859375,0.04205322265625,1.00048828125
1630674806497,-0.0372314453125,0.04248046875,0.99871826171875
1630674806497,-0.0423583984375,0.0433349609375,0.9949951171875
1630674806497,-0.0391845703125,0.0440673828125,1.0013427734375
1630674806591,-0.0413818359375,0.04925537109375,0.994873046875
1630674806591,-0.0379638671875,0.04425048828125,0.99755859375
1630674806592,-0.0372314453125,0.048095703125,0.99658203125
1630674806618,-0.03863525390625,0.03570556640625,1.00018310546875
1630674806634,-0.0382080078125,0.0389404296875,0.99749755859375
1630674806634,-0.0382080078125,0.03509521484375,0.998046875
1630674806705,-0.03936767578125,0.0386962890625,0.9959716796875
1630674806707,-0.0372314453125,0.048828125,0.99591064453125
1630674806711,-0.03875732421875,0.0372314453125,1.008056640625
1630674806737,-0.03857421875,0.0489501953125,0.9996337890625
1630674806754,-0.03863525390625,0.04644775390625,1.0020751953125
1630674806754,-0.0394287109375,0.05181884765625,1.0037841796875
1630674806819,-0.038818359375,0.04571533203125,1.00164794921875
1630674806820,-0.0389404296875,0.04443359375,1.0001220703125
1630674806820,-0.03997802734375,0.04498291015625,1.00006103515625
1630674806867,-0.0400390625,0.0509033203125,0.99456787109375
1630674806868,-0.03839111328125,0.04718017578125,0.99798583984375
1630674806869,-0.03826904296875,0.04425048828125,0.998046875
1630674806928,-0.040771484375,0.05133056640625,0.9993896484375
1630674806929,-0.03814697265625,0.052490234375,0.99615478515625
1630674806929,-0.0357666015625,0.0494384765625,0.99658203125
1630674806985,-0.03759765625,0.03961181640625,0.9974365234375
1630674806985,-0.03814697265625,0.0460205078125,0.99591064453125
1630674807067,-0.02947998046875,0.04132080078125,1.00213623046875
1630674807068,-0.033447265625,0.04156494140625,0.99945068359375
1630674807068,-0.03631591796875,0.0390625,0.99908447265625
1630674807130,-0.03582763671875,0.0430908203125,1.00177001953125
1630674807130,-0.03717041015625,0.04168701171875,1.00030517578125
1630674807130,-0.0340576171875,0.04522705078125,0.9996337890625
1630674807151,-0.031982421875,0.04296875,0.99932861328125
1630674807151,-0.03515625,0.03857421875,1.00054931640625
1630674807151,-0.031494140625,0.042236328125,1.00030517578125
1630674807230,-0.03253173828125,0.03973388671875,0.99810791015625
1630674807230,-0.03125,0.0477294921875,1.000244140625
1630674807247,-0.03240966796875,0.046875,0.9918212890625
1630674807263,-0.0341796875,0.03900146484375,1.00531005859375
1630674807272,-0.0355224609375,0.04571533203125,1.0048828125
1630674807273,-0.03668212890625,0.0494384765625,0.99139404296875
1630674807380,-0.03375244140625,0.0411376953125,1.00677490234375
1630674807380,-0.03271484375,0.0491943359375,0.9991455078125
1630674807380,-0.03350830078125,0.04345703125,0.9998779296875
1630674807380,-0.03076171875,0.045654296875,0.99884033203125
1630674807380,-0.03424072265625,0.04052734375,0.99761962890625
1630674807380,-0.03131103515625,0.05328369140625,1.00286865234375
1630674807458,-0.035888671875,0.046630859375,0.99981689453125
1630674807458,-0.03765869140625,0.0416259765625,0.99560546875
1630674807458,-0.0361328125,0.04595947265625,0.99761962890625
1630674807514,-0.0413818359375,0.04583740234375,0.995361328125
1630674807514,-0.03851318359375,0.04864501953125,0.9930419921875
1630674807514,-0.03912353515625,0.04425048828125,0.9971923828125
1630674807585,-0.04327392578125,0.04888916015625,0.99774169921875
1630674807586,-0.0428466796875,0.048828125,0.9969482421875
1630674807586,-0.039306640625,0.0511474609375,0.9921875
1630674807654,-0.04052734375,0.04473876953125,0.99053955078125
1630674807655,-0.03765869140625,0.04400634765625,0.9906005859375
1630674807675,-0.0391845703125,0.0400390625,0.99444580078125
1630674807705,-0.03033447265625,0.040771484375,1.00567626953125
1630674807705,-0.02880859375,0.03759765625,1.0052490234375
1630674807705,-0.0343017578125,0.0380859375,0.99658203125
1630674807784,-0.02435302734375,0.0457763671875,1.0107421875
1630674807785,-0.0299072265625,0.04278564453125,1.00830078125
1630674807785,-0.025390625,0.04705810546875,1.00604248046875
1630674807817,-0.03131103515625,0.05133056640625,1.0006103515625
1630674807817,-0.02569580078125,0.0472412109375,1.00311279296875
1630674807818,-0.0274658203125,0.0472412109375,1.003662109375
1630674807917,-0.030517578125,0.0472412109375,1.00311279296875
1630674807917,-0.0277099609375,0.04736328125,1.00103759765625
1630674807917,-0.0277099609375,0.0460205078125,1.00006103515625
1630674807936,-0.032958984375,0.044677734375,0.99591064453125
1630674807936,-0.0264892578125,0.04473876953125,1.000732421875
1630674807936,-0.02984619140625,0.045166015625,0.99957275390625
1630674808000,-0.0291748046875,0.04852294921875,0.99481201171875
1630674808001,-0.02911376953125,0.04815673828125,0.99835205078125
1630674808002,-0.02996826171875,0.0477294921875,1.000244140625
1630674808044,-0.027587890625,0.04534912109375,0.997314453125
1630674808045,-0.033203125,0.05059814453125,0.99517822265625
1630674808045,-0.02801513671875,0.0472412109375,1.0057373046875
1630674808091,-0.03167724609375,0.04461669921875,1.0054931640625
1630674808091,-0.031005859375,0.04052734375,1.00726318359375
1630674808092,-0.0325927734375,0.0426025390625,1.0047607421875
1630674808186,-0.0325927734375,0.047607421875,1.00762939453125
1630674808186,-0.03033447265625,0.04541015625,1.004150390625
1630674808186,-0.03125,0.0467529296875,1.0020751953125
1630674808236,-0.0325927734375,0.0478515625,0.99920654296875
1630674808252,-0.03338623046875,0.0482177734375,0.9986572265625
1630674808253,-0.03851318359375,0.0430908203125,0.99951171875
1630674808265,-0.0379638671875,0.04156494140625,0.9942626953125
1630674808266,-0.0411376953125,0.0377197265625,0.995361328125
1630674808267,-0.03643798828125,0.04315185546875,0.99810791015625
1630674808371,-0.037841796875,0.042724609375,0.993408203125
1630674808389,-0.0374755859375,0.04498291015625,0.9986572265625
1630674808389,-0.03692626953125,0.04901123046875,0.99591064453125
1630674808420,-0.0347900390625,0.055908203125,1.00347900390625
1630674808420,-0.0340576171875,0.05792236328125,1.0030517578125
1630674808420,-0.03350830078125,0.0533447265625,1.0084228515625
1630674808495,-0.03369140625,0.04534912109375,1.00848388671875
1630674808495,-0.03192138671875,0.04266357421875,1.0045166015625
1630674808498,-0.0361328125,0.05267333984375,1.0068359375
1630674808543,-0.041015625,0.04522705078125,0.9991455078125
1630674808543,-0.03851318359375,0.0401611328125,1.0020751953125
1630674808544,-0.03704833984375,0.04266357421875,1.0028076171875
1630674808636,-0.0416259765625,0.05169677734375,0.99676513671875
1630674808636,-0.03955078125,0.046875,0.99688720703125
1630674808636,-0.0357666015625,0.048095703125,0.9949951171875
1630674808668,-0.0396728515625,0.0472412109375,0.99554443359375
1630674808672,-0.03900146484375,0.041259765625,0.99334716796875
1630674808673,-0.03924560546875,0.04254150390625,0.99554443359375
1630674808700,-0.03851318359375,0.0401611328125,0.99530029296875
1630674808701,-0.03997802734375,0.03680419921875,0.99566650390625
1630674808702,-0.03961181640625,0.04315185546875,0.99786376953125
1630674808763,-0.0377197265625,0.04541015625,1.00274658203125
1630674808763,-0.03448486328125,0.0435791015625,1.0001220703125
1630674808763,-0.03961181640625,0.0413818359375,0.99810791015625
1630674808827,-0.03802490234375,0.045166015625,1.00811767578125
1630674808828,-0.03436279296875,0.04425048828125,1.0084228515625
1630674808828,-0.03826904296875,0.0433349609375,1.00555419921875
1630674808919,-0.04205322265625,0.04290771484375,0.99615478515625
1630674808920,-0.0416259765625,0.0372314453125,0.9979248046875
1630674808920,-0.03924560546875,0.0426025390625,0.99658203125
1630674808921,-0.0394287109375,0.04571533203125,0.99639892578125
1630674808940,-0.03924560546875,0.0384521484375,1.00286865234375
1630674808945,-0.03961181640625,0.04583740234375,1.00701904296875
1630674809016,-0.04364013671875,0.0498046875,0.99554443359375
1630674809016,-0.04376220703125,0.0394287109375,1.00091552734375
1630674809018,-0.04669189453125,0.04638671875,0.9979248046875
1630674809080,-0.0474853515625,0.048583984375,0.9935302734375
1630674809080,-0.045654296875,0.04168701171875,0.99322509765625
1630674809086,-0.05059814453125,0.04522705078125,0.996337890625
1630674809143,-0.04962158203125,0.03985595703125,0.99713134765625
1630674809144,-0.04736328125,0.038330078125,0.9935302734375
1630674809144,-0.04296875,0.05120849609375,0.99566650390625
1630674809144,-0.0401611328125,0.0440673828125,1.0028076171875
1630674809145,-0.03802490234375,0.050537109375,1.0
1630674809160,-0.04736328125,0.03973388671875,0.9967041015625
1630674809220,-0.0433349609375,0.0504150390625,1.00335693359375
1630674809220,-0.04150390625,0.04833984375,1.00579833984375
1630674809237,-0.0435791015625,0.05108642578125,1.00115966796875
1630674809269,-0.041015625,0.042236328125,1.00360107421875
1630674809269,-0.042236328125,0.04608154296875,1.00372314453125
1630674809269,-0.04010009765625,0.046630859375,1.004150390625
1630674809369,-0.0416259765625,0.04559326171875,1.0010986328125
1630674809369,-0.04046630859375,0.04913330078125,1.00286865234375
1630674809370,-0.04144287109375,0.0482177734375,1.0018310546875
1630674809386,-0.04144287109375,0.0467529296875,0.99212646484375
1630674809386,-0.04302978515625,0.05084228515625,0.99835205078125
1630674809389,-0.0419921875,0.04754638671875,0.99951171875
1630674809470,-0.0418701171875,0.04010009765625,1.002197265625
1630674809470,-0.043212890625,0.04327392578125,0.99346923828125
1630674809471,-0.0413818359375,0.042724609375,0.9925537109375
1630674809519,-0.040771484375,0.03924560546875,1.00030517578125
1630674809519,-0.04241943359375,0.0418701171875,1.0030517578125
1630674809520,-0.0389404296875,0.04736328125,0.9989013671875
1630674809609,-0.039794921875,0.046142578125,0.99969482421875
1630674809610,-0.03955078125,0.0433349609375,1.00518798828125
1630674809611,-0.040771484375,0.04571533203125,1.0054931640625
1630674809657,-0.04229736328125,0.05181884765625,0.99884033203125
1630674809657,-0.04254150390625,0.048828125,1.00714111328125
1630674809657,-0.03704833984375,0.04974365234375,1.0059814453125
1630674809724,-0.04376220703125,0.04217529296875,1.0
1630674809726,-0.044921875,0.0472412109375,0.9964599609375
1630674809727,-0.04278564453125,0.046875,1.002197265625
1630674809759,-0.0465087890625,0.051025390625,0.99859619140625
1630674809762,-0.04840087890625,0.0516357421875,0.99560546875
1630674809771,-0.04547119140625,0.0521240234375,0.99444580078125
1630674809851,-0.0484619140625,0.05645751953125,0.99078369140625
1630674809852,-0.0479736328125,0.0535888671875,0.99359130859375
1630674809853,-0.049072265625,0.0556640625,0.99664306640625
1630674809899,-0.0462646484375,0.04736328125,0.9925537109375
1630674809900,-0.0513916015625,0.05303955078125,0.990966796875
1630674809905,-0.04913330078125,0.0546875,0.98980712890625
1630674809932,-0.04388427734375,0.04144287109375,1.0
1630674809934,-0.04437255859375,0.04180908203125,1.00701904296875
1630674809936,-0.04095458984375,0.04266357421875,0.99951171875
1630674810013,-0.0374755859375,0.0498046875,1.00830078125
1630674810013,-0.04193115234375,0.05010986328125,1.0040283203125
1630674810013,-0.04119873046875,0.0484619140625,0.99658203125
1630674810077,-0.036865234375,0.048095703125,1.0035400390625
1630674810077,-0.03790283203125,0.044677734375,1.00042724609375
1630674810077,-0.0382080078125,0.0482177734375,1.00762939453125
1630674810125,-0.04266357421875,0.05224609375,0.99359130859375
1630674810125,-0.04150390625,0.0565185546875,0.99334716796875
1630674810125,-0.04058837890625,0.04864501953125,0.99578857421875
1630674810170,-0.04296875,0.05303955078125,0.9954833984375
1630674810174,-0.0413818359375,0.04534912109375,0.996337890625
1630674810183,-0.04559326171875,0.05078125,0.9957275390625
1630674810269,-0.03900146484375,0.03741455078125,1.001220703125
1630674810291,-0.04339599609375,0.039794921875,0.9979248046875
1630674810295,-0.03045654296875,0.04913330078125,1.00738525390625
1630674810296,-0.038330078125,0.0380859375,1.0001220703125
1630674810305,-0.03656005859375,0.03741455078125,0.9998779296875
1630674810305,-0.033203125,0.04290771484375,1.00030517578125
1630674810349,-0.03240966796875,0.0523681640625,1.0164794921875
1630674810349,-0.02777099609375,0.04327392578125,1.00225830078125
1630674810349,-0.02911376953125,0.05029296875,1.01043701171875
1630674810398,-0.02752685546875,0.03607177734375,1.0013427734375
1630674810398,-0.0260009765625,0.03271484375,1.00567626953125
1630674810399,-0.02813720703125,0.03106689453125,1.0048828125
1630674810483,-0.0372314453125,0.04937744140625,1.00067138671875
1630674810486,-0.0343017578125,0.04669189453125,0.994384765625
1630674810487,-0.0318603515625,0.040283203125,1.0048828125
1630674810501,-0.03564453125,0.06005859375,0.99169921875
1630674810501,-0.03887939453125,0.04833984375,0.99603271484375
1630674810501,-0.03741455078125,0.0516357421875,0.99755859375
1630674810599,-0.033203125,0.05889892578125,1.001220703125
1630674810599,-0.0394287109375,0.0609130859375,0.99951171875
1630674810599,-0.035888671875,0.0643310546875,1.0003662109375
1630674810635,-0.03802490234375,0.052734375,1.0023193359375
1630674810635,-0.040771484375,0.06048583984375,1.0029296875
1630674810636,-0.03485107421875,0.0638427734375,0.9981689453125
1630674810702,-0.04052734375,0.0408935546875,0.99609375
1630674810702,-0.0426025390625,0.045166015625,1.0029296875
1630674810703,-0.040283203125,0.0369873046875,0.9991455078125
1630674810765,-0.03839111328125,0.03399658203125,0.99456787109375
1630674810765,-0.03851318359375,0.0347900390625,0.99737548828125
1630674810767,-0.0382080078125,0.040771484375,0.99969482421875
1630674810819,-0.03826904296875,0.0438232421875,1.0008544921875
1630674810834,-0.04180908203125,0.05023193359375,1.004150390625
1630674810836,-0.03936767578125,0.0445556640625,1.0078125
1630674810900,-0.046142578125,0.050537109375,0.9996337890625
1630674810900,-0.041259765625,0.05010986328125,1.00103759765625
1630674810900,-0.03997802734375,0.05499267578125,0.997314453125
1630674810967,-0.04339599609375,0.05230712890625,0.992431640625
1630674810968,-0.04638671875,0.05279541015625,0.99444580078125
1630674810968,-0.0443115234375,0.05010986328125,0.99468994140625
1630674810996,-0.045654296875,0.05572509765625,0.9964599609375
1630674810997,-0.04486083984375,0.05218505859375,0.9970703125
1630674810997,-0.04345703125,0.0552978515625,0.99603271484375
1630674811044,-0.0390625,0.05023193359375,0.99407958984375
1630674811046,-0.0457763671875,0.045654296875,0.9979248046875
1630674811068,-0.045166015625,0.05194091796875,0.99468994140625
1630674811118,-0.041015625,0.04620361328125,1.00018310546875
1630674811118,-0.0399169921875,0.043212890625,1.00048828125
1630674811118,-0.0433349609375,0.0428466796875,0.9981689453125
1630674811164,-0.03857421875,0.04803466796875,1.00164794921875
1630674811170,-0.04010009765625,0.05902099609375,1.00726318359375
1630674811170,-0.03961181640625,0.05572509765625,1.00384521484375
1630674811245,-0.04229736328125,0.06085205078125,1.0023193359375
1630674811245,-0.043212890625,0.058837890625,1.0030517578125
1630674811245,-0.0423583984375,0.0601806640625,0.99884033203125
1630674811293,-0.04949951171875,0.051513671875,0.994384765625
1630674811293,-0.045654296875,0.06060791015625,1.002197265625
1630674811301,-0.04522705078125,0.049560546875,1.00006103515625
1630674811355,-0.04376220703125,0.05157470703125,0.99798583984375
1630674811356,-0.04388427734375,0.05279541015625,0.99395751953125
1630674811356,-0.04425048828125,0.04840087890625,0.99896240234375
1630674811419,-0.04302978515625,0.04595947265625,0.9990234375
1630674811419,-0.04052734375,0.05133056640625,1.000732421875
1630674811420,-0.04376220703125,0.04876708984375,0.99761962890625
1630674811469,-0.04339599609375,0.03643798828125,0.997314453125
1630674811471,-0.04119873046875,0.03900146484375,0.99945068359375
1630674811471,-0.0450439453125,0.042724609375,1.004638671875
1630674811533,-0.04241943359375,0.04095458984375,1.00103759765625
1630674811533,-0.04364013671875,0.04931640625,0.9990234375
1630674811534,-0.0445556640625,0.0474853515625,0.99945068359375
1630674811591,-0.04827880859375,0.05078125,0.99896240234375
1630674811591,-0.0460205078125,0.05487060546875,1.00103759765625
1630674811596,-0.0477294921875,0.054931640625,1.0028076171875
1630674811622,-0.05218505859375,0.043212890625,1.0001220703125
1630674811622,-0.05096435546875,0.0421142578125,0.9962158203125
1630674811622,-0.04736328125,0.04388427734375,0.99859619140625
1630674811687,-0.0489501953125,0.04803466796875,0.99163818359375
1630674811687,-0.04901123046875,0.04425048828125,1.0020751953125
1630674811687,-0.0504150390625,0.04864501953125,0.9979248046875
1630674811735,-0.05181884765625,0.04571533203125,0.99151611328125
1630674811736,-0.04852294921875,0.045166015625,0.99420166015625
1630674811737,-0.05242919921875,0.0439453125,0.9910888671875
1630674811817,-0.0477294921875,0.0440673828125,0.99993896484375
1630674811817,-0.04510498046875,0.045654296875,0.99261474609375
1630674811832,-0.04901123046875,0.046630859375,1.00537109375
1630674811875,-0.04803466796875,0.0416259765625,0.99700927734375
1630674811876,-0.0462646484375,0.04730224609375,0.99908447265625
1630674811877,-0.0423583984375,0.0506591796875,0.999755859375
1630674811964,-0.04547119140625,0.04327392578125,1.00115966796875
1630674811965,-0.04376220703125,0.045654296875,1.0050048828125
1630674811971,-0.0408935546875,0.0418701171875,1.0006103515625
1630674811979,-0.04046630859375,0.04736328125,1.00390625
1630674811986,-0.03997802734375,0.04547119140625,1.002685546875
1630674811987,-0.041259765625,0.04193115234375,0.9981689453125
1630674812047,-0.0439453125,0.0501708984375,0.99652099609375
1630674812048,-0.0411376953125,0.04986572265625,1.0023193359375
1630674812048,-0.04150390625,0.04559326171875,1.00390625
1630674812136,-0.04290771484375,0.0382080078125,1.0023193359375
1630674812137,-0.04290771484375,0.0462646484375,0.9970703125
1630674812137,-0.04498291015625,0.03997802734375,1.001953125
1630674812151,-0.0406494140625,0.05096435546875,1.00030517578125
1630674812166,-0.04473876953125,0.0562744140625,0.99908447265625
1630674812170,-0.04443359375,0.0479736328125,0.9962158203125
1630674812251,-0.04241943359375,0.0455322265625,1.0006103515625
1630674812252,-0.0416259765625,0.05633544921875,1.0006103515625
1630674812252,-0.04345703125,0.0528564453125,1.0015869140625
1630674812313,-0.04248046875,0.0386962890625,0.99761962890625
1630674812313,-0.04071044921875,0.0355224609375,0.9951171875
1630674812315,-0.04107666015625,0.03863525390625,1.00262451171875
1630674812350,-0.0406494140625,0.04901123046875,0.9996337890625
1630674812359,-0.043212890625,0.04156494140625,0.99945068359375
1630674812361,-0.045654296875,0.0439453125,1.000732421875
1630674812397,-0.0421142578125,0.0457763671875,1.00347900390625
1630674812397,-0.0401611328125,0.04937744140625,1.00128173828125
1630674812413,-0.0382080078125,0.0428466796875,1.00225830078125
1630674812468,-0.04534912109375,0.0419921875,0.99871826171875
1630674812468,-0.04071044921875,0.0404052734375,1.00189208984375
1630674812468,-0.04400634765625,0.0418701171875,0.9986572265625
1630674812612,-0.0411376953125,0.04803466796875,1.0008544921875
1630674812612,-0.0421142578125,0.0538330078125,1.00250244140625
1630674812614,-0.044677734375,0.046142578125,0.9969482421875
1630674812642,-0.044677734375,0.052490234375,0.9976806640625
1630674812642,-0.04010009765625,0.04449462890625,0.99407958984375
1630674812642,-0.0384521484375,0.04791259765625,0.9989013671875
1630674812643,-0.04217529296875,0.05487060546875,0.997802734375
1630674812643,-0.04339599609375,0.04888916015625,0.99884033203125
1630674812645,-0.04339599609375,0.049072265625,0.99884033203125
1630674812690,-0.0386962890625,0.04632568359375,1.00701904296875
1630674812691,-0.04193115234375,0.04534912109375,1.00152587890625
1630674812691,-0.0400390625,0.04364013671875,1.0089111328125
1630674812785,-0.042236328125,0.0479736328125,1.00421142578125
1630674812785,-0.03936767578125,0.046142578125,0.99993896484375
1630674812806,-0.04193115234375,0.04449462890625,0.99822998046875
1630674812814,-0.04083251953125,0.04736328125,1.00311279296875
1630674812814,-0.0404052734375,0.043212890625,0.99951171875
1630674812815,-0.04254150390625,0.04705810546875,1.00054931640625
1630674812862,-0.0390625,0.04766845703125,1.0035400390625
1630674812863,-0.0433349609375,0.0487060546875,0.99273681640625
1630674812879,-0.0401611328125,0.03936767578125,1.00299072265625
1630674812925,-0.0421142578125,0.0406494140625,0.9989013671875
1630674812925,-0.04132080078125,0.04296875,1.0009765625
1630674812925,-0.03985595703125,0.04412841796875,0.99969482421875
1630674813036,-0.04180908203125,0.051513671875,1.001953125
1630674813036,-0.04046630859375,0.0477294921875,1.00140380859375
1630674813036,-0.0440673828125,0.04693603515625,0.99945068359375
1630674813051,-0.04345703125,0.038818359375,1.0006103515625
1630674813051,-0.04290771484375,0.0396728515625,1.0052490234375
1630674813051,-0.0406494140625,0.0465087890625,0.998291015625
1630674813151,-0.0440673828125,0.0413818359375,0.99322509765625
1630674813151,-0.04718017578125,0.04266357421875,1.0013427734375
1630674813151,-0.0435791015625,0.0411376953125,0.99932861328125
1630674813169,-0.044921875,0.04998779296875,0.9957275390625
1630674813169,-0.041259765625,0.05072021484375,0.998046875
1630674813169,-0.04388427734375,0.052490234375,0.99700927734375
1630674813246,-0.0406494140625,0.04547119140625,1.00079345703125
1630674813247,-0.04241943359375,0.0455322265625,1.00091552734375
1630674813249,-0.04107666015625,0.04876708984375,0.99908447265625
1630674813294,-0.04168701171875,0.041748046875,0.99591064453125
1630674813294,-0.04364013671875,0.04705810546875,0.99700927734375
1630674813294,-0.04083251953125,0.0406494140625,1.00238037109375
1630674813368,-0.0399169921875,0.04779052734375,0.99462890625
1630674813370,-0.04437255859375,0.04949951171875,0.993408203125
1630674813370,-0.042724609375,0.0513916015625,0.99169921875
1630674813398,-0.0343017578125,0.05181884765625,1.014404296875
1630674813398,-0.04205322265625,0.05157470703125,1.0086669921875
1630674813398,-0.04327392578125,0.05133056640625,1.00054931640625
1630674813471,-0.0330810546875,0.05487060546875,1.00384521484375
1630674813472,-0.0328369140625,0.04931640625,0.99237060546875
1630674813472,-0.0352783203125,0.04486083984375,0.99114990234375
1630674813536,-0.03802490234375,0.03857421875,0.998291015625
1630674813538,-0.03564453125,0.03839111328125,1.00787353515625
1630674813543,-0.0377197265625,0.03387451171875,1.01824951171875
1630674813568,-0.03350830078125,0.041259765625,0.99676513671875
1630674813569,-0.0347900390625,0.037841796875,1.00164794921875
1630674813569,-0.03387451171875,0.04388427734375,0.9996337890625
1630674813653,-0.0408935546875,0.0423583984375,1.00006103515625
1630674813654,-0.041259765625,0.043701171875,0.9964599609375
1630674813654,-0.03851318359375,0.04449462890625,0.99493408203125
1630674813722,-0.0379638671875,0.04425048828125,0.99945068359375
1630674813722,-0.03814697265625,0.03997802734375,0.99737548828125
1630674813723,-0.0396728515625,0.036376953125,0.99957275390625
1630674813751,-0.0364990234375,0.04486083984375,1.004150390625
1630674813753,-0.041015625,0.0506591796875,1.009033203125
1630674813753,-0.03570556640625,0.045166015625,1.009765625
1630674813819,-0.0367431640625,0.04730224609375,1.00140380859375
1630674813819,-0.0369873046875,0.0501708984375,1.00146484375
1630674813819,-0.039794921875,0.04278564453125,0.999755859375
1630674813901,-0.03985595703125,0.04132080078125,1.00115966796875
1630674813901,-0.0430908203125,0.041015625,0.9921875
1630674813901,-0.0430908203125,0.03973388671875,1.00006103515625
1630674813935,-0.0452880859375,0.041748046875,0.994384765625
1630674813935,-0.04632568359375,0.035888671875,0.99835205078125
1630674813935,-0.05084228515625,0.04351806640625,0.9979248046875
1630674813997,-0.04833984375,0.0445556640625,1.0010986328125
1630674813997,-0.0462646484375,0.03955078125,0.99755859375
1630674813997,-0.0458984375,0.04644775390625,0.995849609375
1630674814044,-0.049072265625,0.0419921875,0.99859619140625
1630674814044,-0.04937744140625,0.0479736328125,0.99566650390625
1630674814045,-0.04742431640625,0.04644775390625,0.99676513671875
1630674814143,-0.04901123046875,0.05096435546875,0.99237060546875
1630674814144,-0.04736328125,0.0477294921875,0.993896484375
1630674814144,-0.05120849609375,0.04931640625,0.99072265625
1630674814176,-0.0479736328125,0.04931640625,0.9930419921875
1630674814176,-0.048828125,0.05450439453125,0.99407958984375
1630674814177,-0.04229736328125,0.05670166015625,1.00152587890625
1630674814232,-0.04486083984375,0.0567626953125,1.003662109375
1630674814232,-0.0423583984375,0.05242919921875,1.00030517578125
1630674814240,-0.04315185546875,0.0550537109375,1.00054931640625
1630674814288,-0.03948974609375,0.04791259765625,0.99517822265625
1630674814289,-0.03961181640625,0.0478515625,0.9949951171875
1630674814289,-0.04095458984375,0.04132080078125,1.017333984375
1630674814364,-0.0382080078125,0.03985595703125,1.00048828125
1630674814364,-0.03814697265625,0.039306640625,1.00543212890625
1630674814364,-0.03887939453125,0.0352783203125,1.01171875
1630674814446,-0.035400390625,0.04302978515625,1.0035400390625
1630674814446,-0.04339599609375,0.04052734375,1.00762939453125
1630674814446,-0.038818359375,0.04302978515625,0.9971923828125
1630674814468,-0.04071044921875,0.04156494140625,0.99395751953125
1630674814468,-0.0406494140625,0.0401611328125,0.99359130859375
1630674814469,-0.03753662109375,0.04034423828125,0.9908447265625
1630674814534,-0.04052734375,0.0384521484375,0.9974365234375
1630674814534,-0.03509521484375,0.04327392578125,1.0025634765625
1630674814534,-0.038330078125,0.04058837890625,1.00396728515625
1630674814580,-0.03741455078125,0.04461669921875,1.007568359375
1630674814623,-0.03887939453125,0.040283203125,0.998291015625
1630674814625,-0.04119873046875,0.04266357421875,0.99725341796875
1630674814649,-0.03961181640625,0.03668212890625,1.0010986328125
1630674814650,-0.0396728515625,0.03643798828125,0.9969482421875
1630674814651,-0.04571533203125,0.0386962890625,1.002197265625
1630674814735,-0.04559326171875,0.05401611328125,0.99383544921875
1630674814735,-0.044189453125,0.04180908203125,1.00244140625
1630674814735,-0.0430908203125,0.04901123046875,1.000244140625
1630674814770,-0.04913330078125,0.05560302734375,0.99700927734375
1630674814770,-0.04840087890625,0.053466796875,0.9979248046875
1630674814771,-0.04425048828125,0.05462646484375,0.99884033203125
1630674814850,-0.0491943359375,0.04632568359375,1.00067138671875
1630674814851,-0.04412841796875,0.04351806640625,1.00164794921875
1630674814867,-0.0419921875,0.05108642578125,0.99761962890625
1630674814915,-0.044677734375,0.03814697265625,0.99798583984375
1630674814915,-0.0418701171875,0.0382080078125,0.994384765625
1630674814915,-0.04254150390625,0.04010009765625,0.99444580078125
1630674814951,-0.04071044921875,0.0419921875,0.99920654296875
1630674814951,-0.03961181640625,0.04522705078125,0.998779296875
1630674814951,-0.04339599609375,0.0411376953125,0.99383544921875
1630674815009,-0.03680419921875,0.0416259765625,1.0009765625
1630674815009,-0.03594970703125,0.04595947265625,1.00201416015625
1630674815009,-0.033935546875,0.04254150390625,1.00421142578125
1630674815051,-0.0362548828125,0.04620361328125,1.002685546875
1630674815051,-0.02960205078125,0.04107666015625,1.0059814453125
1630674815051,-0.0322265625,0.0411376953125,1.00018310546875
1630674815141,-0.0299072265625,0.04833984375,1.00286865234375
1630674815142,-0.0281982421875,0.04632568359375,1.0103759765625
1630674815142,-0.03387451171875,0.04742431640625,1.0057373046875
1630674815194,-0.032958984375,0.04962158203125,1.0054931640625
1630674815194,-0.03192138671875,0.0511474609375,1.00262451171875
1630674815195,-0.03094482421875,0.050537109375,1.00164794921875
1630674815218,-0.0299072265625,0.0455322265625,1.00042724609375
1630674815220,-0.031005859375,0.0430908203125,0.998046875
1630674815220,-0.03253173828125,0.04388427734375,0.99810791015625
1630674815311,-0.0322265625,0.0445556640625,1.003662109375
1630674815311,-0.032958984375,0.0452880859375,0.99969482421875
1630674815318,-0.03338623046875,0.05328369140625,1.00128173828125
1630674815365,-0.0321044921875,0.0528564453125,1.001220703125
1630674815365,-0.03399658203125,0.05426025390625,1.0006103515625
1630674815366,-0.03424072265625,0.04718017578125,1.00225830078125
1630674815403,-0.035400390625,0.03765869140625,1.00048828125
1630674815403,-0.0345458984375,0.043212890625,0.99847412109375
1630674815403,-0.03448486328125,0.03778076171875,1.00384521484375
1630674815450,-0.03912353515625,0.04266357421875,1.0009765625
1630674815450,-0.0377197265625,0.036376953125,0.99786376953125
1630674815450,-0.0406494140625,0.04571533203125,0.99749755859375
1630674815525,-0.03790283203125,0.04559326171875,1.00091552734375
1630674815526,-0.0390625,0.04437255859375,0.99920654296875
1630674815527,-0.03948974609375,0.04443359375,0.99713134765625
1630674815596,-0.034912109375,0.0428466796875,1.00262451171875
1630674815596,-0.038330078125,0.0406494140625,1.00286865234375
1630674815597,-0.03759765625,0.04241943359375,1.0018310546875
1630674815681,-0.0399169921875,0.04510498046875,0.9947509765625
1630674815681,-0.0386962890625,0.04241943359375,0.99591064453125
1630674815681,-0.03863525390625,0.0421142578125,0.99993896484375
1630674815696,-0.0374755859375,0.051025390625,0.99774169921875
1630674815696,-0.039306640625,0.05096435546875,0.99407958984375
1630674815705,-0.03802490234375,0.0467529296875,0.99493408203125
1630674815768,-0.03472900390625,0.04296875,0.9991455078125
1630674815771,-0.03472900390625,0.04705810546875,0.999755859375
1630674815771,-0.03753662109375,0.045654296875,0.99957275390625
1630674815812,-0.03009033203125,0.04461669921875,1.0009765625
1630674815815,-0.0321044921875,0.04443359375,1.002197265625
1630674815815,-0.03326416015625,0.0438232421875,1.003662109375
1630674815859,-0.03240966796875,0.0516357421875,1.00042724609375
1630674815859,-0.02850341796875,0.04803466796875,1.0064697265625
1630674815859,-0.02996826171875,0.05169677734375,1.00238037109375
1630674815982,-0.03076171875,0.04974365234375,1.00634765625
1630674815983,-0.02459716796875,0.04766845703125,1.0010986328125
1630674815986,-0.02880859375,0.04888916015625,0.9981689453125
1630674816065,-0.03204345703125,0.04510498046875,0.99920654296875
1630674816066,-0.0347900390625,0.0479736328125,1.0003662109375
1630674816066,-0.03472900390625,0.05169677734375,0.99951171875
1630674816066,-0.0283203125,0.04180908203125,0.99993896484375
1630674816067,-0.0291748046875,0.04364013671875,1.00421142578125
1630674816067,-0.02862548828125,0.03997802734375,1.00537109375
1630674816144,-0.0355224609375,0.052001953125,0.9970703125
1630674816158,-0.03497314453125,0.04644775390625,0.99627685546875
1630674816159,-0.03741455078125,0.05230712890625,0.99530029296875
1630674816181,-0.040283203125,0.03448486328125,0.9970703125
1630674816181,-0.0372314453125,0.03070068359375,0.9974365234375
1630674816181,-0.036376953125,0.03759765625,0.99468994140625
1630674816265,-0.0369873046875,0.03411865234375,0.99908447265625
1630674816267,-0.03790283203125,0.03558349609375,1.00238037109375
1630674816267,-0.035400390625,0.04144287109375,0.99658203125
1630674816295,-0.0343017578125,0.0482177734375,1.0013427734375
1630674816295,-0.03350830078125,0.0504150390625,1.001220703125
1630674816296,-0.0340576171875,0.0491943359375,1.00421142578125
1630674816354,-0.03399658203125,0.05291748046875,1.00140380859375
1630674816354,-0.03387451171875,0.0513916015625,1.00201416015625
1630674816354,-0.03240966796875,0.0511474609375,1.00286865234375
1630674816421,-0.034912109375,0.05419921875,0.99932861328125
1630674816421,-0.03472900390625,0.051513671875,1.00177001953125
1630674816422,-0.03546142578125,0.047607421875,1.0018310546875
1630674816455,-0.03216552734375,0.055419921875,0.99627685546875
1630674816455,-0.0333251953125,0.0462646484375,0.99395751953125
1630674816455,-0.0328369140625,0.05181884765625,0.99578857421875
1630674816539,-0.03326416015625,0.04364013671875,0.99493408203125
1630674816539,-0.03143310546875,0.03729248046875,0.999755859375
1630674816539,-0.033203125,0.04315185546875,0.99468994140625
1630674816606,-0.02740478515625,0.0411376953125,1.00152587890625
1630674816607,-0.02459716796875,0.04730224609375,1.00128173828125
1630674816607,-0.02734375,0.0406494140625,0.99749755859375
1630674816681,-0.0252685546875,0.0419921875,1.0057373046875
1630674816681,-0.0247802734375,0.0528564453125,1.00469970703125
1630674816681,-0.0260009765625,0.0430908203125,1.0057373046875
1630674816681,-0.022705078125,0.0469970703125,1.00469970703125
1630674816681,-0.02227783203125,0.04693603515625,1.0074462890625
1630674816684,-0.02484130859375,0.0467529296875,1.00506591796875
1630674816771,-0.02728271484375,0.0457763671875,1.00543212890625
1630674816771,-0.02294921875,0.044921875,1.00640869140625
1630674816771,-0.02410888671875,0.051513671875,1.00079345703125
1630674816815,-0.0264892578125,0.040283203125,0.996826171875
1630674816815,-0.02789306640625,0.04217529296875,0.99481201171875
1630674816815,-0.0306396484375,0.0406494140625,1.0008544921875
1630674816904,-0.0284423828125,0.0438232421875,0.9984130859375
1630674816904,-0.02978515625,0.04180908203125,0.99951171875
1630674816904,-0.0296630859375,0.04901123046875,0.9930419921875
1630674816965,-0.03472900390625,0.04925537109375,0.98626708984375
1630674816966,-0.02984619140625,0.0484619140625,0.990966796875
1630674816970,-0.0325927734375,0.04632568359375,0.98883056640625
1630674816990,-0.029296875,0.0478515625,1.000732421875
1630674816990,-0.0240478515625,0.04193115234375,1.01153564453125
1630674816990,-0.02813720703125,0.0438232421875,0.9984130859375
1630674817063,-0.022216796875,0.0352783203125,1.00115966796875
1630674817063,-0.02459716796875,0.03253173828125,1.00933837890625
1630674817063,-0.02337646484375,0.0357666015625,1.00726318359375
1630674817134,-0.02264404296875,0.03594970703125,1.00860595703125
1630674817134,-0.021240234375,0.04217529296875,1.0076904296875
1630674817136,-0.0220947265625,0.03515625,1.0067138671875
1630674817196,-0.02978515625,0.04644775390625,1.00299072265625
1630674817196,-0.02593994140625,0.04547119140625,1.00189208984375
1630674817197,-0.02496337890625,0.03997802734375,1.00201416015625
1630674817222,-0.02996826171875,0.0458984375,0.9993896484375
1630674817223,-0.026123046875,0.04510498046875,0.99774169921875
1630674817223,-0.0302734375,0.04400634765625,0.99517822265625
1630674817282,-0.0284423828125,0.04217529296875,0.99542236328125
1630674817282,-0.02630615234375,0.04266357421875,0.99383544921875
1630674817282,-0.02862548828125,0.0428466796875,0.98907470703125
1630674817387,-0.0218505859375,0.04144287109375,1.00079345703125
1630674817388,-0.021240234375,0.0391845703125,0.99755859375
1630674817389,-0.02154541015625,0.0379638671875,1.00372314453125
1630674817442,-0.01678466796875,0.0352783203125,1.006103515625
1630674817442,-0.01904296875,0.03863525390625,1.00469970703125
1630674817442,-0.01904296875,0.03741455078125,1.005859375
1630674817465,-0.02069091796875,0.03961181640625,1.008544921875
1630674817471,-0.01593017578125,0.03668212890625,1.00604248046875
1630674817535,-0.02471923828125,0.0526123046875,0.99609375
1630674817535,-0.02313232421875,0.04888916015625,0.9986572265625
1630674817535,-0.02203369140625,0.0452880859375,1.008544921875
1630674817630,-0.02874755859375,0.05255126953125,1.00433349609375
1630674817630,-0.02935791015625,0.0513916015625,0.9996337890625
1630674817647,-0.02935791015625,0.04022216796875,0.9974365234375
1630674817683,-0.0262451171875,0.04473876953125,0.99517822265625
1630674817683,-0.02618408203125,0.042724609375,0.9962158203125
1630674817684,-0.0279541015625,0.04388427734375,1.00250244140625
1630674817714,-0.02838134765625,0.041748046875,1.00372314453125
1630674817715,-0.029296875,0.0445556640625,0.9959716796875
1630674817715,-0.03021240234375,0.04486083984375,1.00018310546875
1630674817778,-0.0294189453125,0.03857421875,1.000244140625
1630674817778,-0.02667236328125,0.039306640625,1.00103759765625
1630674817778,-0.02923583984375,0.0394287109375,0.99749755859375
1630674817810,-0.02740478515625,0.03594970703125,1.00323486328125
1630674817811,-0.0286865234375,0.03961181640625,1.00103759765625
1630674817811,-0.030029296875,0.0404052734375,0.99853515625
1630674817934,-0.02911376953125,0.04345703125,0.99761962890625
1630674817934,-0.0294189453125,0.04669189453125,0.998779296875
1630674817935,-0.02734375,0.04248046875,1.00238037109375
1630674817935,-0.03009033203125,0.04058837890625,0.99700927734375
1630674817936,-0.0294189453125,0.04571533203125,1.00152587890625
1630674817936,-0.02935791015625,0.04351806640625,1.00311279296875
1630674818034,-0.0260009765625,0.04193115234375,1.0
1630674818034,-0.030517578125,0.040283203125,0.99688720703125
1630674818048,-0.02972412109375,0.044921875,0.999755859375
1630674818067,-0.0321044921875,0.043701171875,0.995361328125
1630674818068,-0.03094482421875,0.0438232421875,0.99090576171875
1630674818069,-0.028076171875,0.0472412109375,0.9940185546875
1630674818155,-0.02581787109375,0.04803466796875,1.00067138671875
1630674818155,-0.0223388671875,0.0491943359375,1.004150390625
1630674818170,-0.02752685546875,0.0517578125,0.9903564453125
1630674818203,-0.0235595703125,0.0447998046875,1.00518798828125
1630674818203,-0.022216796875,0.0438232421875,1.0008544921875
1630674818205,-0.017333984375,0.04425048828125,1.0072021484375
1630674818255,-0.0169677734375,0.052490234375,1.000244140625
1630674818255,-0.01885986328125,0.04339599609375,1.00885009765625
1630674818271,-0.0146484375,0.04718017578125,1.00421142578125
1630674818302,-0.0208740234375,0.04766845703125,1.004638671875
1630674818302,-0.0167236328125,0.0457763671875,1.00469970703125
1630674818303,-0.01812744140625,0.053466796875,1.00494384765625
1630674818364,-0.01824951171875,0.04229736328125,1.00390625
1630674818372,-0.0191650390625,0.03924560546875,0.99615478515625
1630674818372,-0.0203857421875,0.040283203125,1.0013427734375
1630674818397,-0.01666259765625,0.04119873046875,0.99957275390625
1630674818397,-0.017578125,0.04058837890625,1.0035400390625
1630674818398,-0.0198974609375,0.03985595703125,0.99688720703125
1630674818483,-0.01434326171875,0.0462646484375,1.00225830078125
1630674818484,-0.01318359375,0.0499267578125,1.005615234375
1630674818488,-0.01702880859375,0.04449462890625,0.9981689453125
1630674818533,-0.0146484375,0.04522705078125,0.9989013671875
1630674818533,-0.00946044921875,0.0498046875,1.004150390625
1630674818533,-0.0118408203125,0.0487060546875,1.00579833984375
1630674818595,-0.01983642578125,0.0408935546875,0.99688720703125
1630674818595,-0.01519775390625,0.03887939453125,1.00140380859375
1630674818595,-0.01806640625,0.04327392578125,1.00396728515625
1630674818658,-0.01727294921875,0.04595947265625,1.00347900390625
1630674818658,-0.018798828125,0.04559326171875,0.9932861328125
1630674818658,-0.018310546875,0.04473876953125,1.00079345703125
1630674818718,-0.01922607421875,0.0518798828125,0.998779296875
1630674818723,-0.0213623046875,0.04681396484375,0.9979248046875
1630674818724,-0.01806640625,0.04656982421875,1.00128173828125
1630674818791,-0.01220703125,0.04766845703125,1.0052490234375
1630674818791,-0.0157470703125,0.04901123046875,1.0048828125
1630674818791,-0.01513671875,0.04669189453125,1.0001220703125
1630674818839,-0.01708984375,0.0489501953125,0.9979248046875
1630674818839,-0.0213623046875,0.051025390625,0.99786376953125
1630674818839,-0.01507568359375,0.04571533203125,1.00225830078125
1630674818887,-0.0174560546875,0.05206298828125,0.99786376953125
1630674818888,-0.0164794921875,0.05316162109375,1.00152587890625
1630674818888,-0.01824951171875,0.05450439453125,0.99957275390625
1630674818953,-0.0113525390625,0.04583740234375,1.00054931640625
1630674818954,-0.0140380859375,0.04705810546875,0.99859619140625
1630674818954,-0.01513671875,0.05096435546875,0.99853515625
1630674819000,-0.01202392578125,0.043701171875,1.00933837890625
1630674819000,-0.00531005859375,0.04779052734375,1.00689697265625
1630674819084,-0.00677490234375,0.04412841796875,1.00390625
1630674819086,-0.0076904296875,0.044921875,1.00628662109375
1630674819099,-0.01202392578125,0.04888916015625,1.00421142578125
