timestamp,ax,ay,az
1630932864978,-0.327936,0.708271,0.663924
1630932864987,-0.33000999999999997,0.707112,0.6639849999999999
1630932864997,-0.331413,0.7056479999999999,0.6612399999999999
1630932865007,-0.33214499999999997,0.703574,0.661118
1630932865016,-0.329156,0.700585,0.663619
1630932865026,-0.328241,0.701256,0.664107
1630932865035,-0.324703,0.701195,0.662094
1630932865045,-0.322446,0.701256,0.6587999999999999
1630932865055,-0.31707799999999997,0.699365,0.658068
1630932865064,-0.310002,0.698511,0.657153
1630932865074,-0.30475599999999997,0.699304,0.654896
1630932865083,-0.300303,0.7038179999999999,0.651724
1630932865093,-0.291946,0.70394,0.649894
1630932865103,-0.284748,0.701683,0.649772
1630932865112,-0.278343,0.700158,0.649894
1630932865122,-0.270291,0.695522,0.648491
1630932865131,-0.264557,0.689605,0.648125
1630932865141,-0.258274,0.686128,0.648796
1630932865151,-0.253272,0.68625,0.649833
1630932865160,-0.247782,0.684176,0.652761
1630932865170,-0.243146,0.685701,0.6575799999999999
1630932865179,-0.238998,0.686006,0.660691
1630932865189,-0.235094,0.684237,0.665693
1630932865199,-0.232105,0.6822239999999999,0.670939
1630932865208,-0.229482,0.682651,0.673074
1630932865218,-0.227469,0.684176,0.675453
1630932865227,-0.223504,0.687592,0.680943
1630932865237,-0.21838,0.689788,0.683566
1630932865247,-0.217038,0.691801,0.686006
1630932865256,-0.214354,0.691496,0.6880189999999999
1630932865266,-0.211365,0.691557,0.689666
1630932865275,-0.208803,0.692167,0.688812
1630932113005,-0.15914899999999998,0.960262,0.263764
1630932113014,-0.159515,0.960689,0.264008
1630932113024,-0.16036899999999998,0.960262,0.262239
1630932113034,-0.16097899999999998,0.9597129999999999,0.2623
1630932113043,-0.160186,0.9584929999999999,0.263825
1630932113053,-0.15921,0.959652,0.264008
1630932113062,-0.15975899999999998,0.958554,0.263947
1630932113072,-0.159881,0.9584929999999999,0.264435
1630932113082,-0.15982,0.95831,0.26474
1630932113091,-0.159027,0.958554,0.264618
1630932113101,-0.15945399999999998,0.959835,0.263825
1630932113110,-0.157685,0.9591029999999999,0.263764
1630932113120,-0.157197,0.959225,0.26291
1630932113130,-0.15677,0.9587979999999999,0.263703
1630932113139,-0.157136,0.958127,0.262666
1630932113149,-0.155306,0.958066,0.262483
1630932113158,-0.154696,0.959042,0.262239
1630932113168,-0.154086,0.957761,0.26065299999999997
1630932113178,-0.153476,0.956297,0.257969
1630932113187,-0.152805,0.958066,0.256932
1630932113197,-0.153171,0.960689,0.256261
1630932113206,-0.153354,0.961299,0.255285
1630932113216,-0.15390299999999998,0.959835,0.256444
1630932113226,-0.155001,0.957151,0.256932
1630932113235,-0.153354,0.957517,0.26047
1630932113245,-0.150548,0.961787,0.263764
1630932113254,-0.149633,0.9663619999999999,0.265228
1630932113264,-0.149145,0.969534,0.264923
1630932113274,-0.148718,0.969595,0.263032
1630932113283,-0.14884,0.96685,0.26126299999999997
1630932113293,-0.148474,0.964898,0.258945
1630932113302,-0.147925,0.963007,0.258945
1630932113312,-0.147681,0.970388,0.254004
1630932113322,-0.149816,0.9803919999999999,0.243207
1630932113331,-0.15481799999999998,0.985516,0.234484
1630932113341,-0.158905,0.989847,0.227957
1630932113350,-0.159881,0.989725,0.223443
1630932113360,-0.162504,0.987346,0.220393
1630932113370,-0.16439499999999999,0.979599,0.218197
1630932113379,-0.166652,0.970449,0.21838
1630932113389,-0.163968,0.964532,0.218441
1630932113398,-0.16165,0.9578829999999999,0.219966
1630932113408,-0.15792899999999999,0.953369,0.222528
1630932113418,-0.152561,0.94794,0.22691999999999998
1630932113427,-0.147376,0.9481229999999999,0.232532
1630932113437,-0.140117,0.956297,0.236741
1630932113446,-0.132492,0.9697169999999999,0.24461
1630932113456,-0.12444,0.9706319999999999,0.252906
1630932113466,-0.118767,0.9654469999999999,0.265228
1630932113475,-0.113704,0.957517,0.277672
1630932113485,-0.109495,0.945439,0.294325
1630932113494,-0.106445,0.932568,0.312259
1630932113504,-0.102602,0.928115,0.327326
1630932113514,-0.097234,0.9335439999999999,0.341356
1630932113523,-0.095038,0.93086,0.35404399999999997
1630932113533,-0.09143899999999999,0.923906,0.367952
1630932113542,-0.088938,0.915122,0.383507
1630932113552,-0.086742,0.906582,0.398147
1630932113562,-0.083021,0.899689,0.412726
1630932113571,-0.080398,0.8942599999999999,0.426329
1630932113581,-0.075457,0.890356,0.43938299999999997
1630932113590,-0.073932,0.886757,0.450302
1630932113600,-0.071675,0.882365,0.460794
1630932113610,-0.07137,0.878522,0.467626
1630932113619,-0.072346,0.876265,0.472506
1630932113629,-0.073627,0.873337,0.475861
1630932113638,-0.074725,0.873215,0.47695899999999997
1630932113648,-0.077043,0.876509,0.478057
1630932113658,-0.078568,0.8778509999999999,0.47878899999999996
1630932113667,-0.079971,0.878034,0.479338
1630932113677,-0.08064199999999999,0.8790709999999999,0.480985
1630932113686,-0.082716,0.878217,0.48379099999999997
1630932113696,-0.084119,0.878034,0.48623099999999997
1630932113706,-0.086742,0.876997,0.488305
1630932113715,-0.08851099999999999,0.8754109999999999,0.48928099999999997
1630932113725,-0.09174399999999999,0.87291,0.49141599999999996
1630932113734,-0.09436699999999999,0.868762,0.49263599999999996
1630932113744,-0.09558699999999999,0.865163,0.49471
1630932113754,-0.097783,0.862845,0.495259
1630932113763,-0.099796,0.8641869999999999,0.496906
1630932113773,-0.101687,0.8644919999999999,0.496601
1630932113782,-0.102297,0.863211,0.49733299999999997
1630932113792,-0.103639,0.861564,0.498492
1630932113802,-0.105835,0.860283,0.499041
1630932113811,-0.10790899999999999,0.8574769999999999,0.501176
1630932113821,-0.108946,0.855586,0.502762
1630932113830,-0.11102,0.854183,0.503128
1630932113840,-0.113094,0.85522,0.504897
1630932113850,-0.113704,0.8538169999999999,0.507398
1630932113859,-0.115717,0.851926,0.510326
1630932113869,-0.11638799999999999,0.8495469999999999,0.513925
1630932113878,-0.116205,0.847839,0.519293
1630932113888,-0.117059,0.846314,0.5228309999999999
1630932113898,-0.11901099999999999,0.844484,0.526369
1630932113907,-0.120414,0.84302,0.528992
1630932113917,-0.12261,0.842105,0.531371
1630932113926,-0.122793,0.8407629999999999,0.53314
1630932113936,-0.123891,0.842288,0.53375
1630932113946,-0.124379,0.842166,0.537044
1630932113955,-0.125721,0.842471,0.538996
1630932113965,-0.127002,0.841129,0.540521
1630932113974,-0.128283,0.840336,0.542351
1630932113984,-0.129625,0.8398479999999999,0.543937
1630932113994,-0.129991,0.839116,0.544303
1630932114003,-0.132004,0.837896,0.544547
1630932114013,-0.132858,0.83692,0.544364
1630932114022,-0.133346,0.836066,0.544669
1630932114032,-0.133895,0.836554,0.543571
1630932114042,-0.13572499999999998,0.837286,0.544852
1630932114051,-0.136274,0.836981,0.544974
1630932114061,-0.138043,0.838079,0.545096
1630932114070,-0.139995,0.836981,0.544669
1630932114080,-0.14097099999999999,0.837286,0.545096
1630932114090,-0.14213,0.837347,0.545828
1630932114099,-0.143533,0.837652,0.545706
1630932114109,-0.144204,0.837042,0.545523
1630932114118,-0.143594,0.836554,0.545523
1630932114128,-0.145607,0.835822,0.545218
1630932114138,-0.146644,0.835944,0.5456449999999999
1630932114147,-0.14701,0.837286,0.5441199999999999
1630932114157,-0.148901,0.8358829999999999,0.543022
1630932114166,-0.15006,0.837225,0.543022
1630932114176,-0.150792,0.839116,0.541558
1630932114186,-0.151646,0.837896,0.539728
1630932114195,-0.151646,0.833992,0.539362
1630932114205,-0.153415,0.8296,0.5383249999999999
1630932114214,-0.155306,0.828136,0.541436
1630932114224,-0.154391,0.828319,0.5438149999999999
1630932114234,-0.154025,0.829722,0.546499
1630932114243,-0.155306,0.8310029999999999,0.5459499999999999
1630932114253,-0.15451299999999998,0.831796,0.544181
1630932114262,-0.155489,0.8300879999999999,0.542656
1630932114272,-0.155306,0.82777,0.540826
1630932114282,-0.155428,0.826916,0.540216
1630932114291,-0.154635,0.82533,0.539606
1630932114301,-0.155733,0.824354,0.540033
1630932114310,-0.156587,0.8233779999999999,0.540094
1630932114320,-0.155916,0.823012,0.541619
1630932114330,-0.156587,0.82594,0.541802
1630932114339,-0.156099,0.827465,0.541802
1630932114349,-0.156282,0.829417,0.541192
1630932114358,-0.155855,0.829051,0.540033
1630932114368,-0.156465,0.828685,0.540338
1630932114378,-0.157014,0.827709,0.540216
1630932114387,-0.156892,0.8270379999999999,0.540887
1630932114397,-0.157441,0.8258179999999999,0.541131
1630932114406,-0.158905,0.8245979999999999,0.541192
1630932114416,-0.159881,0.823744,0.542473
1630932114426,-0.159576,0.822951,0.541924
1630932114435,-0.158783,0.822219,0.543388
1630932114445,-0.159515,0.823256,0.545401
1630932114454,-0.158905,0.823744,0.546377
1630932114464,-0.15884399999999999,0.823622,0.545828
1630932114474,-0.159881,0.82228,0.545767
1630932114483,-0.16128399999999998,0.820877,0.546316
1630932114493,-0.162992,0.821365,0.5474749999999999
1630932114502,-0.163785,0.822524,0.547719
1630932114512,-0.163724,0.823622,0.548756
1630932114522,-0.16530999999999998,0.823805,0.548512
1630932114531,-0.165371,0.8245979999999999,0.548878
1630932114541,-0.165493,0.825086,0.550159
1630932114550,-0.165249,0.825757,0.549854
1630932114560,-0.165676,0.826245,0.548695
1630932114570,-0.166103,0.82533,0.550342
1630932114579,-0.16591999999999998,0.8249029999999999,0.551806
1630932114589,-0.166469,0.824049,0.552294
1630932114598,-0.16591999999999998,0.824171,0.551867
1630932114608,-0.167262,0.823805,0.550952
1630932114618,-0.168177,0.824476,0.549793
1630932114627,-0.168299,0.823866,0.548512
1630932114637,-0.168421,0.823805,0.5480849999999999
1630932114646,-0.170007,0.823622,0.546194
1630932114656,-0.17025099999999999,0.823866,0.546438
1630932114666,-0.170373,0.8242929999999999,0.545218
1630932114675,-0.17055599999999999,0.823744,0.545096
1630932114685,-0.17141,0.824049,0.544791
1630932114694,-0.17269099999999998,0.823805,0.5447299999999999
1630932114704,-0.172813,0.823744,0.5441199999999999
1630932114714,-0.173545,0.823744,0.544608
1630932114723,-0.171959,0.823561,0.544608
1630932114733,-0.172508,0.823622,0.544791
1630932114742,-0.172935,0.824049,0.543998
1630932114752,-0.172569,0.823134,0.5432049999999999
1630932114762,-0.17269099999999998,0.823012,0.543754
1630932114771,-0.17238599999999998,0.823744,0.543632
1630932114781,-0.17360599999999998,0.823744,0.543754
1630932114790,-0.173057,0.822951,0.542961
1630932114800,-0.172752,0.822585,0.543144
1630932114810,-0.172142,0.822036,0.543754
1630932114819,-0.171898,0.822341,0.543876
1630932114829,-0.172325,0.821975,0.543266
1630932114838,-0.172203,0.82228,0.543693
1630932114848,-0.170922,0.822585,0.544303
1630932114858,-0.170617,0.82167,0.543632
1630932114867,-0.171654,0.822097,0.5422899999999999
1630932114877,-0.171288,0.822829,0.541802
1630932114886,-0.170922,0.821975,0.542351
1630932114896,-0.170312,0.823012,0.543266
1630932114906,-0.17116599999999998,0.8221579999999999,0.543754
1630932114915,-0.170922,0.823134,0.542534
1630932114925,-0.17116599999999998,0.823744,0.541497
1630932114934,-0.17238599999999998,0.8242929999999999,0.541436
1630932114944,-0.171959,0.825086,0.541192
1630932114954,-0.171959,0.824171,0.541009
1630932114963,-0.17238599999999998,0.823927,0.5413749999999999
1630932114973,-0.171654,0.823805,0.542351
1630932114982,-0.17147099999999998,0.8239879999999999,0.543449
1630932114992,-0.17202,0.8233779999999999,0.543144
1630932115002,-0.171349,0.824049,0.541863
1630932115011,-0.173484,0.8242929999999999,0.5404599999999999
1630932115021,-0.173057,0.824415,0.539423
1630932115030,-0.173911,0.824537,0.539179
1630932115040,-0.173179,0.823866,0.539667
1630932115050,-0.173484,0.825147,0.539789
1630932115059,-0.17330099999999998,0.826367,0.5386299999999999
1630932115069,-0.173911,0.826306,0.5377149999999999
1630932115078,-0.174094,0.827282,0.537288
1630932115088,-0.174277,0.8273429999999999,0.537044
1630932115098,-0.174277,0.827221,0.5371049999999999
1630932115107,-0.175436,0.827465,0.536251
1630932115117,-0.176046,0.8270379999999999,0.536983
1630932115126,-0.175375,0.828929,0.537288
1630932115136,-0.175131,0.8276479999999999,0.537898
1630932115146,-0.175497,0.825757,0.5374099999999999
1630932115155,-0.17629,0.827404,0.5383249999999999
1630932115165,-0.174704,0.8273429999999999,0.539179
1630932115174,-0.174765,0.827282,0.5383249999999999
1630932115184,-0.175741,0.829234,0.538264
1630932115194,-0.175558,0.829966,0.537837
1630932115203,-0.17641199999999999,0.8297829999999999,0.5374099999999999
1630932115213,-0.175558,0.825879,0.537898
1630932115222,-0.176656,0.822524,0.5377149999999999
1630932115232,-0.1769,0.819291,0.5389349999999999
1630932115242,-0.176473,0.82167,0.541924
1630932115251,-0.175192,0.8267329999999999,0.544974
1630932115261,-0.175009,0.828014,0.545218
1630932115270,-0.175619,0.8270379999999999,0.545584
1630932115280,-0.175497,0.825452,0.543693
1630932115290,-0.175253,0.8227679999999999,0.541924
1630932115299,-0.174765,0.820694,0.540033
1630932115309,-0.174155,0.819108,0.539423
1630932115318,-0.174948,0.817278,0.539118
1630932115328,-0.175253,0.817034,0.5401549999999999
1630932115338,-0.174826,0.817278,0.541436
1630932115347,-0.174094,0.818559,0.541741
1630932115357,-0.173362,0.821304,0.542778
1630932115366,-0.172874,0.822585,0.5416799999999999
1630932115376,-0.172813,0.824232,0.541436
1630932115386,-0.172874,0.82533,0.539972
1630932115395,-0.172447,0.826062,0.539118
1630932115405,-0.173728,0.826245,0.538447
1630932115414,-0.17299599999999998,0.825147,0.538874
1630932115424,-0.173789,0.823134,0.539484
1630932115434,-0.174582,0.822341,0.538264
1630932115443,-0.173057,0.822219,0.537166
1630932115453,-0.174338,0.822219,0.536129
1630932115462,-0.173545,0.8239879999999999,0.536312
1630932115472,-0.173911,0.824537,0.534238
1630932115482,-0.175314,0.824049,0.532408
1630932115491,-0.177205,0.822097,0.531859
1630932115501,-0.177693,0.820145,0.531127
1630932115510,-0.17934,0.818681,0.531371
1630932115520,-0.17976699999999998,0.818803,0.532896
1630932115530,-0.182146,0.81923,0.532774
1630932115539,-0.184281,0.819596,0.533872
1630932115549,-0.184769,0.820572,0.532957
1630932115558,-0.186721,0.818986,0.53253
1630932115568,-0.18812399999999999,0.818986,0.532042
1630932115578,-0.18934399999999998,0.818315,0.531554
1630932115587,-0.19032,0.819535,0.530822
1630932115597,-0.19056399999999998,0.819718,0.529663
1630932115606,-0.192882,0.820267,0.527406
1630932115616,-0.195688,0.819962,0.524783
1630932115626,-0.198555,0.819718,0.521245
1630932115635,-0.2013,0.81923,0.518439
1630932115645,-0.20197099999999998,0.817339,0.517219
1630932115654,-0.201849,0.8145939999999999,0.516853
1630932115664,-0.201483,0.812093,0.515572
1630932115674,-0.203618,0.808616,0.514962
1630932115683,-0.206363,0.806237,0.513803
1630932115693,-0.209413,0.805871,0.513559
1630932115702,-0.213012,0.805505,0.51118
1630932115712,-0.217526,0.805261,0.509777
1630932115722,-0.223626,0.803675,0.508984
1630932115731,-0.228384,0.803187,0.507032
1630932115741,-0.235033,0.8020889999999999,0.505995
1630932115750,-0.240828,0.8002589999999999,0.506666
1630932115760,-0.247172,0.797575,0.507398
1630932115770,-0.254309,0.794952,0.508252
1630932115779,-0.260592,0.792024,0.508679
1630932115789,-0.266326,0.792695,0.508801
1630932115798,-0.273219,0.790743,0.510204
1630932115808,-0.28102699999999997,0.7890349999999999,0.510326
1630932115818,-0.288713,0.7884249999999999,0.509533
1630932115827,-0.29609399999999997,0.789218,0.50752
1630932115837,-0.303475,0.789828,0.503982
1630932115846,-0.312991,0.789828,0.50264
1630932115856,-0.323239,0.790804,0.501054
1630932115866,-0.33275499999999997,0.792146,0.500566
1630932115875,-0.342088,0.794342,0.500078
1630932115885,-0.35221399999999997,0.795989,0.500871
1630932115894,-0.362767,0.794708,0.501725
1630932115904,-0.372466,0.7887299999999999,0.502457
1630932115914,-0.38308,0.782569,0.500688
1630932115923,-0.39192499999999997,0.778482,0.500444
1630932115933,-0.40028199999999997,0.7771399999999999,0.502396
1630932115942,-0.410347,0.773846,0.503677
1630932115952,-0.421205,0.769576,0.502213
1630932115962,-0.43127,0.769698,0.49959
1630932115971,-0.4392,0.770674,0.49824799999999997
1630932115981,-0.446459,0.771772,0.49898
1630932115990,-0.45444999999999997,0.773968,0.501054
1630932116000,-0.46311199999999997,0.774578,0.499102
1630932116010,-0.470981,0.775676,0.49946799999999997
1630932116019,-0.476898,0.777567,0.499407
1630932116029,-0.485072,0.778177,0.491538
1630932116038,-0.493124,0.783789,0.489708
1630932116048,-0.493429,0.781593,0.494771
1630932116058,-0.493795,0.772626,0.49593
1630932116067,-0.494161,0.766404,0.502579
1630932116077,-0.494161,0.7665259999999999,0.509106
1630932116086,-0.492087,0.765062,0.514413
1630932116096,-0.487817,0.767502,0.513315
1630932116106,-0.485804,0.771528,0.510387
1630932116115,-0.48257099999999997,0.772199,0.506117
1630932116125,-0.479887,0.773297,0.500566
1630932116134,-0.477935,0.772931,0.493612
1630932116144,-0.475556,0.776164,0.485438
1630932116154,-0.472628,0.777994,0.478606
1630932116163,-0.467931,0.779458,0.470737
1630932116173,-0.46372199999999997,0.780678,0.4636
1630932116182,-0.459269,0.780922,0.45914699999999997
1630932116192,-0.455914,0.779763,0.458049
1630932116202,-0.451827,0.778421,0.460001
1630932116211,-0.447374,0.777628,0.462136
1630932116221,-0.444019,0.775188,0.46585699999999997
1630932116230,-0.444019,0.771894,0.470615
1630932116240,-0.44090799999999997,0.767075,0.475251
1630932116250,-0.437309,0.764757,0.47787399999999997
1630932116259,-0.433588,0.767258,0.480497
1630932116269,-0.43066,0.77104,0.483425
1630932116278,-0.42462099999999997,0.771894,0.485804
1630932116288,-0.41992399999999996,0.768844,0.48470599999999997
1630932116298,-0.418765,0.769576,0.482693
1630932116307,-0.41839899999999997,0.774456,0.484767
1630932116317,-0.41382399999999997,0.773663,0.48684099999999997
1630932116326,-0.40748,0.772992,0.487573
1630932116336,-0.398879,0.772992,0.488732
1630932116346,-0.39222999999999997,0.7786649999999999,0.489769
1630932116355,-0.386557,0.784582,0.49172099999999996
1630932116365,-0.379969,0.7899499999999999,0.493124
1630932116374,-0.37271,0.794586,0.490745
1630932116384,-0.363743,0.796843,0.487512
1630932116394,-0.355081,0.799161,0.482998
1630932116403,-0.34690699999999997,0.79727,0.47939899999999996
1630932116413,-0.338916,0.793488,0.476288
1630932116422,-0.331596,0.790072,0.473421
1630932116432,-0.325618,0.787083,0.474702
1630932116442,-0.321165,0.783728,0.476166
1630932116451,-0.318115,0.782203,0.47824
1630932116461,-0.316407,0.781959,0.479277
1630932116470,-0.31415,0.784338,0.480131
1630932116480,-0.310917,0.787022,0.48379099999999997
1630932116490,-0.306037,0.793793,0.48653599999999997
1630932116499,-0.29792399999999997,0.803126,0.490013
1630932116509,-0.289201,0.809897,0.49166
1630932116518,-0.281698,0.809653,0.493124
1630932116528,-0.277672,0.807945,0.495076
1630932116538,-0.27205999999999997,0.809775,0.49672299999999997
1630932116547,-0.266692,0.809592,0.498614
1630932116557,-0.266326,0.8023939999999999,0.499041
1630932116566,-0.265594,0.799283,0.497821
1630932116576,-0.262422,0.800015,0.49458799999999997
1630932116586,-0.255895,0.805871,0.491233
1630932116595,-0.251991,0.807701,0.49166
1630932116605,-0.24759899999999999,0.806908,0.493673
1630932116614,-0.24387799999999998,0.810751,0.498919
1630932116624,-0.23863199999999998,0.821975,0.506117
1630932116634,-0.231434,0.834541,0.51484
1630932116643,-0.226798,0.842471,0.522953
1630932116653,-0.222223,0.846985,0.52582
1630932116662,-0.219051,0.845948,0.524478
1630932116672,-0.215391,0.846314,0.521489
1630932116682,-0.21246299999999999,0.847839,0.5173409999999999
1630932116691,-0.211304,0.854366,0.514962
1630932116701,-0.207705,0.862479,0.512827
1630932116710,-0.202337,0.864553,0.509472
1630932116720,-0.198616,0.864309,0.502396
1630932116730,-0.195017,0.863821,0.497455
1630932116739,-0.190381,0.862479,0.490318
1630932116749,-0.185745,0.863943,0.48623099999999997
1630932116758,-0.180926,0.866566,0.48623099999999997
1630932116768,-0.17629,0.865346,0.48592599999999997
1630932116778,-0.17177599999999998,0.862174,0.48556
1630932116787,-0.167384,0.859063,0.485804
1630932116797,-0.163968,0.854793,0.483425
1630932116806,-0.16067399999999998,0.850218,0.483303
1630932116816,-0.157014,0.84424,0.485438
1630932116826,-0.155794,0.838079,0.487207
1630932116835,-0.15329299999999998,0.8377129999999999,0.48806099999999997
1630932116845,-0.153049,0.8377129999999999,0.487573
1630932116854,-0.15555,0.83814,0.48678
1630932116864,-0.15738,0.838872,0.486475
1630932116874,-0.15914899999999998,0.8401529999999999,0.485255
1630932116883,-0.160552,0.838994,0.48556
1630932116893,-0.162748,0.842959,0.483669
1630932116902,-0.165859,0.84485,0.483547
1630932116912,-0.169214,0.845216,0.48409599999999997
1630932116922,-0.171898,0.843569,0.485804
1630932116931,-0.174277,0.841312,0.485438
1630932116941,-0.177266,0.839665,0.486475
1630932116950,-0.179218,0.841922,0.488732
1630932116960,-0.180865,0.841312,0.489525
1630932116970,-0.184464,0.841129,0.489952
1630932116979,-0.187514,0.839482,0.489769
1630932116989,-0.189527,0.838384,0.48861
1630932116998,-0.193004,0.8389329999999999,0.48861
1630932117008,-0.194041,0.837469,0.486658
1630932117018,-0.19641999999999998,0.837591,0.485682
1630932117027,-0.199531,0.836005,0.484218
1630932117037,-0.20227599999999998,0.839482,0.484645
1630932117046,-0.20374,0.842532,0.486292
1630932117056,-0.205082,0.84546,0.486475
1630932117066,-0.206058,0.847656,0.488549
1630932117075,-0.20752199999999998,0.848998,0.49288
1630932117085,-0.208254,0.849913,0.496662
1630932117094,-0.20935199999999998,0.85034,0.49776
1630932117104,-0.210267,0.851438,0.499285
1630932117114,-0.211609,0.853268,0.501359
1630932117123,-0.212219,0.853573,0.502274
1630932117133,-0.213256,0.8562569999999999,0.503128
1630932117142,-0.212402,0.854976,0.502213
1630932117152,-0.213195,0.85339,0.501542
1630932117162,-0.21289,0.854244,0.500688
1630932117171,-0.21289,0.85583,0.500322
1630932117181,-0.214476,0.853756,0.501725
1630932117190,-0.215269,0.847961,0.502884
1630932117200,-0.217404,0.841068,0.501237
1630932117210,-0.218258,0.835822,0.502152
1630932117219,-0.217526,0.83631,0.505263
1630932117229,-0.214232,0.8392379999999999,0.508862
1630932117238,-0.214232,0.839055,0.512034
1630932117248,-0.215452,0.836066,0.513498
1630932117258,-0.216489,0.831857,0.513315
1630932117267,-0.216672,0.828441,0.5139859999999999
1630932117277,-0.217831,0.825574,0.513193
1630932117286,-0.220271,0.821975,0.5124
1630932117296,-0.222711,0.819718,0.5145959999999999
1630932117306,-0.225273,0.820145,0.518683
1630932117315,-0.22875,0.822402,0.522648
1630932117325,-0.230519,0.825086,0.5246
1630932117334,-0.231068,0.827892,0.525393
1630932117344,-0.231373,0.828624,0.524173
1630932117354,-0.233569,0.8285629999999999,0.5216109999999999
1630932117363,-0.235338,0.825635,0.520513
1630932117373,-0.23729,0.823256,0.518683
1630932117382,-0.239486,0.820633,0.518988
1630932117392,-0.241987,0.817522,0.519537
1630932117402,-0.243451,0.814655,0.520757
1630932117411,-0.246074,0.812093,0.521428
1630932117421,-0.247233,0.810568,0.521184
1630932117430,-0.245952,0.811971,0.522404
1630932117440,-0.245281,0.814472,0.524478
1630932117450,-0.247538,0.81374,0.524478
1630932117459,-0.247355,0.814411,0.523563
1630932117469,-0.248697,0.812825,0.524356
1630932117478,-0.250649,0.811422,0.525698
1630932117488,-0.251991,0.810263,0.52826
1630932117498,-0.251259,0.811361,0.529297
1630932117507,-0.252052,0.811605,0.530212
1630932117517,-0.251747,0.811422,0.532408
1630932117526,-0.251808,0.810751,0.532835
1630932117536,-0.251564,0.810812,0.535519
1630932117546,-0.2501,0.8106289999999999,0.537776
1630932117555,-0.250039,0.810751,0.538508
1630932117565,-0.24942899999999998,0.810995,0.537959
1630932117574,-0.2501,0.8106289999999999,0.538569
1630932117584,-0.250527,0.809897,0.538264
1630932117594,-0.250466,0.810812,0.538142
1630932117603,-0.250344,0.811422,0.538691
1630932117613,-0.249917,0.811971,0.540704
1630932117622,-0.248697,0.8103239999999999,0.539667
1630932117632,-0.248087,0.812215,0.539362
1630932117642,-0.247111,0.8118489999999999,0.539972
1630932117651,-0.24601299999999998,0.810873,0.5389349999999999
1630932117661,-0.24540299999999998,0.810995,0.5380199999999999
1630932117670,-0.24448799999999998,0.8103239999999999,0.539301
1630932117680,-0.243939,0.810446,0.5386299999999999
1630932117690,-0.243451,0.8130689999999999,0.538996
1630932117699,-0.24235299999999999,0.815448,0.538691
1630932117709,-0.241316,0.816546,0.537166
1630932117718,-0.241072,0.8174,0.5374099999999999
1630932117728,-0.24046199999999998,0.8174,0.53558
1630932117738,-0.23912,0.818803,0.535641
1630932117747,-0.23802199999999998,0.819962,0.536556
1630932117757,-0.23619199999999999,0.822219,0.537166
1630932117766,-0.236253,0.824049,0.537227
1630932117776,-0.235216,0.8236829999999999,0.5364949999999999
1630932117786,-0.23485,0.823561,0.535031
1630932117795,-0.234728,0.820999,0.532835
1630932117805,-0.233325,0.818437,0.5307
1630932117814,-0.233142,0.81618,0.529175
1630932117824,-0.232898,0.815753,0.529236
1630932117834,-0.231739,0.815448,0.529053
1630932117843,-0.230702,0.815631,0.528809
1630932117853,-0.230397,0.815387,0.526613
1630932117862,-0.228811,0.816363,0.523624
1630932117872,-0.228323,0.816851,0.522099
1630932117882,-0.228323,0.816302,0.51972
1630932117891,-0.22752999999999998,0.815936,0.5182559999999999
1630932117901,-0.226554,0.813862,0.517219
1630932117910,-0.226249,0.81374,0.516243
1630932117920,-0.226127,0.814411,0.5167309999999999
1630932117930,-0.226798,0.813496,0.516487
1630932117939,-0.227042,0.814533,0.515694
1630932117949,-0.228201,0.817583,0.516792
1630932117958,-0.229055,0.819474,0.516548
1630932117968,-0.229116,0.821792,0.5176459999999999
1630932117978,-0.229482,0.824537,0.518195
1630932117987,-0.22844499999999998,0.826184,0.5185
1630932117997,-0.229238,0.827465,0.516609
1630932118006,-0.229787,0.826855,0.5158159999999999
1630932118016,-0.23119,0.82594,0.51484
1630932118026,-0.231678,0.8255129999999999,0.515633
1630932118035,-0.232654,0.8239879999999999,0.51667
1630932118045,-0.232654,0.819718,0.5155109999999999
1630932118054,-0.23363,0.8164239999999999,0.5155109999999999
1630932118064,-0.23277599999999998,0.817217,0.518439
1630932118074,-0.23186099999999998,0.819474,0.52033
1630932118083,-0.229482,0.8174,0.52094
1630932118093,-0.228933,0.81496,0.521733
1630932118102,-0.22936,0.81191,0.521855
1630932118112,-0.229604,0.8072739999999999,0.52033
1630932118122,-0.230397,0.805017,0.5197809999999999
1630932118131,-0.230519,0.803675,0.521184
1630932118141,-0.232044,0.804163,0.52338
1630932118150,-0.232898,0.8057489999999999,0.524966
1630932118160,-0.236131,0.805993,0.526003
1630932118170,-0.237046,0.808006,0.528565
1630932118179,-0.235643,0.8109339999999999,0.530151
1630932118189,-0.235826,0.812032,0.529419
1630932118198,-0.235826,0.813435,0.530639
1630932118208,-0.236009,0.815326,0.531005
1630932118218,-0.236741,0.81557,0.530761
1630932118227,-0.23771699999999998,0.815265,0.532469
1630932118237,-0.238571,0.814777,0.53375
1630932118246,-0.239913,0.813801,0.535153
1630932118256,-0.240584,0.81435,0.535946
1630932118266,-0.240584,0.815448,0.537166
1630932118275,-0.241072,0.81923,0.538142
1630932118285,-0.241377,0.820572,0.5395449999999999
1630932118294,-0.241621,0.8224629999999999,0.538569
1630932118304,-0.240584,0.8227679999999999,0.538386
1630932118314,-0.241926,0.819108,0.5383249999999999
1630932118323,-0.241499,0.816973,0.537959
1630932118333,-0.24143799999999999,0.815753,0.5367999999999999
1630932118342,-0.241499,0.814533,0.536678
1630932118352,-0.241316,0.813923,0.534482
1630932118362,-0.239486,0.81252,0.533994
1630932118371,-0.238266,0.811056,0.533323
1630932118381,-0.238266,0.809897,0.53375
1630932118390,-0.236558,0.809226,0.534787
1630932118400,-0.235948,0.8084939999999999,0.53558
1630932118410,-0.235826,0.809348,0.536068
1630932118419,-0.236314,0.808433,0.536678
1630932118429,-0.237229,0.807945,0.536373
1630932118438,-0.235948,0.807518,0.5361899999999999
1630932118448,-0.236558,0.806542,0.53558
1630932118458,-0.236009,0.805688,0.53497
1630932118467,-0.236558,0.8052,0.533872
1630932118477,-0.235826,0.805322,0.532591
1630932118486,-0.235216,0.8045289999999999,0.532652
1630932118496,-0.235338,0.804285,0.531981
1630932118506,-0.23558199999999999,0.805383,0.53253
1630932118515,-0.235521,0.8066639999999999,0.533628
1630932118525,-0.236009,0.807823,0.534848
1630932118534,-0.23668,0.808982,0.535702
1630932118544,-0.236619,0.809043,0.536739
1630932118554,-0.236924,0.809592,0.537837
1630932118563,-0.23619199999999999,0.8106289999999999,0.5389349999999999
1630932118573,-0.236436,0.811178,0.539301
1630932118582,-0.23588699999999999,0.81069,0.539057
1630932118592,-0.235765,0.811727,0.539118
1630932118602,-0.235826,0.81191,0.539362
1630932118611,-0.23546,0.811605,0.538508
1630932118621,-0.235094,0.811788,0.539362
1630932118630,-0.235399,0.810751,0.5410699999999999
1630932118640,-0.23680199999999998,0.810568,0.542107
1630932118650,-0.23649699999999999,0.81008,0.542717
1630932118659,-0.234972,0.808006,0.543876
1630932118669,-0.233935,0.806542,0.545157
1630932118678,-0.234057,0.804651,0.545462
1630932118688,-0.232593,0.803797,0.546011
1630932118698,-0.23338599999999998,0.80215,0.5453399999999999
1630932118707,-0.23277599999999998,0.800686,0.546438
1630932118717,-0.232654,0.801113,0.545706
1630932118726,-0.23369099999999998,0.800198,0.546621
1630932118736,-0.23338599999999998,0.8002589999999999,0.546987
1630932118746,-0.233264,0.8011739999999999,0.547109
1630932118755,-0.234484,0.802272,0.549122
1630932118765,-0.235338,0.8036139999999999,0.550342
1630932118774,-0.234545,0.805993,0.552416
1630932118784,-0.233752,0.807213,0.551562
1630932118794,-0.234118,0.8087989999999999,0.551745
1630932118803,-0.233874,0.810202,0.55205
1630932118813,-0.233935,0.81008,0.551623
1630932118822,-0.234545,0.811666,0.551501
1630932118832,-0.233264,0.8121539999999999,0.551135
1630932118842,-0.232837,0.811971,0.549671
1630932118851,-0.2318,0.8136789999999999,0.549305
1630932118861,-0.23216599999999998,0.816912,0.549122
1630932118870,-0.232532,0.81679,0.547048
1630932118880,-0.232654,0.812337,0.544364
1630932118890,-0.233264,0.804407,0.541741
1630932118899,-0.233264,0.80215,0.5404599999999999
1630932118909,-0.23302,0.803126,0.544181
1630932118918,-0.232227,0.8020889999999999,0.5462549999999999
1630932118928,-0.230824,0.803858,0.549
1630932118938,-0.229665,0.803797,0.550525
1630932118947,-0.230885,0.800808,0.55083
1630932118957,-0.231312,0.797392,0.551013
1630932118966,-0.23094599999999998,0.792695,0.551684
1630932118976,-0.232105,0.790072,0.552172
1630932118986,-0.23302,0.786717,0.554185
1630932118995,-0.233447,0.784826,0.55815
1630932119005,-0.234728,0.7853749999999999,0.562237
1630932119014,-0.236009,0.7862899999999999,0.565958
1630932119024,-0.237168,0.789401,0.569191
1630932119034,-0.236741,0.791048,0.570838
1630932119043,-0.237961,0.791353,0.57157
1630932119053,-0.237534,0.7920849999999999,0.572668
1630932119062,-0.237168,0.792146,0.573034
1630932119072,-0.237595,0.791048,0.57401
1630932119082,-0.236619,0.790194,0.57279
1630932119091,-0.237351,0.788242,0.571997
1630932119101,-0.237473,0.7856799999999999,0.572546
1630932119110,-0.236558,0.785497,0.572241
1630932119120,-0.235704,0.786351,0.572668
1630932119130,-0.233752,0.7868999999999999,0.5734
1630932119139,-0.232654,0.7875099999999999,0.573766
1630932119149,-0.230824,0.788303,0.572302
1630932119158,-0.230885,0.787388,0.572668
1630932119168,-0.2318,0.786168,0.5712039999999999
1630932119178,-0.23058,0.787266,0.5693739999999999
1630932119187,-0.229116,0.787388,0.569252
1630932119197,-0.228628,0.788547,0.568947
1630932119206,-0.22722499999999998,0.790926,0.56974
1630932119216,-0.22569999999999998,0.792634,0.5690689999999999
1630932119226,-0.224724,0.794098,0.567788
1630932119235,-0.223626,0.79605,0.566446
1630932119245,-0.222406,0.795745,0.564738
1630932119254,-0.220393,0.794708,0.563945
1630932119264,-0.220881,0.795257,0.5651039999999999
1630932119274,-0.219783,0.794342,0.56486
1630932119283,-0.219417,0.794037,0.565287
1630932119293,-0.217892,0.794464,0.56547
1630932119302,-0.217526,0.795013,0.5663239999999999
1630932119312,-0.216428,0.794708,0.567056
1630932119322,-0.21551299999999998,0.795928,0.5672389999999999
1630932119331,-0.214232,0.795501,0.5681539999999999
1630932119341,-0.21411,0.795745,0.568398
1630932119350,-0.212707,0.793732,0.568947
1630932119360,-0.212402,0.794464,0.56852
1630932119370,-0.211426,0.793366,0.569008
1630932119379,-0.21106,0.793488,0.5696789999999999
1630932119389,-0.210511,0.795074,0.569191
1630932119398,-0.210511,0.795806,0.569008
1630932119408,-0.209901,0.797392,0.569496
1630932119418,-0.210267,0.798978,0.567056
1630932119427,-0.210084,0.800808,0.565775
1630932119437,-0.20923,0.801235,0.565043
1630932119446,-0.209108,0.80032,0.564311
1630932119456,-0.20801,0.800991,0.562115
1630932119466,-0.20874199999999998,0.80093,0.560102
1630932119475,-0.207888,0.800381,0.559004
1630932119485,-0.207278,0.8008689999999999,0.558455
1630932119494,-0.207461,0.801601,0.55815
1630932119504,-0.20813199999999998,0.800808,0.559309
1630932119514,-0.207156,0.800686,0.557784
1630932119523,-0.206241,0.7999539999999999,0.557113
1630932119533,-0.206485,0.7999539999999999,0.558211
1630932119542,-0.206241,0.79971,0.560102
1630932119552,-0.20618,0.798124,0.561688
1630932119562,-0.205631,0.797392,0.562481
1630932119571,-0.205204,0.798368,0.5641889999999999
1630932119581,-0.20630199999999999,0.797453,0.56364
1630932119590,-0.205387,0.796782,0.5632739999999999
1630932119600,-0.20557,0.796782,0.563152
1630932119610,-0.206058,0.797636,0.563213
1630932119619,-0.20618,0.796416,0.563396
1630932119629,-0.207095,0.796294,0.563945
1630932119638,-0.208498,0.797819,0.5654089999999999
1630932119648,-0.207156,0.796843,0.5672389999999999
1630932119658,-0.207949,0.79605,0.566751
1630932119667,-0.2074,0.796843,0.567422
1630932119677,-0.209474,0.794708,0.56486
1630932119686,-0.210023,0.795684,0.565226
1630932119696,-0.208803,0.796904,0.564738
1630932119706,-0.20935199999999998,0.797087,0.559858
1630932119715,-0.21337799999999998,0.802333,0.55632
1630932119725,-0.213744,0.806908,0.555039
1630932119734,-0.216489,0.807518,0.552721
1630932119744,-0.217099,0.8066639999999999,0.554917
1630932119754,-0.217892,0.803675,0.555588
1630932119763,-0.218563,0.801967,0.559126
1630932119773,-0.219112,0.80398,0.562481
1630932119782,-0.218441,0.806176,0.567605
1630932119792,-0.219112,0.807762,0.570472
1630932119802,-0.218685,0.8078839999999999,0.5702889999999999
1630932119811,-0.219173,0.806237,0.566385
1630932119821,-0.219783,0.806176,0.562725
1630932119830,-0.219905,0.808006,0.560468
1630932119840,-0.21984399999999998,0.807701,0.553941
1630932119850,-0.221918,0.80886,0.549732
1630932119859,-0.22197899999999998,0.8100189999999999,0.547719
1630932119869,-0.224236,0.811422,0.541619
1630932119878,-0.224602,0.815082,0.536678
1630932119888,-0.22326,0.818925,0.531432
1630932119898,-0.224053,0.823195,0.522343
1630932119907,-0.225578,0.82777,0.519415
1630932119917,-0.22478499999999998,0.8300879999999999,0.51728
1630932119926,-0.225151,0.830942,0.513437
1630932119936,-0.22478499999999998,0.830942,0.507886
1630932119946,-0.225639,0.830332,0.504226
1630932119955,-0.226493,0.832406,0.498797
1630932119965,-0.227652,0.833199,0.493917
1630932119974,-0.228506,0.83448,0.488732
1630932119984,-0.230458,0.835334,0.483425
1630932119994,-0.231312,0.837652,0.47946
1630932120003,-0.231739,0.83875,0.474336
1630932120013,-0.23247099999999998,0.8407629999999999,0.468541
1630932120022,-0.234972,0.841861,0.46402699999999997
1630932120032,-0.23619199999999999,0.839177,0.46128199999999997
1630932120042,-0.236131,0.837164,0.460245
1630932120051,-0.236863,0.839177,0.457866
1630932120061,-0.237351,0.842654,0.456463
1630932120070,-0.238571,0.843447,0.454328
1630932120080,-0.240279,0.843935,0.45383999999999997
1630932120090,-0.240218,0.843142,0.453901
1630932120099,-0.240889,0.841312,0.45383999999999997
1630932120109,-0.239669,0.841739,0.45322999999999997
1630932120118,-0.240279,0.84241,0.451766
1630932120128,-0.240523,0.846985,0.448594
1630932120138,-0.24095,0.850218,0.445483
1630932120147,-0.241499,0.850523,0.442555
1630932120157,-0.240706,0.8489369999999999,0.442067
1630932120166,-0.241133,0.845521,0.443836
1630932120176,-0.242292,0.844362,0.445544
1630932120186,-0.242475,0.84851,0.445544
1630932120195,-0.24357299999999998,0.8477169999999999,0.447191
1630932120205,-0.244854,0.84363,0.44865499999999997
1630932120214,-0.248148,0.83997,0.453169
1630932120224,-0.250954,0.834236,0.45994
1630932120234,-0.252052,0.8319179999999999,0.468358
1630932120243,-0.255834,0.829966,0.475861
1630932120253,-0.25790799999999997,0.826367,0.48348599999999997
1630932120262,-0.262117,0.82594,0.488915
1630932120272,-0.262849,0.81984,0.496906
1630932120282,-0.268339,0.816973,0.501908
1630932120291,-0.269742,0.811056,0.5142909999999999
1630932120301,-0.274744,0.810202,0.526857
1630932120310,-0.278282,0.810873,0.535397
1630932120320,-0.28121,0.807945,0.544059
1630932120330,-0.28182,0.803248,0.554978
1630932120339,-0.281088,0.793427,0.573217
1630932120349,-0.283833,0.785314,0.586332
1630932120358,-0.287005,0.784094,0.592127
1630932120368,-0.288835,0.783484,0.590907
1630932120378,-0.292312,0.7814099999999999,0.58682
1630932120387,-0.29463,0.778726,0.591395
1630932120397,-0.295118,0.771894,0.602924
1630932120406,-0.294996,0.762439,0.61976
1630932120416,-0.297741,0.752557,0.63623
1630932120426,-0.29426399999999997,0.744505,0.6457459999999999
1630932120435,-0.299327,0.738771,0.651419
1630932120445,-0.298778,0.738649,0.653066
1630932120454,-0.304573,0.735965,0.648308
1630932120464,-0.304268,0.7348669999999999,0.644953
1630932120474,-0.30317,0.729133,0.639219
1630932120483,-0.30506099999999997,0.724436,0.634034
1630932120493,-0.306098,0.724741,0.629581
1630932120502,-0.304024,0.724802,0.626226
1630932120512,-0.304512,0.734928,0.623481
1630932120522,-0.303414,0.735599,0.619699
1630932120531,-0.302316,0.7382219999999999,0.616344
1630932120541,-0.300974,0.7382219999999999,0.609573
1630932120550,-0.300791,0.7397469999999999,0.601704
1630932120560,-0.304024,0.7403569999999999,0.596641
1630932120570,-0.302621,0.741089,0.588467
1630932120579,-0.302987,0.742126,0.58377
1630932120589,-0.303048,0.742248,0.582062
1630932120598,-0.298168,0.742126,0.581757
1630932120608,-0.297192,0.749324,0.582367
1630932120618,-0.297558,0.752435,0.581513
1630932120627,-0.300364,0.75091,0.579683
1630932120637,-0.299571,0.748836,0.578585
1630932120646,-0.302072,0.748043,0.577792
1630932120656,-0.302133,0.748958,0.575108
1630932120666,-0.303292,0.748165,0.572363
1630932120675,-0.306098,0.747433,0.567361
1630932120685,-0.305122,0.748165,0.563091
1630932120694,-0.30439,0.751703,0.557052
1630932120704,-0.303231,0.754875,0.552355
1630932120714,-0.30378,0.75823,0.548268
1630932120723,-0.30195,0.7613409999999999,0.546011
1630932120733,-0.302438,0.762744,0.543876
1630932120742,-0.30317,0.7659159999999999,0.541131
1630932120752,-0.302499,0.769149,0.540704
1630932120762,-0.301828,0.773968,0.543022
1630932120771,-0.30073,0.7771399999999999,0.543693
1630932120781,-0.299022,0.777811,0.544303
1630932120790,-0.296643,0.7814099999999999,0.544974
1630932120800,-0.296277,0.787327,0.546133
1630932120810,-0.29731399999999997,0.792939,0.5462549999999999
1630932120819,-0.29731399999999997,0.794952,0.542351
1630932120829,-0.298473,0.794342,0.537532
1630932120838,-0.298839,0.791109,0.535275
1630932120848,-0.298961,0.7890349999999999,0.5364949999999999
1630932120858,-0.299388,0.786656,0.541009
1630932120867,-0.29822899999999997,0.785131,0.545401
1630932120877,-0.29646,0.7807999999999999,0.549671
1630932120886,-0.294691,0.778482,0.552416
1630932120896,-0.292312,0.777933,0.552233
1630932120906,-0.292068,0.780739,0.546743
1630932120915,-0.292251,0.776408,0.560712
1630932120925,-0.29097,0.776896,0.568947
1630932120934,-0.290238,0.776408,0.577487
1630932120944,-0.290116,0.770552,0.5870029999999999
1630932120954,-0.288042,0.7592059999999999,0.592005
1630932120963,-0.286456,0.747128,0.588894
1630932120973,-0.283894,0.732915,0.57889
1630932120982,-0.282918,0.71797,0.569435
1630932120992,-0.283345,0.7126629999999999,0.563457
1630932121002,-0.281393,0.7105279999999999,0.564128
1630932121011,-0.28041699999999997,0.709552,0.566141
1630932121021,-0.279868,0.709857,0.569557
1630932121030,-0.282308,0.70821,0.576877
1630932121040,-0.279197,0.702903,0.5795
1630932121050,-0.266143,0.672708,0.569862
1630932121059,-0.273463,0.654896,0.583099
1630932121069,-0.292373,0.690642,0.627446
1630932121078,-0.302438,0.734135,0.671061
1630932121088,-0.307257,0.755302,0.693082
1630932121098,-0.310124,0.761768,0.700402
1630932121107,-0.30927,0.763415,0.696132
1630932121117,-0.30658599999999997,0.7564,0.6871039999999999
1630932121126,-0.304634,0.744383,0.674294
1630932121136,-0.308172,0.729255,0.666303
1630932121146,-0.313845,0.72041,0.662826
1630932121155,-0.316407,0.713456,0.665754
1630932121165,-0.318054,0.705282,0.672281
1630932121174,-0.316041,0.698023,0.67771
1630932121184,-0.315736,0.688812,0.6846639999999999
1630932121194,-0.314882,0.68259,0.689178
1630932121203,-0.31616299999999997,0.678686,0.693448
1630932121213,-0.31585799999999997,0.673867,0.69357
1630932121222,-0.314272,0.667706,0.6904589999999999
1630932121232,-0.313784,0.662094,0.6834439999999999
1630932121242,-0.312869,0.655262,0.677344
1630932121251,-0.312808,0.648064,0.6697799999999999
1630932121261,-0.312137,0.6414759999999999,0.665022
1630932121270,-0.312625,0.636779,0.6624599999999999
1630932121280,-0.313113,0.6347659999999999,0.661301
1630932121290,-0.313906,0.632814,0.662216
1630932121299,-0.31354,0.631472,0.661911
1630932121309,-0.311771,0.626836,0.663436
1630932121318,-0.313662,0.624274,0.665632
1630932121328,-0.314089,0.62525,0.6685599999999999
1630932121338,-0.313601,0.627446,0.670817
1630932121347,-0.315004,0.62952,0.67161
1630932121357,-0.318054,0.632143,0.672403
1630932121366,-0.319579,0.634583,0.674416
1630932121376,-0.324276,0.6362909999999999,0.679296
1630932121386,-0.324825,0.637694,0.684237
1630932121395,-0.327997,0.640195,0.689483
1630932121405,-0.329583,0.644892,0.6944239999999999
1630932121414,-0.332206,0.649589,0.70028
1630932121424,-0.33427999999999997,0.653493,0.70333
1630932121434,-0.334158,0.661118,0.7065629999999999
1630932121443,-0.33336499999999997,0.664351,0.7076
1630932121453,-0.335866,0.665327,0.702842
1630932121462,-0.337269,0.665327,0.696803
1630932121472,-0.338489,0.6679499999999999,0.688751
1630932121482,-0.337574,0.666608,0.682956
1630932121491,-0.336964,0.663863,0.680272
1630932121501,-0.33611,0.6581899999999999,0.677893
1630932121510,-0.335561,0.653615,0.677466
1630932121520,-0.333243,0.65392,0.6800889999999999
1630932121530,-0.329461,0.65514,0.680333
1630932121539,-0.326472,0.657519,0.680943
1630932121549,-0.323605,0.658617,0.6819189999999999
1630932121558,-0.318847,0.657458,0.68137
1630932121568,-0.318725,0.6572749999999999,0.679601
1630932121578,-0.316224,0.655994,0.6800889999999999
1630932121587,-0.314333,0.654042,0.677466
1630932121597,-0.313052,0.652151,0.675087
1630932121606,-0.313052,0.651541,0.673989
1630932121616,-0.311405,0.651724,0.674721
1630932121626,-0.308538,0.653554,0.674294
1630932121635,-0.305244,0.658678,0.67466
1630932121645,-0.301584,0.658922,0.673074
1630932121654,-0.295972,0.654896,0.669597
1630932121664,-0.2928,0.653798,0.666059
1630932121674,-0.298168,0.664656,0.67771
1630932121683,-0.30134,0.681553,0.693753
1630932121693,-0.303353,0.686555,0.701561
1630932121702,-0.306769,0.686982,0.701073
1630932121712,-0.30866,0.684786,0.695705
1630932121722,-0.310368,0.6832,0.6883239999999999
1630932121731,-0.30658599999999997,0.6832,0.682956
1630932121741,-0.30689099999999997,0.6810039999999999,0.6794789999999999
1630932121750,-0.304512,0.678259,0.676307
1630932121760,-0.303109,0.674355,0.673562
1630932121770,-0.299693,0.667218,0.672769
1630932121779,-0.29578899999999997,0.659227,0.6691699999999999
1630932121789,-0.29273899999999997,0.653371,0.668133
1630932121798,-0.289018,0.648979,0.666974
1630932121808,-0.28499199999999997,0.643672,0.661606
1630932121818,-0.283589,0.638609,0.6563599999999999
1630932121827,-0.28102699999999997,0.633973,0.654103
1630932121837,-0.279197,0.631411,0.654347
1630932121846,-0.277916,0.629276,0.654103
1630932121856,-0.277184,0.628361,0.652517
1630932121866,-0.275964,0.62586,0.651724
1630932121875,-0.275293,0.626226,0.653554
1630932121885,-0.27358499999999997,0.630923,0.6575799999999999
1630932121894,-0.274744,0.6350709999999999,0.664961
1630932121904,-0.274927,0.636047,0.672464
1630932121914,-0.276269,0.635864,0.676429
1630932121923,-0.278831,0.635315,0.679662
1630932121933,-0.28182,0.6369009999999999,0.6825289999999999
1630932121942,-0.288591,0.6430009999999999,0.6910689999999999
1630932121952,-0.294386,0.65331,0.704184
1630932121962,-0.300791,0.663497,0.7151029999999999
1630932121971,-0.307928,0.670695,0.725351
1630932121981,-0.313418,0.674721,0.727669
1630932121990,-0.31951799999999997,0.676551,0.726022
1630932122000,-0.323483,0.673379,0.720044
1630932122010,-0.327814,0.6676449999999999,0.716384
1630932122019,-0.329461,0.6642899999999999,0.712419
1630932122029,-0.331169,0.659593,0.710772
1630932122038,-0.330376,0.6572749999999999,0.708027
1630932122048,-0.328241,0.654957,0.70333
1630932122058,-0.328363,0.652212,0.699182
1630932122067,-0.327448,0.650565,0.69662
1630932122077,-0.325496,0.650443,0.694851
1630932122086,-0.32513,0.652578,0.693326
1630932122096,-0.325618,0.65453,0.690886
1630932122106,-0.327265,0.659288,0.6904589999999999
1630932122115,-0.328607,0.665632,0.686128
1630932122125,-0.327692,0.663192,0.672586
1630932122134,-0.32909499999999997,0.662704,0.661484
1630932122144,-0.329034,0.667218,0.658739
1630932122154,-0.329461,0.671366,0.659898
1630932122163,-0.331779,0.676002,0.6639849999999999
1630932122173,-0.333487,0.678808,0.666608
1630932122182,-0.335561,0.6825289999999999,0.668926
1630932122192,-0.335439,0.6864939999999999,0.669658
1630932122202,-0.334707,0.687348,0.664778
1630932122211,-0.336049,0.688385,0.657702
1630932122221,-0.336903,0.691008,0.653005
1630932122230,-0.336476,0.693387,0.648491
1630932122240,-0.3355,0.696193,0.646905
1630932122250,-0.335073,0.696803,0.642757
1630932122259,-0.335195,0.694668,0.636474
1630932122269,-0.335622,0.695095,0.631045
1630932122278,-0.334524,0.697169,0.627324
1630932122288,-0.333792,0.695522,0.625433
1630932122298,-0.33366999999999997,0.6919839999999999,0.625006
1630932122307,-0.334951,0.68869,0.623237
1630932122317,-0.334524,0.687165,0.620065
1630932122326,-0.334646,0.688995,0.61854
1630932122336,-0.333426,0.691923,0.618845
1630932122346,-0.33305999999999997,0.696803,0.621956
1630932122355,-0.332694,0.701622,0.624518
1630932122365,-0.335805,0.704672,0.624457
1630932122374,-0.338489,0.708271,0.623237
1630932122384,-0.337513,0.712785,0.620858
1630932122394,-0.337635,0.713517,0.615124
1630932122403,-0.335683,0.710284,0.606523
1630932122413,-0.333792,0.709674,0.601948
1630932122422,-0.33183999999999997,0.710589,0.596397
1630932122432,-0.329522,0.7108329999999999,0.592005
1630932122442,-0.327082,0.712724,0.587796
1630932122451,-0.32513,0.716262,0.584014
1630932122461,-0.323056,0.718214,0.582184
1630932122470,-0.32287299999999997,0.721813,0.582062
1630932122480,-0.32269,0.727059,0.5839529999999999
1630932122490,-0.322202,0.736026,0.585234
1630932122499,-0.321226,0.74237,0.58499
1630932122509,-0.322812,0.747189,0.583831
1630932122518,-0.322812,0.751947,0.582184
1630932122528,-0.321165,0.7570709999999999,0.579134
1630932122538,-0.32043299999999997,0.76555,0.580415
1630932122547,-0.316285,0.770979,0.580354
1630932122557,-0.313967,0.771772,0.577792
1630932122566,-0.313784,0.7777499999999999,0.579256
1630932122576,-0.313601,0.790194,0.5848679999999999
1630932122586,-0.313052,0.80703,0.591151
1630932122595,-0.311283,0.822402,0.592127
1630932122605,-0.30927,0.834846,0.589992
1630932122614,-0.305427,0.845155,0.5870029999999999
1630932122624,-0.300486,0.8479,0.578585
1630932122634,-0.293471,0.841129,0.5654089999999999
1630932122643,-0.285968,0.833077,0.551562
1630932122653,-0.277977,0.82411,0.537898
1630932122662,-0.27144999999999997,0.812886,0.525271
1630932122672,-0.264191,0.80276,0.516243
1630932122682,-0.256444,0.799527,0.508374
1630932122691,-0.248392,0.795562,0.504165
1630932122701,-0.242109,0.795379,0.498004
1630932122710,-0.231373,0.788852,0.500566
1630932122720,-0.22106399999999998,0.786046,0.50142
1630932122730,-0.2135,0.788852,0.491904
1630932122739,-0.20965699999999998,0.784704,0.485743
1630932122749,-0.209596,0.786839,0.480802
1630932122758,-0.208986,0.791536,0.477386
1630932122768,-0.210206,0.7920849999999999,0.47092
1630932122778,-0.212036,0.789767,0.470249
1630932122787,-0.21167,0.792573,0.47482399999999997
1630932122797,-0.21429299999999998,0.794891,0.477325
1630932122806,-0.219417,0.805688,0.480253
1630932122816,-0.222528,0.819352,0.482815
1630932122826,-0.224419,0.825757,0.485194
1630932122835,-0.225273,0.83265,0.485743
1630932122845,-0.226371,0.841373,0.484462
1630932122854,-0.227286,0.848083,0.482937
1630932122864,-0.230458,0.850584,0.482449
1630932122874,-0.232837,0.8516819999999999,0.48129
1630932122883,-0.231739,0.849974,0.479887
1630932122893,-0.231983,0.852414,0.480436
1630932122902,-0.230519,0.852841,0.48440099999999997
1630932122912,-0.231617,0.8504619999999999,0.487634
1630932122922,-0.230458,0.847961,0.486963
1630932122931,-0.2318,0.842837,0.485255
1630932122941,-0.235155,0.840336,0.486048
1630932122950,-0.23893699999999998,0.841739,0.486353
1630932122960,-0.24339,0.841556,0.483608
1630932122970,-0.245281,0.843935,0.47885
1630932122979,-0.24570799999999998,0.847168,0.472018
1630932122989,-0.245586,0.849303,0.466711
1630932122998,-0.24631799999999998,0.849791,0.464149
1630932123008,-0.24601299999999998,0.852109,0.462136
1630932123018,-0.24820899999999999,0.843996,0.457439
1630932123027,-0.253699,0.828685,0.451522
1630932123037,-0.256261,0.8236829999999999,0.450302
1630932123046,-0.255102,0.824415,0.45322999999999997
1630932123056,-0.25851799999999997,0.818376,0.454816
1630932123066,-0.264313,0.808311,0.454816
1630932123075,-0.268278,0.80825,0.454328
1630932123085,-0.269376,0.819352,0.459025
1630932123094,-0.26839999999999997,0.840031,0.460916
1630932123104,-0.270596,0.854671,0.461953
1630932123114,-0.274683,0.869372,0.460245
1630932123123,-0.27572,0.8821209999999999,0.456524
1630932123133,-0.274622,0.887062,0.450851
1630932123142,-0.273646,0.888343,0.44652
1630932123152,-0.27144999999999997,0.882792,0.443165
1630932123162,-0.268522,0.875167,0.440969
1630932123171,-0.266021,0.868396,0.438346
1630932123181,-0.264496,0.862174,0.43615
1630932123190,-0.262971,0.862784,0.434808
1630932123200,-0.261019,0.867664,0.437492
1630932123210,-0.25729799999999997,0.876265,0.436516
1630932123219,-0.254248,0.8799859999999999,0.434625
1630932123229,-0.256322,0.878827,0.42950099999999997
1630932123238,-0.258945,0.8772409999999999,0.42431599999999997
1630932123248,-0.257786,0.873032,0.418826
1630932123258,-0.255956,0.869372,0.41382399999999997
1630932123267,-0.255224,0.865346,0.409188
1630932123277,-0.250466,0.863394,0.406199
1630932123286,-0.244427,0.866932,0.40577199999999997
1630932123296,-0.238876,0.870897,0.40992
1630932123306,-0.235765,0.87352,0.415532
1630932123315,-0.229543,0.873398,0.41687399999999997
1630932123325,-0.225944,0.8717509999999999,0.41748399999999997
1630932123334,-0.221308,0.868518,0.41992399999999996
1630932123344,-0.216306,0.865712,0.422608
1630932123354,-0.211975,0.864553,0.426024
1630932123363,-0.20813199999999998,0.870043,0.42517
1630932123373,-0.204899,0.871263,0.431392
1630932123382,-0.198372,0.88023,0.43572299999999997
1630932123392,-0.190137,0.8842559999999999,0.437004
1630932123402,-0.185684,0.889197,0.433222
1630932123411,-0.182634,0.893772,0.432917
1630932123421,-0.17671699999999999,0.896334,0.43602799999999997
1630932123430,-0.173667,0.897066,0.434808
1630932123440,-0.17141,0.897432,0.44029799999999997
1630932123450,-0.169641,0.895663,0.444812
1630932123459,-0.166774,0.891637,0.448472
1630932123469,-0.167872,0.8873059999999999,0.450302
1630932123478,-0.169092,0.881877,0.453901
1630932123488,-0.171105,0.8769359999999999,0.45688999999999996
1630932123498,-0.17507,0.8751059999999999,0.460489
1630932123507,-0.176534,0.876387,0.465918
1630932123517,-0.1769,0.8775459999999999,0.471591
1630932123526,-0.17629,0.8744959999999999,0.47329899999999997
1630932123536,-0.174094,0.869799,0.474092
1630932123546,-0.173423,0.86986,0.4758
1630932123555,-0.17299599999999998,0.871019,0.47519
1630932123565,-0.171227,0.8711409999999999,0.475068
1630932123574,-0.170007,0.870592,0.475861
1630932123584,-0.16994599999999999,0.874435,0.47756899999999997
1630932123594,-0.170068,0.8775459999999999,0.478911
1630932123603,-0.167567,0.878644,0.47695899999999997
1630932123613,-0.167262,0.879437,0.47397
1630932123622,-0.16713999999999998,0.879925,0.47207899999999997
1630932123632,-0.167262,0.878339,0.47177399999999997
1630932123642,-0.169519,0.877302,0.474092
1630932123651,-0.171532,0.876387,0.47360399999999997
1630932123661,-0.176839,0.873642,0.4758
1630932123670,-0.181231,0.868518,0.47878899999999996
1630932123680,-0.185989,0.861503,0.48129
1630932123690,-0.189466,0.855464,0.482449
1630932123699,-0.194102,0.847778,0.48495
1630932123709,-0.199653,0.841678,0.490623
1630932123718,-0.203557,0.836432,0.499102
1630932123728,-0.208498,0.83082,0.507703
1630932123738,-0.212402,0.8252079999999999,0.516304
1630932123747,-0.217099,0.819047,0.525027
1630932123757,-0.221186,0.812337,0.531554
1630932123766,-0.22539499999999998,0.811056,0.536556
1630932123776,-0.231129,0.807152,0.538691
1630932123786,-0.235094,0.807518,0.539728
1630932123795,-0.239974,0.8052,0.539484
1630932123805,-0.243207,0.8023939999999999,0.536861
1630932123814,-0.245952,0.799588,0.534665
1630932123824,-0.246806,0.800991,0.532286
1630932123834,-0.248941,0.804346,0.532164
1630932123843,-0.251259,0.80215,0.531981
1630932123853,-0.255712,0.795806,0.5307
1630932123862,-0.260226,0.788547,0.529907
1630932123872,-0.263215,0.7872049999999999,0.532347
1630932123882,-0.264374,0.790987,0.538081
1630932123891,-0.264069,0.796172,0.543998
1630932123901,-0.263154,0.798978,0.5471699999999999
1630932123910,-0.262727,0.800137,0.5474749999999999
1630932123920,-0.26187299999999997,0.799527,0.543998
1630932123930,-0.262056,0.797026,0.541314
1630932123939,-0.2623,0.795074,0.541497
1630932123949,-0.262483,0.796294,0.542412
1630932123958,-0.263154,0.799527,0.545218
1630932123968,-0.26474,0.801235,0.547353
1630932123978,-0.265228,0.803553,0.548146
1630932123987,-0.264374,0.804346,0.548451
1630932123997,-0.262483,0.804346,0.5477799999999999
1630932124006,-0.262727,0.8039189999999999,0.5471699999999999
1630932124016,-0.262239,0.80337,0.546316
1630932124026,-0.260775,0.802272,0.546194
1630932124035,-0.26095799999999997,0.802272,0.544547
1630932124045,-0.260531,0.801418,0.545706
1630932124054,-0.26034799999999997,0.80215,0.546316
1630932124064,-0.25851799999999997,0.802516,0.547841
1630932124074,-0.25668799999999997,0.803736,0.546682
1630932124083,-0.254431,0.802882,0.549122
1630932124093,-0.251747,0.804163,0.548756
1630932124102,-0.249246,0.807091,0.547414
1630932124112,-0.246867,0.808921,0.547231
1630932124122,-0.246135,0.811056,0.5474749999999999
1630932124131,-0.245464,0.813435,0.548146
1630932124141,-0.244549,0.814838,0.550586
1630932124150,-0.24339,0.8152039999999999,0.551806
1630932124160,-0.243756,0.8142889999999999,0.552782
1630932124170,-0.243207,0.815448,0.554246
1630932124179,-0.24204799999999999,0.816058,0.554307
1630932124189,-0.241133,0.8124589999999999,0.554124
1630932124198,-0.23973,0.809348,0.551562
1630932124208,-0.238388,0.804773,0.54961
1630932124218,-0.23729,0.8014789999999999,0.548817
1630932124227,-0.236436,0.799161,0.5480849999999999
1630932124237,-0.23607,0.797758,0.549976
1630932124246,-0.23588699999999999,0.797453,0.551867
1630932124256,-0.235216,0.796233,0.556015
1630932124266,-0.234911,0.796111,0.558577
1630932124275,-0.234545,0.797331,0.559126
1630932124285,-0.233752,0.799527,0.559736
1630932124294,-0.231739,0.7999539999999999,0.558333
1630932124304,-0.2318,0.800442,0.556991
1630932124314,-0.229848,0.8002589999999999,0.55632
1630932124323,-0.22875,0.799588,0.555954
1630932124333,-0.228628,0.797941,0.555954
1630932124342,-0.22813999999999998,0.79727,0.557967
1630932124352,-0.227347,0.796599,0.560468
1630932124362,-0.226554,0.795318,0.561505
1630932124371,-0.226554,0.794159,0.5623589999999999
1630932124381,-0.226371,0.791597,0.56303
1630932124390,-0.226066,0.789767,0.561566
1630932124400,-0.226554,0.788486,0.560895
1630932124410,-0.226432,0.788791,0.560285
1630932124419,-0.225822,0.789584,0.558943
1630932124429,-0.22783499999999998,0.787632,0.557296
1630932124438,-0.230214,0.786656,0.556625
1630932124448,-0.2318,0.786107,0.556076
1630932124458,-0.233203,0.789096,0.557784
1630932124467,-0.234423,0.788791,0.559309
1630932124477,-0.237046,0.789096,0.559065
1630932124486,-0.23912,0.790621,0.5617489999999999
1630932124496,-0.241133,0.792817,0.564555
1630932124506,-0.243146,0.794464,0.5641889999999999
1630932124515,-0.243756,0.795989,0.564128
1630932124525,-0.244549,0.799893,0.563152
1630932124534,-0.24644,0.804895,0.563396
1630932124544,-0.247172,0.807213,0.562115
1630932124554,-0.248026,0.802943,0.558394
1630932124563,-0.249246,0.800076,0.554002
1630932124573,-0.248758,0.79971,0.547963
1630932124582,-0.249002,0.796538,0.543693
1630932124592,-0.250222,0.795867,0.544486
1630932124602,-0.24820899999999999,0.796782,0.545157
1630932124611,-0.24759899999999999,0.795684,0.545279
1630932124621,-0.247233,0.793,0.5453399999999999
1630932124630,-0.249246,0.7896449999999999,0.546194
1630932124640,-0.250771,0.788974,0.548329
1630932124650,-0.249063,0.790682,0.551867
1630932124659,-0.245586,0.793976,0.557784
1630932124669,-0.24296299999999998,0.794403,0.563457
1630932124678,-0.24095,0.795074,0.56608
1630932124688,-0.23912,0.794342,0.564616
1630932124698,-0.237656,0.794098,0.563335
1630932124707,-0.23558199999999999,0.794281,0.561017
1630932124717,-0.23424,0.791963,0.559126
1630932124726,-0.232898,0.789706,0.558577
1630932124736,-0.23241,0.7896449999999999,0.558577
1630932124746,-0.23155599999999998,0.7896449999999999,0.560407
1630932124755,-0.230702,0.792207,0.561078
1630932124765,-0.228018,0.793488,0.560712
1630932124774,-0.225151,0.796904,0.560102
1630932124784,-0.223687,0.799283,0.560895
1630932124794,-0.224236,0.7991,0.56303
1630932124803,-0.224724,0.798124,0.565226
1630932124813,-0.224297,0.796111,0.567056
1630932124822,-0.22447999999999999,0.792817,0.5673
1630932124832,-0.223382,0.792268,0.56608
1630932124842,-0.221186,0.79483,0.5651039999999999
1630932124851,-0.221308,0.796111,0.563396
1630932124861,-0.220393,0.798368,0.560651
1630932124870,-0.22106399999999998,0.7984289999999999,0.560285
1630932124880,-0.222223,0.796538,0.5608339999999999
1630932124890,-0.224419,0.79544,0.560346
1630932124899,-0.224114,0.798124,0.560895
1630932124909,-0.223199,0.798856,0.560712
1630932124918,-0.222894,0.798185,0.559919
1630932124928,-0.223321,0.796477,0.558211
1630932124938,-0.223138,0.795135,0.555466
1630932124947,-0.222955,0.794586,0.55449
1630932124957,-0.222101,0.792756,0.55449
1630932124966,-0.22326,0.7908649999999999,0.554124
1630932124976,-0.22326,0.790987,0.55449
1630932124986,-0.225822,0.7902549999999999,0.555893
1630932124995,-0.22600499999999998,0.7890349999999999,0.556625
1630932125005,-0.227591,0.788608,0.557174
1630932125014,-0.228201,0.787937,0.55754
1630932125024,-0.228872,0.788974,0.558455
1630932125034,-0.228872,0.791658,0.560285
1630932125043,-0.229787,0.793915,0.562298
1630932125053,-0.231678,0.795074,0.56242
1630932125062,-0.23277599999999998,0.796416,0.563396
1630932125072,-0.233325,0.796965,0.565226
1630932125082,-0.23338599999999998,0.7987339999999999,0.5660189999999999
1630932125091,-0.234545,0.7990389999999999,0.5675439999999999
1630932125101,-0.23680199999999998,0.797758,0.567971
1630932125110,-0.236863,0.79788,0.5669339999999999
1630932125120,-0.238449,0.797026,0.566751
1630932125130,-0.24015699999999998,0.798856,0.566202
1630932125139,-0.24235299999999999,0.8005639999999999,0.5666289999999999
1630932125149,-0.243451,0.803675,0.565592
1630932125158,-0.24326799999999998,0.800381,0.563762
1630932125168,-0.244061,0.798002,0.5602239999999999
1630932125178,-0.243085,0.793854,0.55632
1630932125187,-0.24387799999999998,0.791536,0.553514
1630932125197,-0.243451,0.790011,0.553636
1630932125206,-0.24326799999999998,0.789828,0.553514
1630932125216,-0.24387799999999998,0.788364,0.555039
1630932125226,-0.24357299999999998,0.786717,0.556015
1630932125235,-0.243817,0.786473,0.557235
1630932125245,-0.24339,0.785802,0.557418
1630932125254,-0.242902,0.790072,0.558516
1630932125264,-0.241926,0.791597,0.560346
1630932125274,-0.242109,0.791536,0.5623589999999999
1630932125283,-0.24204799999999999,0.793244,0.56181
1630932125293,-0.241987,0.791414,0.562298
1630932125302,-0.24095,0.792268,0.5605289999999999
1630932125312,-0.238754,0.793549,0.560041
1630932125322,-0.239364,0.793488,0.560102
1630932125331,-0.238876,0.795379,0.561261
1630932125341,-0.23649699999999999,0.79788,0.56181
1630932125350,-0.236924,0.800442,0.558943
1630932125360,-0.238449,0.799832,0.556503
1630932125370,-0.23710699999999998,0.802577,0.554246
1630932125379,-0.23485,0.805932,0.552599
1630932125389,-0.234972,0.8036139999999999,0.552965
1630932125398,-0.236375,0.798856,0.552965
1630932125408,-0.237839,0.792451,0.552599
1630932125418,-0.235826,0.790621,0.553636
1630932125427,-0.232227,0.792817,0.555649
1630932125437,-0.228933,0.797331,0.557784
1630932125446,-0.227408,0.801296,0.557845
1630932125456,-0.226249,0.800503,0.555405
1630932125466,-0.22691999999999998,0.7996489999999999,0.552538
1630932125475,-0.22569999999999998,0.798673,0.550281
1630932125485,-0.22600499999999998,0.798856,0.55022
1630932125494,-0.226798,0.798551,0.551257
1630932125504,-0.226737,0.79849,0.552904
1630932125514,-0.227713,0.799771,0.554551
1630932125523,-0.226432,0.801906,0.552477
1630932125533,-0.22478499999999998,0.805078,0.550952
1630932125542,-0.22386999999999999,0.807091,0.550525
1630932125552,-0.223321,0.8054439999999999,0.5480849999999999
1630932125562,-0.224236,0.804407,0.545828
1630932125571,-0.22478499999999998,0.8054439999999999,0.545767
1630932125581,-0.226493,0.805627,0.545096
1630932125590,-0.22783499999999998,0.8045289999999999,0.544974
1630932125600,-0.229543,0.8066639999999999,0.5459499999999999
1630932125610,-0.228079,0.809226,0.5453399999999999
1630932125619,-0.226493,0.81008,0.543449
1630932125629,-0.22783499999999998,0.80825,0.5422899999999999
1630932125638,-0.227469,0.809653,0.539972
1630932125648,-0.226066,0.810751,0.537654
1630932125658,-0.228384,0.808982,0.5361899999999999
1630932125667,-0.230519,0.807335,0.536373
1630932125677,-0.23119,0.807213,0.534116
1630932125686,-0.230214,0.808616,0.534787
1630932125696,-0.22942099999999999,0.808677,0.536068
1630932125706,-0.228628,0.8087989999999999,0.537654
1630932125715,-0.228506,0.807335,0.537227
1630932125725,-0.228628,0.8075789999999999,0.5398499999999999
1630932125734,-0.227957,0.808555,0.541131
1630932125744,-0.228933,0.806847,0.5407649999999999
1630932125754,-0.22972599999999999,0.804712,0.539911
1630932125763,-0.230702,0.803553,0.538874
1630932125773,-0.23125099999999998,0.803675,0.539118
1630932125782,-0.232654,0.8052,0.541436
1630932125792,-0.2318,0.806847,0.542107
1630932125802,-0.23363,0.8097139999999999,0.542046
1630932125811,-0.233935,0.811788,0.542107
1630932125821,-0.23369099999999998,0.8130689999999999,0.541436
1630932125830,-0.235399,0.81557,0.540948
1630932125840,-0.23546,0.819047,0.540704
1630932125850,-0.236558,0.820633,0.539423
1630932125859,-0.237046,0.821243,0.5380199999999999
1630932125869,-0.238144,0.820999,0.537227
1630932125878,-0.23985199999999998,0.821182,0.535824
1630932125888,-0.240584,0.822402,0.535946
1630932125898,-0.240523,0.823012,0.536068
1630932125907,-0.240035,0.821731,0.533506
1630932125917,-0.240401,0.81801,0.531554
1630932125926,-0.240096,0.8164239999999999,0.53009
1630932125936,-0.240401,0.81252,0.526308
1630932125946,-0.240523,0.808128,0.523685
1630932125955,-0.239974,0.810202,0.523258
1630932125965,-0.240279,0.810568,0.52277
1630932125974,-0.238754,0.810568,0.523502
1630932125984,-0.23863199999999998,0.810446,0.524295
1630932125994,-0.239364,0.809897,0.525454
1630932126003,-0.239303,0.809897,0.526003
1630932126013,-0.239059,0.8103239999999999,0.527406
1630932126022,-0.238693,0.81069,0.526735
1630932126032,-0.23924199999999998,0.811056,0.527894
1630932126042,-0.239181,0.812703,0.528016
1630932126051,-0.237656,0.813496,0.52704
1630932126061,-0.237534,0.814716,0.52826
1630932126070,-0.238388,0.817644,0.528687
1630932126080,-0.236741,0.820938,0.530639
1630932126090,-0.235399,0.822097,0.531066
1630932126099,-0.235216,0.821365,0.529053
1630932126109,-0.235155,0.822646,0.526796
1630932126118,-0.232898,0.82411,0.527162
1630932126128,-0.234118,0.821426,0.525576
1630932126138,-0.235216,0.81862,0.525271
1630932126147,-0.234789,0.812032,0.525637
1630932126157,-0.235338,0.808311,0.524783
1630932126166,-0.234545,0.810202,0.526308
1630932126176,-0.231739,0.813191,0.528626
1630932126186,-0.230458,0.817156,0.530395
1630932126195,-0.231007,0.816607,0.532164
1630932126205,-0.231312,0.81374,0.532225
1630932126214,-0.23064099999999998,0.81252,0.532652
1630932126224,-0.232105,0.810751,0.532652
1630932126234,-0.231922,0.811056,0.532835
1630932126243,-0.231922,0.812215,0.532286
1630932126253,-0.231495,0.8136789999999999,0.534238
1630932126262,-0.231312,0.815448,0.534055
1630932126272,-0.230824,0.815753,0.533994
1630932126282,-0.23155599999999998,0.817522,0.533323
1630932126291,-0.231922,0.820145,0.531493
1630932126301,-0.231312,0.822036,0.529846
1630932126310,-0.231678,0.822097,0.529358
1630932126320,-0.232288,0.821975,0.528504
1630932126330,-0.234728,0.822097,0.527162
1630932126339,-0.236924,0.823866,0.526979
1630932126349,-0.236741,0.823927,0.524966
1630932126358,-0.234728,0.821914,0.522465
1630932126368,-0.235643,0.8252079999999999,0.522709
1630932126378,-0.234911,0.828136,0.52094
1630932126387,-0.235033,0.8306979999999999,0.518012
1630932126397,-0.236619,0.829051,0.518927
1630932126406,-0.238998,0.828746,0.519598
1630932126416,-0.23973,0.830332,0.5206959999999999
1630932126426,-0.24015699999999998,0.831796,0.521794
1630932126435,-0.241194,0.833199,0.5213059999999999
1630932126445,-0.240767,0.832894,0.519354
1630932126454,-0.240706,0.832406,0.515877
1630932126464,-0.23851,0.828441,0.510082
1630932126474,-0.23619199999999999,0.821487,0.507703
1630932126483,-0.233508,0.821548,0.505751
1630932126493,-0.233325,0.821548,0.503189
1630932126502,-0.232105,0.818742,0.500627
1630932126512,-0.232654,0.8158139999999999,0.500688
1630932126522,-0.233752,0.81374,0.501908
1630932126531,-0.23424,0.8161189999999999,0.504592
1630932126541,-0.236741,0.821426,0.508923
1630932126550,-0.23680199999999998,0.828136,0.510875
1630932126560,-0.236741,0.831064,0.511058
1630932126570,-0.23619199999999999,0.829905,0.511302
1630932126579,-0.235704,0.8294779999999999,0.510204
1630932126589,-0.235399,0.8297829999999999,0.508679
1630932126598,-0.23363,0.828197,0.506178
1630932126608,-0.233508,0.82838,0.505324
1630932126618,-0.232837,0.8291729999999999,0.504836
1630932126627,-0.232654,0.830576,0.505507
1630932126637,-0.232959,0.831674,0.505629
1630932126646,-0.230763,0.83631,0.504165
1630932126656,-0.228506,0.837835,0.50325
1630932126666,-0.225944,0.837286,0.50264
1630932126675,-0.223626,0.836066,0.502152
1630932126685,-0.222772,0.8349679999999999,0.501725
1630932126694,-0.22326,0.8349679999999999,0.501115
1630932126704,-0.222101,0.835822,0.501725
1630932126714,-0.221308,0.837286,0.501664
1630932126723,-0.220942,0.8398479999999999,0.500444
1630932126733,-0.22143,0.843752,0.499407
1630932126742,-0.221552,0.845277,0.498797
1630932126752,-0.221003,0.846436,0.49733299999999997
1630932126762,-0.220881,0.846924,0.499895
1630932126771,-0.22106399999999998,0.846131,0.499407
1630932126781,-0.221491,0.84546,0.496052
1630932126790,-0.222406,0.845277,0.494344
1630932126800,-0.222772,0.844728,0.49263599999999996
1630932126810,-0.22204,0.843752,0.491294
1630932126819,-0.222772,0.842227,0.490684
1630932126829,-0.222406,0.841068,0.48897599999999997
1630932126838,-0.220576,0.8401529999999999,0.488244
1630932126848,-0.22082,0.841251,0.487695
1630932126858,-0.220942,0.842349,0.487573
1630932126867,-0.220027,0.843386,0.485804
1630932126877,-0.220881,0.842105,0.485865
1630932126886,-0.222955,0.836859,0.484584
1630932126896,-0.22386999999999999,0.835822,0.48531599999999997
1630932126906,-0.224053,0.837164,0.486719
1630932126915,-0.222467,0.841495,0.48806099999999997
1630932126925,-0.22167399999999998,0.845887,0.49019599999999997
1630932126934,-0.221003,0.849303,0.491965
1630932126944,-0.220393,0.849181,0.49172099999999996
1630932126954,-0.221308,0.849486,0.491538
1630932126963,-0.22228399999999998,0.850828,0.490013
1630932126973,-0.222467,0.85217,0.48958599999999997
1630932126982,-0.223626,0.854,0.488732
1630932126992,-0.225212,0.8565619999999999,0.488488
1630932127002,-0.22447999999999999,0.8583919999999999,0.48806099999999997
1630932127011,-0.223077,0.857599,0.48617
1630932127021,-0.221735,0.8577819999999999,0.48318099999999997
1630932127030,-0.22014899999999998,0.8547319999999999,0.478606
1630932127040,-0.218685,0.8507669999999999,0.474763
1630932127050,-0.218136,0.8474119999999999,0.47238399999999997
1630932127059,-0.217404,0.845033,0.470676
1630932127069,-0.218502,0.842471,0.470798
1630932127078,-0.21899,0.84119,0.471652
1630932127088,-0.21862399999999999,0.84058,0.47146899999999997
1630932127098,-0.21838,0.840641,0.475007
1630932127107,-0.218441,0.841068,0.47848399999999996
1630932127117,-0.218258,0.84241,0.48031399999999996
1630932127126,-0.217892,0.842654,0.48000899999999996
1630932127136,-0.219356,0.842654,0.481595
1630932127146,-0.2196,0.842471,0.481412
1630932127155,-0.219722,0.8461919999999999,0.483059
1630932127165,-0.220698,0.851438,0.483608
1630932127174,-0.22014899999999998,0.855281,0.48257099999999997
1630932127184,-0.22265,0.8593069999999999,0.481534
1630932127194,-0.222894,0.861564,0.480375
1630932127203,-0.223321,0.86437,0.47848399999999996
1630932127213,-0.225151,0.865407,0.47756899999999997
1630932127222,-0.225822,0.866139,0.47695899999999997
1630932127232,-0.226554,0.867725,0.476288
1630932127242,-0.226188,0.869311,0.476532
1630932127251,-0.226066,0.865468,0.474092
1630932127261,-0.226249,0.8614419999999999,0.47207899999999997
1630932127270,-0.225273,0.857538,0.470127
1630932127280,-0.222467,0.853085,0.469273
1630932127290,-0.223016,0.84973,0.46799199999999996
1630932127299,-0.224724,0.84912,0.465674
1630932127309,-0.22600499999999998,0.851133,0.465003
1630932127318,-0.226066,0.84729,0.467748
1630932127328,-0.223504,0.84363,0.472323
1630932127338,-0.223626,0.84302,0.473421
1630932127347,-0.224846,0.844911,0.47458
1630932127357,-0.225761,0.84912,0.47207899999999997
1630932127366,-0.22417499999999999,0.848754,0.472201
1630932127376,-0.222467,0.844606,0.476898
1630932127386,-0.221735,0.84485,0.479826
1630932127395,-0.221735,0.846924,0.478972
1630932127405,-0.222406,0.85095,0.47726399999999997
1630932127414,-0.221491,0.852963,0.475556
1630932127424,-0.22167399999999998,0.855769,0.474641
1630932127434,-0.22106399999999998,0.857843,0.473665
1630932127443,-0.22082,0.862601,0.469456
1630932127453,-0.220942,0.861686,0.474397
1630932127462,-0.217648,0.861564,0.475068
1630932127472,-0.217404,0.860771,0.472323
1630932127482,-0.217892,0.859673,0.469029
1630932127491,-0.216733,0.859185,0.467809
1630932127501,-0.216184,0.856745,0.46677199999999996
1630932127510,-0.216062,0.856074,0.466223
1630932127520,-0.21337799999999998,0.853695,0.468236
1630932127530,-0.214354,0.854183,0.469151
1630932127539,-0.213134,0.855708,0.471835
1630932127549,-0.213134,0.856928,0.471896
1630932127558,-0.212646,0.8568669999999999,0.472628
1630932127568,-0.214537,0.855708,0.47207899999999997
1630932127578,-0.21429299999999998,0.854793,0.47238399999999997
1630932127587,-0.214049,0.853878,0.47214
1630932127597,-0.214659,0.854183,0.473787
1630932127606,-0.214781,0.856379,0.475251
1630932127616,-0.213744,0.859185,0.473848
1630932127626,-0.215269,0.8590019999999999,0.472872
1630932127635,-0.215452,0.863943,0.474153
1630932127645,-0.21472,0.865468,0.47329899999999997
1630932127654,-0.215086,0.864553,0.473726
1630932127664,-0.216367,0.861808,0.473421
1630932127674,-0.217099,0.857294,0.47390899999999997
1630932127683,-0.218868,0.856684,0.476471
1630932127693,-0.218502,0.8577819999999999,0.47726399999999997
1630932127702,-0.217892,0.858331,0.477691
1630932127712,-0.216733,0.859185,0.476227
1630932127722,-0.216245,0.858575,0.47482399999999997
1630932127731,-0.215269,0.859246,0.472262
1630932127741,-0.214781,0.8562569999999999,0.471286
1630932127750,-0.214476,0.856379,0.46787
1630932127760,-0.216062,0.855525,0.466284
1630932127770,-0.216977,0.8535119999999999,0.466223
1630932127779,-0.217282,0.853634,0.46616199999999997
1630932127789,-0.217587,0.854671,0.46768699999999996
1630932127798,-0.216062,0.8568669999999999,0.467199
1630932127808,-0.21551299999999998,0.859856,0.465796
1630932127818,-0.215147,0.861503,0.46604
1630932127827,-0.215391,0.8602219999999999,0.46494199999999997
1630932127837,-0.215147,0.859246,0.464698
1630932127846,-0.216367,0.85827,0.464271
1630932127856,-0.217282,0.857965,0.464881
1630932127866,-0.217587,0.858758,0.465125
1630932127875,-0.218685,0.85888,0.464698
1630932127885,-0.218502,0.859063,0.46665
1630932127894,-0.217343,0.859429,0.467626
1630932127904,-0.217099,0.8602219999999999,0.468236
1630932127914,-0.216611,0.859368,0.468663
1630932127923,-0.216245,0.859124,0.470432
1630932127933,-0.215086,0.8590019999999999,0.471042
1630932127942,-0.21429299999999998,0.8574769999999999,0.471591
1630932127952,-0.216184,0.858453,0.471042
1630932127962,-0.216672,0.85705,0.468419
1630932127971,-0.216977,0.857294,0.46707699999999996
1630932127981,-0.217465,0.8565619999999999,0.466101
1630932127990,-0.215879,0.857233,0.466589
1630932128000,-0.21581799999999998,0.855586,0.46738199999999996
1630932128010,-0.215269,0.856684,0.468846
1630932128019,-0.214842,0.854671,0.470432
1630932128029,-0.214232,0.85278,0.47116399999999997
1630932128038,-0.21520799999999998,0.852658,0.471713
1630932128048,-0.216001,0.8516819999999999,0.47275
1630932128058,-0.21429299999999998,0.853329,0.473055
1630932128067,-0.215452,0.854793,0.472933
1630932128077,-0.216062,0.85583,0.474458
1630932128086,-0.21655,0.8574769999999999,0.475678
1630932128096,-0.216611,0.858453,0.47787399999999997
1630932128106,-0.216977,0.859673,0.478362
1630932128115,-0.21777,0.859856,0.479826
1630932128125,-0.217648,0.860466,0.478057
1630932128134,-0.21777,0.860405,0.47878899999999996
1630932128144,-0.21862399999999999,0.859185,0.476715
1630932128154,-0.219966,0.8586969999999999,0.47573899999999997
1630932128163,-0.220576,0.8583919999999999,0.473787
1630932128173,-0.221857,0.858636,0.472872
1630932128182,-0.22204,0.86193,0.472262
1630932128192,-0.222406,0.86315,0.47207899999999997
1630932128202,-0.22228399999999998,0.860039,0.470371
1630932128211,-0.22197899999999998,0.8577819999999999,0.470188
1630932128221,-0.221247,0.853634,0.46909
1630932128230,-0.220698,0.8513769999999999,0.46726
1630932128240,-0.221308,0.850401,0.466955
1630932128250,-0.221491,0.850828,0.467504
1630932128259,-0.221552,0.850645,0.467809
1630932128269,-0.223138,0.8519869999999999,0.469334
1630932128278,-0.222894,0.852719,0.469029
1630932128288,-0.224602,0.853146,0.470249
1630932128298,-0.22417499999999999,0.85461,0.46921199999999996
1630932128307,-0.223077,0.857843,0.470737
1630932128317,-0.223321,0.858636,0.469578
1630932128326,-0.223626,0.860283,0.466955
1630932128336,-0.223809,0.859063,0.467016
1630932128346,-0.223321,0.859185,0.465308
1630932128355,-0.223138,0.858453,0.46433199999999997
1630932128365,-0.222589,0.858026,0.463356
1630932128374,-0.22228399999999998,0.857965,0.464088
1630932128384,-0.221552,0.8580869999999999,0.465064
1630932128394,-0.22136899999999998,0.858758,0.467809
1630932128403,-0.220881,0.859734,0.469456
1630932128413,-0.220637,0.857965,0.468541
1630932128422,-0.220881,0.856928,0.46787
1630932128432,-0.220271,0.859185,0.468846
1630932128442,-0.2196,0.858819,0.46909
1630932128451,-0.220271,0.85644,0.469944
1630932128461,-0.22204,0.850523,0.472445
1630932128470,-0.223077,0.845948,0.474763
1630932128480,-0.222162,0.846619,0.47970399999999996
1630932128490,-0.21984399999999998,0.851438,0.483547
1630932128499,-0.219905,0.855586,0.48617
1630932128509,-0.21984399999999998,0.857111,0.48678
1630932128518,-0.221003,0.8556469999999999,0.486292
1630932128528,-0.222162,0.854671,0.484584
1630932128538,-0.221308,0.851926,0.48379099999999997
1630932128547,-0.221003,0.850645,0.482022
1630932128557,-0.221308,0.848205,0.480863
1630932128566,-0.222528,0.84607,0.482022
1630932128576,-0.223199,0.8468019999999999,0.481656
1630932128586,-0.223016,0.846924,0.479948
1630932128595,-0.222345,0.8492419999999999,0.480436
1630932128605,-0.222711,0.851011,0.479643
1630932128614,-0.222223,0.852475,0.478362
1630932128624,-0.222345,0.851499,0.475556
1630932128634,-0.223992,0.849974,0.473116
1630932128643,-0.225944,0.848815,0.472628
1630932128653,-0.225578,0.848754,0.473238
1630932128662,-0.226432,0.84973,0.47299399999999997
1630932128672,-0.226676,0.852536,0.47268899999999997
1630932128682,-0.22691999999999998,0.852353,0.470981
1630932128691,-0.226981,0.852963,0.46921199999999996
1630932128701,-0.22783499999999998,0.851438,0.46829699999999996
1630932128710,-0.228872,0.849608,0.469334
1630932128720,-0.230153,0.8492419999999999,0.470676
1630932128730,-0.229604,0.850828,0.471042
1630932128739,-0.231312,0.852963,0.471591
1630932128749,-0.23058,0.855403,0.47238399999999997
1630932128758,-0.23064099999999998,0.855281,0.472262
1630932128768,-0.230214,0.8565619999999999,0.470981
1630932128778,-0.229299,0.856684,0.470371
1630932128787,-0.23033599999999999,0.85644,0.470493
1630932128797,-0.231129,0.8568669999999999,0.469761
1630932128806,-0.23094599999999998,0.856928,0.469334
1630932128816,-0.23119,0.856745,0.46909
1630932128826,-0.231434,0.857233,0.468236
1630932128835,-0.23216599999999998,0.856989,0.468724
1630932128845,-0.231434,0.858453,0.467626
1630932128854,-0.233203,0.856745,0.46677199999999996
1630932128864,-0.233508,0.857599,0.465186
1630932128874,-0.232898,0.8596119999999999,0.46372199999999997
1630932128883,-0.232288,0.860466,0.464149
1630932128893,-0.230214,0.86071,0.464271
1630932128902,-0.231373,0.8601,0.463844
1630932128912,-0.23125099999999998,0.8596119999999999,0.463539
1630932128922,-0.23033599999999999,0.859368,0.464576
1630932128931,-0.22997,0.859551,0.465064
1630932128941,-0.229604,0.859063,0.463234
1630932128950,-0.22942099999999999,0.856684,0.46280699999999997
1630932128960,-0.230092,0.858331,0.46219699999999997
1630932128970,-0.229299,0.861198,0.461953
1630932128979,-0.229543,0.861808,0.462014
1630932128989,-0.229238,0.8620519999999999,0.461038
1630932128998,-0.22844499999999998,0.861259,0.46158699999999997
1630932129008,-0.227652,0.863028,0.46006199999999997
1630932129018,-0.227286,0.859734,0.459391
1630932129027,-0.226798,0.858819,0.458781
1630932129037,-0.225639,0.8590019999999999,0.459513
1630932129046,-0.224602,0.85766,0.46006199999999997
1630932129056,-0.224846,0.856318,0.46006199999999997
1630932129066,-0.224968,0.857294,0.46055
1630932129075,-0.224602,0.858636,0.459879
1630932129085,-0.22417499999999999,0.858148,0.459635
1630932129094,-0.22386999999999999,0.859429,0.45933
1630932129104,-0.22326,0.860771,0.460123
1630932129114,-0.223809,0.86193,0.46128199999999997
1630932129123,-0.222894,0.86193,0.459818
1630932129133,-0.222955,0.862784,0.45994
1630932129142,-0.221735,0.862235,0.46006199999999997
1630932129152,-0.222162,0.8605269999999999,0.459025
1630932129162,-0.221796,0.8593069999999999,0.457378
1630932129171,-0.221186,0.860039,0.457805
1630932129181,-0.221552,0.85888,0.457988
1630932129190,-0.222772,0.860588,0.45811
1630932129200,-0.221613,0.862906,0.459391
1630932129210,-0.220698,0.86254,0.459818
1630932129219,-0.220393,0.8638819999999999,0.456097
1630932129229,-0.22082,0.86437,0.454328
1630932129238,-0.22021,0.867237,0.453047
1630932129248,-0.220515,0.868335,0.452986
1630932129258,-0.222223,0.8638819999999999,0.454206
1630932129267,-0.224724,0.857965,0.455609
1630932129277,-0.225944,0.855891,0.457805
1630932129286,-0.223748,0.859734,0.461038
1630932129296,-0.220393,0.8644919999999999,0.462929
1630932129306,-0.219966,0.866932,0.463966
1630932129315,-0.219661,0.868762,0.46341699999999997
1630932129325,-0.219417,0.867969,0.46097699999999997
1630932129334,-0.219783,0.865651,0.45945199999999997
1630932129344,-0.22014899999999998,0.8626619999999999,0.458476
1630932129354,-0.220393,0.8601,0.458354
1630932129363,-0.219417,0.860283,0.458171
1630932129373,-0.219661,0.8605269999999999,0.458232
1630932129382,-0.219051,0.8620519999999999,0.457744
1630932129392,-0.219112,0.864431,0.457317
1630932129402,-0.218258,0.866566,0.457744
1630932129411,-0.217526,0.865773,0.456036
1630932129421,-0.217465,0.865224,0.455121
1630932129430,-0.21801399999999999,0.864736,0.45505999999999996
1630932129440,-0.219783,0.862784,0.453901
1630932129450,-0.219478,0.862418,0.45444999999999997
1630932129459,-0.21899,0.862906,0.45566999999999996
1630932129469,-0.219112,0.863394,0.456768
1630932129478,-0.219051,0.864126,0.457683
1630932129488,-0.219112,0.864675,0.456219
1630932129498,-0.21831899999999999,0.864553,0.457439
1630932129507,-0.21984399999999998,0.861869,0.457622
1630932129517,-0.22167399999999998,0.860161,0.457317
1630932129526,-0.22136899999999998,0.861015,0.458537
1630932129536,-0.221857,0.86254,0.458781
1630932129546,-0.220393,0.864675,0.46036699999999997
1630932129555,-0.22136899999999998,0.864736,0.46067199999999997
1630932129565,-0.221796,0.864614,0.461099
1630932129574,-0.22106399999999998,0.864431,0.459696
1630932129584,-0.220698,0.8635769999999999,0.458415
1630932129594,-0.22045399999999998,0.863028,0.458232
1630932129603,-0.220637,0.86193,0.457744
1630932129613,-0.22106399999999998,0.8602219999999999,0.456463
1630932129622,-0.222772,0.859185,0.456524
1630932129632,-0.222528,0.861564,0.456951
1630932129642,-0.223138,0.862235,0.45688999999999996
1630932129651,-0.224053,0.864431,0.457744
1630932129661,-0.223626,0.865773,0.458964
1630932129670,-0.224053,0.866383,0.45933
1630932129680,-0.223382,0.866078,0.45884199999999997
1630932129690,-0.223687,0.866017,0.457622
1630932129699,-0.223077,0.865041,0.458232
1630932129709,-0.224114,0.863821,0.457378
1630932129718,-0.22356499999999999,0.8614419999999999,0.455853
1630932129728,-0.222833,0.8605269999999999,0.456768
1630932129738,-0.223443,0.859185,0.457927
1630932129747,-0.22326,0.858331,0.457439
1630932129757,-0.223931,0.857599,0.45811
1630932129766,-0.224358,0.859124,0.46006199999999997
1630932129776,-0.224602,0.858331,0.460489
1630932129786,-0.22447999999999999,0.859063,0.46067199999999997
1630932129795,-0.224419,0.859185,0.461953
1630932129805,-0.224968,0.860954,0.462563
1630932129814,-0.224907,0.862906,0.46219699999999997
1630932129824,-0.224724,0.863699,0.461648
1630932129834,-0.225456,0.86376,0.461038
1630932129843,-0.226066,0.865712,0.45994
1630932129853,-0.22752999999999998,0.868884,0.45933
1630932129862,-0.227408,0.87047,0.45872
1630932129872,-0.22691999999999998,0.87108,0.458171
1630932129882,-0.227713,0.870348,0.455243
1630932129891,-0.226554,0.868518,0.454389
1630932129901,-0.226432,0.867847,0.452498
1630932129910,-0.226737,0.866322,0.452803
1630932129920,-0.226432,0.8651019999999999,0.451522
1630932129930,-0.226432,0.864736,0.45261999999999997
1630932129939,-0.225578,0.863211,0.45322999999999997
1630932129949,-0.224419,0.861015,0.453657
1630932129958,-0.225456,0.859734,0.455914
1630932129968,-0.22600499999999998,0.85888,0.454999
1630932129978,-0.225456,0.86254,0.455792
1630932129987,-0.224602,0.862784,0.454938
1630932129997,-0.224053,0.861503,0.450851
1630932130006,-0.223748,0.8651019999999999,0.449936
1630932130016,-0.223443,0.868335,0.44865499999999997
1630932130026,-0.224358,0.869616,0.448594
1630932130035,-0.225517,0.865712,0.449387
1630932130045,-0.227774,0.8608319999999999,0.449997
1630932130054,-0.227591,0.858941,0.450668
1630932130064,-0.226066,0.8620519999999999,0.45322999999999997
1630932130074,-0.222528,0.866688,0.455304
1630932130083,-0.221308,0.869311,0.45597499999999996
1630932130093,-0.221186,0.869311,0.457378
1630932130102,-0.221552,0.867664,0.455792
1630932130112,-0.222223,0.864858,0.454267
1630932130122,-0.22143,0.862784,0.453779
1630932130131,-0.220942,0.86315,0.454084
1630932130141,-0.220088,0.8626619999999999,0.453596
1630932130150,-0.221003,0.86254,0.453169
1630932130160,-0.2196,0.8632719999999999,0.453291
1630932130170,-0.218441,0.8641869999999999,0.454633
1630932130179,-0.217282,0.864858,0.45383999999999997
1630932130189,-0.216672,0.8651019999999999,0.45292499999999997
1630932130198,-0.215086,0.8651019999999999,0.453108
1630932130208,-0.216184,0.864126,0.453901
1630932130218,-0.216855,0.862784,0.45444999999999997
1630932130227,-0.217892,0.8623569999999999,0.454816
1630932130237,-0.216794,0.863638,0.454511
1630932130246,-0.217038,0.866627,0.455914
1630932130256,-0.21716,0.868152,0.456768
1630932130266,-0.216855,0.870165,0.456341
1630932130275,-0.217038,0.870104,0.454877
1630932130285,-0.218258,0.86742,0.454633
1630932130294,-0.21892899999999998,0.8647969999999999,0.45475499999999996
1630932130304,-0.219112,0.864553,0.45566999999999996
1630932130314,-0.219112,0.865529,0.457195
1630932130323,-0.218746,0.867054,0.456707
1630932130333,-0.218563,0.867298,0.456768
1630932130342,-0.21984399999999998,0.866627,0.456341
1630932130352,-0.219417,0.866627,0.456646
1630932130362,-0.218868,0.866871,0.45627999999999996
1630932130371,-0.218075,0.867786,0.457134
1630932130381,-0.21777,0.8662,0.456158
1630932130390,-0.218502,0.865163,0.45444999999999997
1630932130400,-0.21899,0.863699,0.454633
1630932130410,-0.21892899999999998,0.86437,0.453108
1630932130419,-0.220698,0.864919,0.452498
1630932130429,-0.22021,0.865895,0.452254
1630932130438,-0.22045399999999998,0.865407,0.453474
1630932130448,-0.219905,0.865468,0.45383999999999997
1630932130458,-0.22106399999999998,0.86498,0.454267
1630932130467,-0.220393,0.865895,0.455548
1630932130477,-0.220271,0.865041,0.455304
1630932130486,-0.219722,0.864126,0.45536499999999996
1630932130496,-0.221125,0.8644919999999999,0.456036
1630932130506,-0.22082,0.86437,0.456524
1630932130515,-0.22045399999999998,0.8651019999999999,0.456158
1630932130525,-0.220393,0.8644919999999999,0.45658499999999996
1630932130534,-0.220698,0.8641869999999999,0.455609
1630932130544,-0.22075899999999998,0.863455,0.455792
1630932130554,-0.219295,0.86498,0.454938
1630932130563,-0.219417,0.864736,0.454816
1630932130573,-0.219295,0.866932,0.455792
1630932130582,-0.21801399999999999,0.867054,0.45536499999999996
1630932130592,-0.217831,0.866627,0.455426
1630932130602,-0.21777,0.865468,0.454877
1630932130611,-0.216916,0.86437,0.45292499999999997
1630932130621,-0.216489,0.862906,0.451644
1630932130630,-0.21770899999999999,0.8620519999999999,0.451339
1630932130640,-0.21923399999999998,0.86254,0.451461
1630932130650,-0.221247,0.863516,0.454572
1630932130659,-0.22143,0.862113,0.457317
1630932130669,-0.220088,0.862113,0.458049
1630932130678,-0.220027,0.8626619999999999,0.457378
1630932130688,-0.219173,0.861564,0.45627999999999996
1630932130698,-0.220027,0.862784,0.45627999999999996
1630932130707,-0.219417,0.864431,0.45688999999999996
1630932130717,-0.219295,0.864126,0.456158
1630932130726,-0.221186,0.865956,0.455182
1630932130736,-0.221735,0.867359,0.455487
1630932130746,-0.22082,0.86864,0.457439
1630932130755,-0.221735,0.868457,0.456097
1630932130765,-0.222162,0.86925,0.454206
1630932130774,-0.22228399999999998,0.86925,0.453108
1630932130784,-0.221308,0.87047,0.454389
1630932130794,-0.22204,0.871263,0.453352
1630932130803,-0.222894,0.868396,0.452742
1630932130813,-0.226249,0.862113,0.450851
1630932130822,-0.227103,0.858453,0.449814
1630932130832,-0.227103,0.859185,0.453108
1630932130842,-0.224907,0.862723,0.456036
1630932130851,-0.22386999999999999,0.866383,0.457317
1630932130861,-0.224053,0.868213,0.458171
1630932130870,-0.225029,0.86864,0.4575
1630932130880,-0.223687,0.867908,0.45627999999999996
1630932130890,-0.224419,0.866078,0.45566999999999996
1630932130899,-0.224053,0.864858,0.45322999999999997
1630932130909,-0.224236,0.864126,0.452803
1630932130918,-0.224968,0.863455,0.451827
1630932130928,-0.22600499999999998,0.8638819999999999,0.452132
1630932130938,-0.22600499999999998,0.864065,0.45231499999999997
1630932130947,-0.225212,0.865529,0.452742
1630932130957,-0.225029,0.866444,0.451583
1630932130966,-0.224602,0.865895,0.45017999999999997
1630932130976,-0.225151,0.865041,0.449936
1630932130986,-0.224114,0.864309,0.450058
1630932130995,-0.22600499999999998,0.8629669999999999,0.449326
1630932131005,-0.224846,0.861991,0.44773999999999997
1630932131014,-0.225334,0.862174,0.448228
1630932131024,-0.225456,0.86254,0.449204
1630932131034,-0.225517,0.864614,0.450851
1630932131043,-0.225029,0.867298,0.45048499999999997
1630932131053,-0.224846,0.867664,0.451522
1630932131062,-0.225273,0.866688,0.45231499999999997
1630932131072,-0.227042,0.865163,0.453047
1630932131082,-0.226249,0.8647969999999999,0.452986
1630932131091,-0.226554,0.865163,0.453474
1630932131101,-0.22539499999999998,0.8647969999999999,0.454389
1630932131110,-0.225273,0.865468,0.453291
1630932131120,-0.22478499999999998,0.866688,0.452254
1630932131130,-0.224236,0.868579,0.452071
1630932131139,-0.22356499999999999,0.869738,0.453291
1630932131149,-0.223199,0.872849,0.452864
1630932131158,-0.222772,0.870592,0.452742
1630932131168,-0.222406,0.869372,0.451766
1630932131178,-0.222467,0.869006,0.453047
1630932131187,-0.22204,0.868884,0.453596
1630932131197,-0.221552,0.869494,0.45231499999999997
1630932131206,-0.22167399999999998,0.8699209999999999,0.451827
1630932131216,-0.222772,0.868945,0.451888
1630932131226,-0.221735,0.867969,0.450729
1630932131235,-0.222894,0.865773,0.450668
1630932131245,-0.223809,0.8644919999999999,0.451583
1630932131254,-0.223809,0.86437,0.452498
1630932131264,-0.224236,0.864309,0.452193
1630932131274,-0.223809,0.863455,0.453047
1630932131283,-0.224968,0.864614,0.454694
1630932131293,-0.224419,0.867237,0.455304
1630932131302,-0.224968,0.869067,0.456524
1630932131312,-0.224846,0.870409,0.454816
1630932131322,-0.22478499999999998,0.869555,0.45292499999999997
1630932131331,-0.223992,0.867908,0.450119
1630932131341,-0.223626,0.867115,0.446703
1630932131350,-0.22228399999999998,0.865651,0.444507
1630932131360,-0.221918,0.8647969999999999,0.442677
1630932131370,-0.220942,0.864309,0.443165
1630932131379,-0.220393,0.863699,0.444507
1630932131389,-0.220576,0.866444,0.446398
1630932131398,-0.220698,0.866383,0.446459
1630932131408,-0.220515,0.8662,0.446581
1630932131418,-0.2196,0.86742,0.447679
1630932131427,-0.21899,0.866261,0.450424
1630932131437,-0.218075,0.867725,0.449997
1630932131446,-0.219356,0.865468,0.447374
1630932131456,-0.21831899999999999,0.865346,0.44895999999999997
1630932131466,-0.217648,0.865468,0.449387
1630932131475,-0.21862399999999999,0.865468,0.448167
1630932131485,-0.218502,0.867176,0.448594
1630932131494,-0.217892,0.867359,0.448899
1630932131504,-0.21716,0.868335,0.447191
1630932131514,-0.218197,0.8702259999999999,0.447923
1630932131523,-0.218563,0.872239,0.44834999999999997
1630932131533,-0.217221,0.87413,0.450424
1630932131542,-0.217831,0.873764,0.44926499999999997
1630932131552,-0.219173,0.872483,0.44804499999999997
1630932131562,-0.219112,0.8714459999999999,0.449204
1630932131571,-0.216306,0.870714,0.450302
1630932131581,-0.215696,0.8723609999999999,0.450912
1630932131590,-0.212951,0.8714459999999999,0.44834999999999997
1630932131600,-0.21398799999999998,0.86864,0.445788
1630932131610,-0.21472,0.869128,0.445422
1630932131619,-0.212585,0.872544,0.44773999999999997
1630932131629,-0.21167,0.873947,0.447923
1630932131638,-0.212951,0.872605,0.446154
1630932131648,-0.215574,0.868823,0.444385
1630932131658,-0.217892,0.867054,0.44286
1630932131667,-0.217099,0.869189,0.44395799999999996
1630932131677,-0.216062,0.8714459999999999,0.445788
1630932131686,-0.21581799999999998,0.8757159999999999,0.445056
1630932131696,-0.21551299999999998,0.878034,0.444446
1630932131706,-0.215452,0.877424,0.44243299999999997
1630932131715,-0.214842,0.876143,0.439932
1630932131725,-0.215574,0.872788,0.438224
1630932131734,-0.216794,0.872727,0.436516
1630932131744,-0.216977,0.872239,0.437614
1630932131754,-0.218746,0.8714459999999999,0.436882
1630932131763,-0.219051,0.872849,0.437736
1630932131773,-0.21892899999999998,0.87352,0.438224
1630932131782,-0.219478,0.87474,0.43737
1630932131792,-0.217404,0.873825,0.438956
1630932131802,-0.216367,0.871812,0.43938299999999997
1630932131811,-0.216428,0.869189,0.438285
1630932131821,-0.21716,0.866261,0.438346
1630932131830,-0.218502,0.862906,0.439871
1630932131840,-0.21777,0.859856,0.44090799999999997
1630932131850,-0.217465,0.860954,0.442616
1630932131859,-0.219112,0.864675,0.443104
1630932131869,-0.218746,0.865834,0.444019
1630932131878,-0.218136,0.865712,0.444934
1630932131888,-0.21801399999999999,0.862845,0.446703
1630932131898,-0.21801399999999999,0.861076,0.449814
1630932131907,-0.218502,0.864126,0.450851
1630932131917,-0.220332,0.866749,0.452498
1630932131926,-0.220332,0.868884,0.45658499999999996
1630932131936,-0.219478,0.870104,0.457866
1630932131946,-0.219478,0.8729709999999999,0.456402
1630932131955,-0.220698,0.873154,0.454999
1630932131965,-0.219417,0.87535,0.454328
1630932131974,-0.218258,0.875228,0.453718
1630932131984,-0.217221,0.874862,0.453108
1630932131994,-0.21777,0.87535,0.451278
1630932132003,-0.21801399999999999,0.874679,0.450058
1630932132013,-0.217831,0.8723,0.450668
1630932132022,-0.217587,0.870409,0.45322999999999997
1630932132032,-0.21594,0.868335,0.459086
1630932132042,-0.218868,0.866871,0.46128199999999997
1630932132051,-0.220576,0.863699,0.46055
1630932132061,-0.22228399999999998,0.8608319999999999,0.459696
1630932132070,-0.224663,0.8580869999999999,0.45945199999999997
1630932132080,-0.225944,0.856745,0.458354
1630932132090,-0.224297,0.855464,0.458293
1630932132099,-0.222467,0.85339,0.455731
1630932132109,-0.220942,0.8522919999999999,0.454023
1630932132118,-0.220637,0.851743,0.452254
1630932132128,-0.222955,0.851743,0.45200999999999997
1630932132138,-0.223443,0.85217,0.450546
1630932132147,-0.223504,0.853695,0.45109499999999997
1630932132157,-0.223138,0.854061,0.452376
1630932132166,-0.223748,0.854793,0.455487
1630932132176,-0.224968,0.8562569999999999,0.457012
1630932132186,-0.226066,0.853878,0.458354
1630932132195,-0.228628,0.849974,0.458964
1630932132205,-0.23186099999999998,0.850401,0.459818
1630932132214,-0.23399599999999998,0.8532069999999999,0.461709
1630932132224,-0.237961,0.852231,0.460245
1630932132234,-0.24174299999999999,0.850828,0.45884199999999997
1630932132243,-0.244366,0.851926,0.457744
1630932132253,-0.24729399999999999,0.85278,0.45688999999999996
1630932132262,-0.249551,0.854549,0.454572
1630932132272,-0.254004,0.856379,0.45292499999999997
1630932132282,-0.257176,0.85705,0.45078999999999997
1630932132291,-0.260226,0.856379,0.450973
1630932132301,-0.262178,0.859551,0.446581
1630932132310,-0.262239,0.859429,0.445544
1630932132320,-0.263276,0.8590019999999999,0.444507
1630932132330,-0.264496,0.8541219999999999,0.449326
1630932132339,-0.266326,0.854061,0.449509
1630932132349,-0.26809499999999997,0.8556469999999999,0.450973
1630932132358,-0.270779,0.857355,0.451217
1630932132368,-0.272609,0.859246,0.44956999999999997
1630932132378,-0.274805,0.8605269999999999,0.448777
1630932132387,-0.276818,0.862479,0.448167
1630932132397,-0.277428,0.862235,0.44773999999999997
1630932132406,-0.27999,0.8608319999999999,0.446642
1630932132416,-0.282308,0.861259,0.445727
1630932132426,-0.284748,0.858514,0.446032
1630932132435,-0.286639,0.855403,0.446154
1630932132445,-0.288591,0.856135,0.447313
1630932132454,-0.288408,0.856074,0.447069
1630932132464,-0.289384,0.8547319999999999,0.444324
1630932132474,-0.290848,0.856074,0.44347
1630932132483,-0.292312,0.856318,0.440176
1630932132493,-0.29426399999999997,0.857294,0.438285
1630932132502,-0.296338,0.854976,0.436394
1630932132512,-0.299571,0.851255,0.435174
1630932132522,-0.301218,0.848876,0.43511299999999997
1630932132531,-0.301584,0.849486,0.436821
1630932132541,-0.300242,0.851316,0.439322
1630932132550,-0.29951,0.854244,0.440237
1630932132560,-0.297375,0.8541219999999999,0.438834
1630932132570,-0.297253,0.854,0.43541799999999997
1630932132579,-0.297741,0.853451,0.43432
1630932132589,-0.29829,0.852536,0.43371
1630932132598,-0.298351,0.85217,0.434137
1630932132608,-0.299266,0.851499,0.435235
1630932132618,-0.299388,0.851621,0.434686
1630932132627,-0.299449,0.851133,0.433954
1630932132637,-0.299693,0.851926,0.433771
1630932132646,-0.299022,0.85156,0.430538
1630932132656,-0.298717,0.853634,0.427122
1630932132666,-0.300364,0.850523,0.42584099999999997
1630932132675,-0.301584,0.849303,0.423462
1630932132685,-0.301828,0.850645,0.422608
1630932132694,-0.30134,0.851804,0.421144
1630932132704,-0.301645,0.854854,0.419802
1630932132714,-0.301035,0.856623,0.41870399999999997
1630932132723,-0.301889,0.857904,0.415837
1630932132733,-0.302133,0.857904,0.4148
1630932132742,-0.302377,0.85644,0.414678
1630932132752,-0.302072,0.855159,0.41358
1630932132762,-0.302804,0.854671,0.413031
1630932132771,-0.303048,0.852414,0.413031
1630932132781,-0.30439,0.8538169999999999,0.412116
1630932132790,-0.304024,0.8568669999999999,0.412543
1630932132800,-0.305,0.85766,0.409859
1630932132810,-0.30597599999999997,0.859734,0.408334
1630932132819,-0.305427,0.861198,0.40809
1630932132829,-0.303536,0.864065,0.409188
1630932132838,-0.303292,0.8644919999999999,0.4087
1630932132848,-0.305305,0.865285,0.404735
1630932132858,-0.307745,0.863821,0.402966
1630932132867,-0.308965,0.8626619999999999,0.40077
1630932132877,-0.310002,0.864004,0.400343
1630932132886,-0.311771,0.86864,0.397903
1630932132896,-0.312808,0.872544,0.396256
1630932132906,-0.315126,0.873337,0.391742
1630932132915,-0.3172,0.870958,0.391254
1630932132925,-0.317871,0.871202,0.392352
1630932132934,-0.317322,0.871568,0.394853
1630932132944,-0.317322,0.870165,0.396317
1630932132954,-0.31799299999999997,0.869433,0.396073
1630932132963,-0.316712,0.871385,0.395158
1630932132973,-0.317261,0.868945,0.393328
1630932132982,-0.317322,0.867908,0.391071
1630932132992,-0.316346,0.86864,0.392962
1630932133002,-0.312991,0.868579,0.391864
1630932133011,-0.314028,0.868396,0.389729
1630932133021,-0.314577,0.868701,0.388509
1630932133030,-0.312625,0.86864,0.387106
1630932133040,-0.311527,0.868396,0.385886
1630932133050,-0.312076,0.870348,0.383202
1630932133059,-0.311344,0.867847,0.384788
1630932133069,-0.311344,0.86925,0.383507
1630932133078,-0.30872099999999997,0.869982,0.385276
1630932133088,-0.308599,0.870958,0.38552
1630932133098,-0.307928,0.873032,0.385093
1630932133107,-0.307562,0.8738859999999999,0.384788
1630932133117,-0.307928,0.873032,0.385825
1630932133126,-0.306159,0.869799,0.386374
1630932133136,-0.305793,0.869555,0.385642
1630932133146,-0.307623,0.86925,0.38491
1630932133155,-0.307318,0.868518,0.384849
1630932133165,-0.307318,0.868518,0.385459
1630932133174,-0.30658599999999997,0.86742,0.385276
1630932133184,-0.307318,0.867664,0.385703
1630932133194,-0.307684,0.865834,0.387411
1630932133203,-0.30744,0.86559,0.386984
1630932133213,-0.30811099999999997,0.8651019999999999,0.388509
1630932133222,-0.308294,0.865163,0.39100999999999997
1630932133232,-0.30805,0.864553,0.393389
1630932133242,-0.30872099999999997,0.866505,0.39375499999999997
1630932133251,-0.308477,0.86742,0.393511
1630932133261,-0.308294,0.863821,0.395036
1630932133270,-0.309575,0.863455,0.39466999999999997
1630932133280,-0.310917,0.866871,0.395646
1630932133290,-0.310856,0.867054,0.396683
1630932133299,-0.311954,0.865956,0.395463
1630932133309,-0.312198,0.866688,0.392718
1630932133318,-0.312442,0.87169,0.39222999999999997
1630932133328,-0.313235,0.87291,0.391498
1630932133338,-0.317322,0.868945,0.392413
1630932133347,-0.31982299999999997,0.8629669999999999,0.393023
1630932133357,-0.320311,0.860344,0.393999
1630932133366,-0.318847,0.86193,0.396622
1630932133376,-0.317139,0.865346,0.399184
1630932133386,-0.315553,0.870043,0.399123
1630932133395,-0.314882,0.869738,0.398208
1630932133405,-0.316285,0.866993,0.395341
1630932133414,-0.315736,0.864126,0.393206
1630932133424,-0.315309,0.863028,0.392291
1630932133434,-0.31537,0.862235,0.39222999999999997
1630932133443,-0.314882,0.863028,0.39222999999999997
1630932133453,-0.315919,0.862845,0.394609
1630932133462,-0.31598,0.862296,0.395524
1630932133472,-0.314577,0.863516,0.39436499999999997
1630932133482,-0.314272,0.862845,0.394121
1630932133491,-0.314211,0.861869,0.393694
1630932133501,-0.312564,0.8593069999999999,0.394792
1630932133510,-0.312503,0.85766,0.395402
1630932133520,-0.312747,0.857538,0.398025
1630932133530,-0.313174,0.8586969999999999,0.39772
1630932133539,-0.311283,0.857416,0.399184
1630932133549,-0.311039,0.856928,0.401868
1630932133558,-0.311405,0.85705,0.405223
1630932133568,-0.311954,0.8559519999999999,0.406138
1630932133578,-0.311832,0.8547319999999999,0.406565
1630932133587,-0.313723,0.8550369999999999,0.409127
1630932133597,-0.312869,0.854488,0.41138399999999997
1630932133606,-0.313052,0.855586,0.412482
1630932133616,-0.313235,0.858209,0.413702
1630932133626,-0.312869,0.85766,0.415776
1630932133635,-0.312381,0.858148,0.415471
1630932133645,-0.312503,0.857355,0.416325
1630932133654,-0.313357,0.8565619999999999,0.417972
1630932133664,-0.313113,0.85705,0.41870399999999997
1630932133674,-0.313601,0.856318,0.42029
1630932133683,-0.312808,0.8547319999999999,0.420717
1630932133693,-0.313784,0.853146,0.421388
1630932133702,-0.313784,0.8519869999999999,0.422303
1630932133712,-0.313052,0.851438,0.424072
1630932133722,-0.312015,0.8516819999999999,0.426268
1630932133731,-0.311344,0.851133,0.427549
1630932133741,-0.312015,0.851316,0.429135
1630932133750,-0.312198,0.851438,0.43041599999999997
1630932133760,-0.313235,0.852658,0.431148
1630932133770,-0.313113,0.8525969999999999,0.431575
1630932133779,-0.313296,0.851011,0.43188
1630932133789,-0.313662,0.848266,0.433588
1630932133798,-0.31354,0.847778,0.435174
1630932133808,-0.313784,0.847778,0.436699
1630932133818,-0.312869,0.8464969999999999,0.438346
1630932133827,-0.312442,0.845338,0.439017
1630932133837,-0.312503,0.842776,0.439505
1630932133846,-0.31293,0.842654,0.44042
1630932133856,-0.31232,0.842166,0.441701
1630932133866,-0.31024599999999997,0.842227,0.442372
1630932133875,-0.30994099999999997,0.842898,0.444507
1630932133885,-0.309392,0.841495,0.445178
1630932133894,-0.308599,0.840092,0.444873
1630932133904,-0.30872099999999997,0.83875,0.445971
1630932133914,-0.307257,0.838384,0.447313
1630932133923,-0.307013,0.838079,0.447984
1630932133933,-0.30628099999999997,0.838079,0.451034
1630932133942,-0.304878,0.837347,0.453291
1630932133952,-0.305,0.836005,0.454511
1630932133962,-0.30378,0.836127,0.455487
1630932133971,-0.302987,0.835151,0.456524
1630932133981,-0.302987,0.8346629999999999,0.457988
1630932133990,-0.302194,0.834846,0.459818
1630932134000,-0.301706,0.835395,0.461465
1630932134010,-0.301096,0.83448,0.46372199999999997
1630932134019,-0.300608,0.833992,0.465918
1630932134029,-0.300242,0.831491,0.467626
1630932134038,-0.300547,0.829539,0.46860199999999996
1630932134048,-0.300181,0.829905,0.469883
1630932134058,-0.300547,0.829966,0.471286
1630932134067,-0.298961,0.833016,0.47390899999999997
1630932134077,-0.297741,0.834541,0.474763
1630932134086,-0.296582,0.834297,0.47299399999999997
1630932134096,-0.29487399999999997,0.836066,0.47207899999999997
1630932134106,-0.292678,0.83814,0.472201
1630932134115,-0.291275,0.840092,0.47153
1630932134125,-0.291214,0.83631,0.47214
1630932134134,-0.292068,0.829356,0.47275
1630932134144,-0.290543,0.825574,0.476166
1630932134154,-0.287737,0.8267329999999999,0.479826
1630932134163,-0.285175,0.828807,0.48501099999999997
1630932134173,-0.281515,0.8300879999999999,0.488549
1630932134182,-0.27999,0.831247,0.490623
1630932134192,-0.278099,0.8285629999999999,0.491843
1630932134202,-0.275964,0.826672,0.49263599999999996
1630932134211,-0.273707,0.82533,0.493368
1630932134221,-0.271816,0.821304,0.495747
1630932134230,-0.27144999999999997,0.817278,0.499224
1630932134240,-0.269437,0.814472,0.50264
1630932134250,-0.267424,0.810873,0.506483
1630932134259,-0.265411,0.808555,0.510814
1630932134269,-0.26474,0.8078839999999999,0.515999
1630932134278,-0.262605,0.810141,0.519293
1630932134288,-0.26156799999999997,0.81252,0.5206959999999999
1630932134298,-0.261324,0.813008,0.5225259999999999
1630932134307,-0.26108,0.8133739999999999,0.5231359999999999
1630932134317,-0.261934,0.812703,0.524722
1630932134326,-0.26108,0.813252,0.524783
1630932134336,-0.260592,0.813435,0.52643
1630932134346,-0.259372,0.812947,0.529053
1630932134355,-0.25821299999999997,0.811666,0.531066
1630932134365,-0.25742,0.8103239999999999,0.531676
1630932134374,-0.257237,0.808311,0.534116
1630932134384,-0.257542,0.8042239999999999,0.534787
1630932134394,-0.25790799999999997,0.798856,0.537227
1630932134403,-0.257664,0.795867,0.540521
1630932134413,-0.255651,0.793122,0.544791
1630932134422,-0.253821,0.793244,0.547414
1630932134432,-0.252784,0.793122,0.548878
1630932134442,-0.251015,0.792817,0.549244
1630932134451,-0.249307,0.793976,0.550464
1630932134461,-0.249246,0.797331,0.55083
1630932134470,-0.247721,0.797026,0.552172
1630932134480,-0.245037,0.794952,0.551684
1630932134490,-0.244427,0.793671,0.550708
1630932134499,-0.243939,0.792146,0.551196
1630932134509,-0.243817,0.790194,0.550403
1630932134518,-0.244427,0.788059,0.549854
1630932134528,-0.243817,0.787876,0.551623
1630932134538,-0.245464,0.788547,0.553148
1630932134547,-0.245952,0.788303,0.556625
1630932134557,-0.245342,0.788242,0.559492
1630932134566,-0.244305,0.788669,0.562237
1630932134576,-0.242902,0.789523,0.564616
1630932134586,-0.242536,0.789767,0.566812
1630932134595,-0.242719,0.791292,0.56669
1630932134605,-0.242597,0.790804,0.567483
1630932134614,-0.242109,0.789218,0.567788
1630932134624,-0.242475,0.7878149999999999,0.567666
1630932134634,-0.242109,0.7862899999999999,0.567971
1630932134643,-0.24326799999999998,0.7856799999999999,0.5684589999999999
1630932134653,-0.242841,0.785131,0.567605
1630932134662,-0.243329,0.785314,0.569313
1630932134672,-0.241621,0.784582,0.569252
1630932134682,-0.240889,0.7850699999999999,0.5702889999999999
1630932134691,-0.241255,0.786656,0.570838
1630932134701,-0.24046199999999998,0.787083,0.571326
1630932134710,-0.239913,0.788547,0.570838
1630932134720,-0.239608,0.788974,0.570838
1630932134730,-0.23863199999999998,0.7875099999999999,0.56913
1630932134739,-0.24034,0.7862899999999999,0.569923
1630932134749,-0.239364,0.7862899999999999,0.570838
1630932134758,-0.23863199999999998,0.786107,0.571082
1630932134768,-0.240035,0.787937,0.570838
1630932134778,-0.238693,0.788242,0.571021
1630932134787,-0.234728,0.787388,0.576511
1630932134797,-0.235704,0.790743,0.575108
1630932134806,-0.234667,0.790438,0.576511
1630932134816,-0.233264,0.791353,0.576145
1630932134826,-0.23216599999999998,0.791231,0.57706
1630932134835,-0.232959,0.786046,0.576511
1630932134845,-0.23216599999999998,0.7850699999999999,0.574742
1630932134854,-0.22997,0.785741,0.578097
1630932134864,-0.228689,0.7841549999999999,0.575962
1630932134874,-0.22539499999999998,0.782874,0.576511
1630932134883,-0.223077,0.786412,0.577487
1630932134893,-0.222833,0.788791,0.576328
1630932134902,-0.221247,0.7911699999999999,0.574803
1630932134912,-0.220271,0.786961,0.574742
1630932134922,-0.220271,0.7801899999999999,0.574681
1630932134931,-0.220942,0.779031,0.575596
1630932134941,-0.22021,0.779092,0.576938
1630932134950,-0.217404,0.7817149999999999,0.580171
1630932134960,-0.21581799999999998,0.7841549999999999,0.582489
1630932134970,-0.216184,0.783179,0.58255
1630932134979,-0.21533,0.785741,0.581086
1630932134989,-0.2135,0.786473,0.580171
1630932134998,-0.212585,0.785802,0.577426
1630932135008,-0.21337799999999998,0.785802,0.57645
1630932135018,-0.21398799999999998,0.787998,0.572912
1630932135027,-0.214659,0.789706,0.5705939999999999
1630932135037,-0.21520799999999998,0.7899499999999999,0.569618
1630932135046,-0.215269,0.793183,0.568093
1630932135056,-0.215635,0.793244,0.56669
1630932135066,-0.213927,0.793793,0.566568
1630932135075,-0.213561,0.79422,0.5660189999999999
1630932135085,-0.213561,0.794586,0.56486
1630932135094,-0.212829,0.795074,0.564555
1630932135104,-0.213134,0.796904,0.564067
1630932135114,-0.211365,0.795623,0.563701
1630932135123,-0.211792,0.796355,0.562908
1630932135133,-0.212036,0.798246,0.56303
1630932135142,-0.211304,0.797819,0.562908
1630932135152,-0.211243,0.798795,0.562908
1630932135162,-0.210511,0.800442,0.562908
1630932135171,-0.211182,0.800808,0.56303
1630932135181,-0.21045,0.7999539999999999,0.563518
1630932135190,-0.20996199999999998,0.799283,0.563762
1630932135200,-0.208986,0.798185,0.564677
1630932135210,-0.207278,0.796233,0.565592
1630932135219,-0.206119,0.795867,0.56547
1630932135229,-0.205326,0.793732,0.565165
1630932135238,-0.204899,0.793549,0.565958
1630932135248,-0.202825,0.793732,0.566507
1630932135258,-0.200568,0.794586,0.565836
1630932135267,-0.200812,0.793061,0.567361
1630932135277,-0.20014099999999999,0.793061,0.567727
1630932135286,-0.198067,0.793488,0.568032
1630932135296,-0.198128,0.79483,0.568276
1630932135306,-0.198128,0.794708,0.569557
1630932135315,-0.198616,0.793976,0.569618
1630932135325,-0.19794499999999998,0.79361,0.569862
1630932135334,-0.197884,0.794281,0.571692
1630932135344,-0.197396,0.795318,0.573278
1630932135354,-0.197823,0.797819,0.572302
1630932135363,-0.198128,0.800686,0.5712039999999999
1630932135373,-0.198189,0.802211,0.572302
1630932135382,-0.199043,0.804468,0.572302
1630932135392,-0.199287,0.804651,0.570045
1630932135402,-0.200263,0.805932,0.569252
1630932135411,-0.20105599999999998,0.805383,0.5675439999999999
1630932135421,-0.201788,0.8072739999999999,0.5678489999999999
1630932135430,-0.20227599999999998,0.8094089999999999,0.567056
1630932135440,-0.20191,0.809348,0.5657139999999999
1630932135450,-0.201849,0.8091039999999999,0.56303
1630932135459,-0.202642,0.807518,0.560407
1630932135469,-0.202703,0.806176,0.557601
1630932135478,-0.203252,0.803248,0.553941
1630932135488,-0.203069,0.801113,0.551684
1630932135498,-0.204167,0.79849,0.549732
1630932135507,-0.203374,0.798856,0.550525
1630932135517,-0.204777,0.798063,0.552538
1630932135526,-0.204472,0.7984289999999999,0.553636
1630932135536,-0.204594,0.798673,0.554917
1630932135546,-0.20496,0.7999539999999999,0.556198
1630932135555,-0.205326,0.80093,0.558516
1630932135565,-0.20618,0.79971,0.560712
1630932135574,-0.206668,0.800198,0.560346
1630932135584,-0.204472,0.801418,0.562603
1630932135594,-0.20435,0.80032,0.563823
1630932135603,-0.20496,0.800137,0.564921
1630932135613,-0.203435,0.802028,0.5666289999999999
1630932135622,-0.204472,0.802638,0.565043
1630932135632,-0.20410599999999998,0.800442,0.5638839999999999
1630932135642,-0.205204,0.802333,0.563762
1630932135651,-0.204594,0.8048339999999999,0.56486
1630932135661,-0.203374,0.803858,0.565348
1630932135670,-0.203679,0.800137,0.564128
1630932135680,-0.205204,0.795318,0.562725
1630932135690,-0.204777,0.792268,0.56425
1630932135699,-0.204045,0.793122,0.567422
1630932135709,-0.203252,0.79605,0.56974
1630932135718,-0.203008,0.797941,0.571448
1630932135728,-0.201605,0.7987339999999999,0.57157
1630932135738,-0.199409,0.799832,0.5721189999999999
1630932135747,-0.197884,0.800381,0.572241
1630932135757,-0.19641999999999998,0.800076,0.571326
1630932135766,-0.19702999999999998,0.798978,0.570228
1630932135776,-0.198616,0.796599,0.570106
1630932135786,-0.198494,0.796111,0.57157
1630932135795,-0.199226,0.796477,0.573156
1630932135805,-0.198555,0.797575,0.572485
1630932135814,-0.198677,0.799405,0.571082
1630932135824,-0.198921,0.799588,0.569191
1630932135834,-0.198738,0.799588,0.567727
1630932135843,-0.198799,0.800686,0.56669
1630932135853,-0.200812,0.800381,0.566751
1630932135862,-0.199958,0.799893,0.566812
1630932135872,-0.19947,0.79849,0.5673
1630932135882,-0.20008,0.798795,0.566263
1630932135891,-0.20075099999999999,0.797941,0.567056
1630932135901,-0.199287,0.799588,0.567727
1630932135910,-0.199409,0.799832,0.5684589999999999
1630932135920,-0.199958,0.798856,0.5681539999999999
1630932135930,-0.201605,0.797331,0.568581
1630932135939,-0.20069,0.798551,0.568276
1630932135949,-0.20075099999999999,0.799161,0.568642
1630932135958,-0.200995,0.798673,0.567666
1630932135968,-0.20069,0.800015,0.568215
1630932135978,-0.20044599999999999,0.801723,0.5672389999999999
1630932135987,-0.200873,0.8005639999999999,0.567056
1630932135997,-0.201117,0.801601,0.565348
1630932136006,-0.201422,0.801296,0.564982
1630932136016,-0.199958,0.8023939999999999,0.563701
1630932136026,-0.199714,0.801967,0.563335
1630932136035,-0.200263,0.800991,0.562786
1630932136045,-0.20105599999999998,0.7999539999999999,0.562481
1630932136054,-0.200629,0.799466,0.561688
1630932136064,-0.201422,0.798856,0.562603
1630932136074,-0.201544,0.798368,0.56303
1630932136083,-0.200995,0.799893,0.5647989999999999
1630932136093,-0.20044599999999999,0.800198,0.565287
1630932136102,-0.199714,0.8002589999999999,0.565531
1630932136112,-0.201239,0.7999539999999999,0.5663239999999999
1630932136122,-0.201178,0.799893,0.564372
1630932136131,-0.20069,0.798612,0.564372
1630932136141,-0.201849,0.798551,0.563213
1630932136150,-0.20166599999999998,0.799222,0.56364
1630932136160,-0.20288599999999998,0.799466,0.563945
1630932136170,-0.202642,0.798246,0.564006
1630932136179,-0.203679,0.79849,0.5632739999999999
1630932136189,-0.203557,0.8011739999999999,0.564311
1630932136198,-0.203862,0.801906,0.564433
1630932136208,-0.203923,0.803492,0.564982
1630932136218,-0.20374,0.8060539999999999,0.564555
1630932136227,-0.204472,0.805871,0.563823
1630932136237,-0.20496,0.80398,0.5612
1630932136246,-0.205021,0.803553,0.560895
1630932136256,-0.202459,0.803553,0.560468
1630932136266,-0.202764,0.8033089999999999,0.559858
1630932136275,-0.20191,0.8048339999999999,0.559736
1630932136285,-0.202825,0.803858,0.559248
1630932136294,-0.202154,0.8023939999999999,0.559614
1630932136304,-0.20166599999999998,0.80276,0.560346
1630932136314,-0.202398,0.803431,0.5617489999999999
1630932136323,-0.202093,0.80337,0.561383
1630932136333,-0.201605,0.802577,0.5602239999999999
1630932136342,-0.2013,0.802821,0.5612
1630932136352,-0.20191,0.802211,0.560468
1630932136362,-0.202032,0.8036139999999999,0.561505
1630932136371,-0.201544,0.806237,0.562298
1630932136381,-0.202154,0.805322,0.560346
1630932136390,-0.20349599999999998,0.80215,0.557662
1630932136400,-0.203252,0.807701,0.556137
1630932136410,-0.20227599999999998,0.811666,0.555649
1630932136419,-0.202154,0.810141,0.554124
1630932136429,-0.205204,0.8048339999999999,0.552904
1630932136438,-0.207888,0.799161,0.553514
1630932136448,-0.208803,0.79727,0.555771
1630932136458,-0.207095,0.800808,0.558821
1630932136467,-0.204411,0.805566,0.560468
1630932136477,-0.204045,0.808921,0.561932
1630932136486,-0.204228,0.8097139999999999,0.561932
1630932136496,-0.203984,0.807945,0.557418
1630932136506,-0.202154,0.80642,0.555222
1630932136515,-0.202642,0.8052,0.554429
1630932136525,-0.202825,0.804407,0.55388
1630932136534,-0.203862,0.804956,0.55388
1630932136544,-0.20435,0.805566,0.555039
1630932136554,-0.203862,0.807152,0.554368
1630932136563,-0.203008,0.809165,0.554063
1630932136573,-0.202398,0.809836,0.55327
1630932136582,-0.202032,0.811178,0.552111
1630932136592,-0.202398,0.810202,0.551806
1630932136602,-0.20349599999999998,0.809043,0.551074
1630932136611,-0.204228,0.807152,0.552416
1630932136621,-0.20313,0.806786,0.553026
1630932136630,-0.202398,0.805505,0.551867
1630932136640,-0.202398,0.807396,0.553392
1630932136650,-0.20191,0.808372,0.553819
1630932136659,-0.20166599999999998,0.808006,0.552538
1630932136669,-0.203435,0.8054439999999999,0.554002
1630932136678,-0.204533,0.804712,0.554368
1630932136688,-0.203984,0.80581,0.555588
1630932136698,-0.204716,0.806725,0.556381
1630932136707,-0.204411,0.807457,0.557662
1630932136717,-0.203984,0.8100189999999999,0.557357
1630932136726,-0.203374,0.809348,0.557052
1630932136736,-0.20374,0.809287,0.556564
1630932136746,-0.203862,0.8091039999999999,0.5551
1630932136755,-0.203679,0.8078839999999999,0.554795
1630932136765,-0.20435,0.8091039999999999,0.554734
1630932136774,-0.204228,0.808433,0.553941
1630932136784,-0.204228,0.8084939999999999,0.553636
1630932136794,-0.20435,0.8078839999999999,0.553331
1630932136803,-0.205082,0.808677,0.552782
1630932136813,-0.20557,0.8075789999999999,0.552904
1630932136822,-0.206058,0.807701,0.553453
1630932136832,-0.205631,0.807701,0.554307
1630932136842,-0.206058,0.8066639999999999,0.554124
1630932136851,-0.206119,0.8069689999999999,0.553819
1630932136861,-0.205326,0.80764,0.554002
1630932136870,-0.20599699999999999,0.808372,0.553941
1630932136880,-0.205082,0.806725,0.554429
1630932136890,-0.20599699999999999,0.80764,0.554307
1630932136899,-0.205753,0.80825,0.553087
1630932136909,-0.20599699999999999,0.807518,0.554124
1630932136918,-0.20782699999999998,0.8072739999999999,0.55388
1630932136928,-0.20618,0.807701,0.553209
1630932136938,-0.205936,0.807396,0.551562
1630932136947,-0.206851,0.808372,0.551806
1630932136957,-0.20660699999999999,0.808738,0.551562
1630932136966,-0.20691199999999998,0.809531,0.551074
1630932136976,-0.20557,0.809348,0.550403
1630932136986,-0.206119,0.809836,0.551074
1630932136995,-0.205387,0.809592,0.551318
1630932137005,-0.20557,0.808921,0.550403
1630932137014,-0.20569199999999999,0.809165,0.549244
1630932137024,-0.205204,0.80886,0.548329
1630932137034,-0.205204,0.80886,0.548695
1630932137043,-0.204655,0.8094089999999999,0.548146
1630932137053,-0.20435,0.8097139999999999,0.549244
1630932137062,-0.203984,0.809653,0.549915
1630932137072,-0.203862,0.809226,0.550891
1630932137082,-0.204655,0.809531,0.550952
1630932137091,-0.204411,0.810873,0.550403
1630932137101,-0.20410599999999998,0.811666,0.551318
1630932137110,-0.203435,0.8109339999999999,0.548939
1630932137120,-0.20374,0.809287,0.549183
1630932137130,-0.205143,0.807396,0.549
1630932137139,-0.204716,0.808555,0.548512
1630932137149,-0.203435,0.811788,0.551379
1630932137158,-0.20435,0.811788,0.550342
1630932137168,-0.204777,0.8113,0.546804
1630932137178,-0.204716,0.814838,0.544547
1630932137187,-0.203862,0.817705,0.5456449999999999
1630932137197,-0.204411,0.816058,0.545462
1630932137206,-0.20630199999999999,0.8115439999999999,0.545706
1630932137216,-0.208193,0.804895,0.546011
1630932137226,-0.209291,0.803858,0.5462549999999999
1630932137235,-0.208193,0.808311,0.549793
1630932137245,-0.205387,0.8133739999999999,0.55144
1630932137254,-0.204472,0.8164239999999999,0.553087
1630932137264,-0.204777,0.816546,0.552477
1630932137274,-0.205631,0.814411,0.551196
1630932137283,-0.20630199999999999,0.814045,0.549366
1630932137293,-0.207278,0.8118489999999999,0.547048
1630932137302,-0.207339,0.811056,0.545462
1630932137312,-0.20721699999999998,0.812398,0.5453399999999999
1630932137322,-0.206973,0.812398,0.544852
1630932137331,-0.20679,0.813923,0.545462
1630932137341,-0.206424,0.8148989999999999,0.544913
1630932137350,-0.20630199999999999,0.816302,0.5441199999999999
1630932137360,-0.20557,0.816302,0.5425949999999999
1630932137370,-0.205875,0.81557,0.540948
1630932137379,-0.205936,0.8133739999999999,0.541009
1630932137389,-0.206668,0.810812,0.541924
1630932137398,-0.206485,0.811666,0.5422899999999999
1630932137408,-0.20557,0.812398,0.5425949999999999
1630932137418,-0.205387,0.8142889999999999,0.543327
1630932137427,-0.205326,0.8142889999999999,0.543266
1630932137437,-0.205204,0.814716,0.542412
1630932137446,-0.205204,0.8130689999999999,0.542412
1630932137456,-0.20721699999999998,0.810385,0.543449
1630932137466,-0.207339,0.811056,0.544303
1630932137475,-0.206668,0.811727,0.5453399999999999
1630932137485,-0.20618,0.811788,0.545828
1630932137494,-0.20679,0.812276,0.546194
1630932137504,-0.206485,0.812825,0.5459499999999999
1630932137514,-0.206424,0.8127639999999999,0.5456449999999999
1630932137523,-0.205814,0.813618,0.545767
1630932137533,-0.205631,0.814167,0.545157
1630932137542,-0.205265,0.814533,0.544059
1630932137552,-0.205143,0.814167,0.5435099999999999
1630932137562,-0.20496,0.8133739999999999,0.543083
1630932137571,-0.206485,0.81496,0.542839
1630932137581,-0.207156,0.816546,0.542046
1630932137590,-0.206546,0.81618,0.541314
