timestamp,ax,ay,az
1630932865282,-0.260775,0.275171,-0.9067649999999999
1630932865291,-0.259311,0.277489,-0.911157
1630932865301,-0.26169,0.282918,-0.9122549999999999
1630932865310,-0.262483,0.283284,-0.912072
1630932865320,-0.262483,0.283589,-0.912804
1630932865330,-0.261812,0.277184,-0.9131699999999999
1630932865339,-0.261385,0.273402,-0.910974
1630932865349,-0.262361,0.271389,-0.907619
1630932865358,-0.26474,0.266936,-0.9040199999999999
1630932865368,-0.26657,0.262056,-0.902068
1630932865378,-0.269681,0.257847,-0.899384
1630932865387,-0.274683,0.257115,-0.896273
1630932865397,-0.283894,0.260226,-0.894016
1630932865406,-0.289201,0.25882299999999997,-0.88999
1630932865416,-0.294935,0.256017,-0.887977
1630932865426,-0.299205,0.256322,-0.888404
1630932865435,-0.301462,0.252418,-0.884134
1630932865445,-0.305732,0.252601,-0.883219
1630932865454,-0.31049,0.251686,-0.883585
1630932865464,-0.314699,0.2501,-0.884683
1630932865474,-0.320616,0.247965,-0.8879159999999999
1630932865483,-0.327204,0.246562,-0.891698
1630932865493,-0.329766,0.24631799999999998,-0.893894
1630932865502,-0.331474,0.243024,-0.894321
1630932865512,-0.334341,0.238815,-0.899262
1630932865522,-0.335866,0.2379,-0.9012749999999999
1630932865531,-0.338001,0.231068,-0.901214
1630932865541,-0.341234,0.224968,-0.902739
1630932865550,-0.341295,0.218441,-0.902861
1630932865560,-0.347395,0.216062,-0.9031049999999999
1630932865570,-0.349408,0.21228,-0.906399
1630932865579,-0.351726,0.209474,-0.909327
1630932113005,-0.545584,0.551562,-0.61183
1630932113015,-0.546194,0.550281,-0.6128669999999999
1630932113024,-0.5459499999999999,0.549366,-0.614331
1630932113034,-0.543937,0.549244,-0.6156119999999999
1630932113044,-0.544974,0.548573,-0.615368
1630932113053,-0.544974,0.548756,-0.614819
1630932113063,-0.5435099999999999,0.549549,-0.61427
1630932113072,-0.542473,0.549915,-0.61488
1630932113082,-0.542412,0.550647,-0.6146969999999999
1630932113092,-0.542229,0.551135,-0.614026
1630932113101,-0.5419849999999999,0.550464,-0.6131719999999999
1630932113111,-0.541131,0.550647,-0.611403
1630932113120,-0.542717,0.549915,-0.611708
1630932113130,-0.541314,0.549488,-0.612684
1630932113140,-0.541741,0.550464,-0.612806
1630932113149,-0.543327,0.552599,-0.612074
1630932113159,-0.543449,0.554002,-0.6107319999999999
1630932113168,-0.545279,0.552599,-0.609146
1630932113178,-0.545523,0.553575,-0.608719
1630932113188,-0.545096,0.554795,-0.60939
1630932113197,-0.546682,0.55388,-0.610061
1630932113207,-0.547231,0.552965,-0.609573
1630932113216,-0.545828,0.553697,-0.607926
1630932113226,-0.547292,0.553575,-0.606462
1630932113236,-0.548634,0.554307,-0.606401
1630932113245,-0.549671,0.556076,-0.60756
1630932113255,-0.551013,0.560102,-0.610976
1630932113264,-0.550769,0.562908,-0.61244
1630932113274,-0.551074,0.560407,-0.614819
1630932113284,-0.550464,0.554185,-0.616344
1630932113293,-0.551928,0.549549,-0.614453
1630932113303,-0.553148,0.544486,-0.610976
1630932113312,-0.553453,0.543388,-0.6098169999999999
1630932113322,-0.551928,0.5413749999999999,-0.609878
1630932113332,-0.553148,0.5389349999999999,-0.608841
1630932113341,-0.55205,0.5386299999999999,-0.609329
1630932113351,-0.55083,0.535458,-0.609695
1630932113360,-0.55388,0.524844,-0.6128669999999999
1630932113370,-0.552843,0.511973,-0.620248
1630932113380,-0.549427,0.498004,-0.628117
1630932113389,-0.5462549999999999,0.487512,-0.6353759999999999
1630932113399,-0.543693,0.47604399999999997,-0.641232
1630932113408,-0.542168,0.473238,-0.649772
1630932113418,-0.540277,0.474458,-0.6560549999999999
1630932113428,-0.541558,0.479155,-0.662521
1630932113437,-0.5462549999999999,0.48312,-0.667218
1630932113447,-0.55144,0.48861,-0.670146
1630932113456,-0.556747,0.49227,-0.672037
1630932113466,-0.562786,0.492392,-0.672342
1630932113476,-0.569496,0.490989,-0.670756
1630932113485,-0.577731,0.488732,-0.666364
1630932113495,-0.5879179999999999,0.490135,-0.657763
1630932113504,-0.594201,0.488122,-0.64599
1630932113514,-0.5967629999999999,0.485865,-0.6387309999999999
1630932113524,-0.598959,0.485072,-0.634034
1630932113533,-0.596824,0.485072,-0.633607
1630932113543,-0.5964579999999999,0.48617,-0.638243
1630932113552,-0.596336,0.487817,-0.64477
1630932113562,-0.599935,0.494161,-0.6430009999999999
1630932113572,-0.602375,0.497882,-0.638487
1630932113581,-0.601277,0.497882,-0.6362909999999999
1630932113591,-0.597434,0.49288,-0.6405609999999999
1630932113600,-0.5934079999999999,0.48531599999999997,-0.645807
1630932113610,-0.591395,0.478362,-0.654896
1630932113620,-0.588589,0.4697,-0.6630699999999999
1630932113629,-0.585844,0.46067199999999997,-0.673684
1630932113639,-0.584746,0.451156,-0.682346
1630932113648,-0.582428,0.443775,-0.6904589999999999
1630932113658,-0.579805,0.43676,-0.697352
1630932113668,-0.576572,0.43102599999999996,-0.702171
1630932113677,-0.573888,0.42767099999999997,-0.708027
1630932113687,-0.569862,0.42492599999999997,-0.7117479999999999
1630932113696,-0.5705939999999999,0.42340099999999997,-0.712114
1630932113706,-0.568581,0.419436,-0.714066
1630932113716,-0.565592,0.41297,-0.7160179999999999
1630932113725,-0.564067,0.406565,-0.716079
1630932113735,-0.560285,0.401868,-0.717177
1630932113744,-0.555893,0.396012,-0.719739
1630932113754,-0.553209,0.391132,-0.724619
1630932113764,-0.548878,0.38613,-0.7275469999999999
1630932113773,-0.545889,0.382104,-0.73139
1630932113783,-0.542656,0.379176,-0.735599
1630932113792,-0.538386,0.374723,-0.739808
1630932113802,-0.534909,0.370819,-0.7431019999999999
1630932113812,-0.532896,0.365329,-0.743834
1630932113821,-0.529419,0.362401,-0.744993
1630932113831,-0.527345,0.359351,-0.743346
1630932113840,-0.52582,0.35404399999999997,-0.744017
1630932113850,-0.523258,0.35251899999999997,-0.745176
1630932113860,-0.521062,0.352275,-0.747555
1630932113869,-0.5185609999999999,0.352031,-0.751642
1630932113879,-0.518134,0.35075,-0.755485
1630932113888,-0.516792,0.350689,-0.758535
1630932113898,-0.516609,0.349774,-0.759938
1630932113908,-0.51545,0.349103,-0.76128
1630932113917,-0.514413,0.345748,-0.765245
1630932113927,-0.513254,0.34282,-0.768295
1630932113936,-0.51118,0.339831,-0.770552
1630932113946,-0.509411,0.339221,-0.773358
1630932113956,-0.507337,0.338367,-0.776408
1630932113965,-0.50691,0.339831,-0.777506
1630932113975,-0.506422,0.338916,-0.779824
1630932113984,-0.506117,0.338367,-0.781654
1630932113994,-0.506605,0.336476,-0.782508
1630932114004,-0.5063,0.335866,-0.783118
1630932114013,-0.50447,0.3355,-0.783911
1630932114023,-0.504165,0.334524,-0.7853749999999999
1630932114032,-0.502884,0.334524,-0.787754
1630932114042,-0.501725,0.334158,-0.788974
1630932114052,-0.501359,0.334097,-0.790011
1630932114061,-0.499285,0.33458499999999997,-0.791231
1630932114071,-0.498919,0.334402,-0.791719
1630932114080,-0.498126,0.333853,-0.793
1630932114090,-0.497821,0.333731,-0.791963
1630932114100,-0.496845,0.334036,-0.791841
1630932114109,-0.496601,0.333548,-0.793244
1630932114119,-0.495991,0.334524,-0.794281
1630932114128,-0.493917,0.334036,-0.795196
1630932114138,-0.492453,0.335073,-0.795745
1630932114148,-0.49324599999999996,0.335317,-0.793854
1630932114157,-0.49263599999999996,0.335012,-0.794708
1630932114167,-0.491477,0.335317,-0.794586
1630932114176,-0.490135,0.336354,-0.794403
1630932114186,-0.489098,0.337025,-0.793976
1630932114196,-0.486719,0.337391,-0.792024
1630932114205,-0.48623099999999997,0.337696,-0.7893399999999999
1630932114215,-0.487207,0.338794,-0.789157
1630932114224,-0.485377,0.342881,-0.789706
1630932114234,-0.484157,0.343735,-0.7914749999999999
1630932114244,-0.483059,0.34526,-0.792207
1630932114253,-0.483608,0.346724,-0.791109
1630932114263,-0.483425,0.345199,-0.793366
1630932114272,-0.482815,0.34343,-0.79483
1630932114282,-0.48257099999999997,0.341173,-0.795867
1630932114292,-0.48122899999999996,0.34099,-0.795074
1630932114301,-0.481046,0.34038,-0.79361
1630932114311,-0.479887,0.339404,-0.793549
1630932114320,-0.479338,0.337208,-0.792268
1630932114330,-0.477996,0.335134,-0.7908649999999999
1630932114340,-0.477325,0.335866,-0.791536
1630932114349,-0.47604399999999997,0.336842,-0.794281
1630932114359,-0.476837,0.336781,-0.797087
1630932114368,-0.47634899999999997,0.335439,-0.798551
1630932114378,-0.47695899999999997,0.335256,-0.799527
1630932114388,-0.478362,0.33488999999999997,-0.798673
1630932114397,-0.478545,0.33427999999999997,-0.795806
1630932114407,-0.478362,0.333548,-0.795623
1630932114416,-0.47878899999999996,0.333792,-0.795135
1630932114426,-0.477691,0.333609,-0.795257
1630932114436,-0.477508,0.334219,-0.797148
1630932114445,-0.47763,0.3355,-0.798063
1630932114455,-0.47756899999999997,0.336659,-0.799161
1630932114464,-0.477691,0.338123,-0.801052
1630932114474,-0.47519,0.337452,-0.802028
1630932114484,-0.47604399999999997,0.3355,-0.800076
1630932114493,-0.47573899999999997,0.333853,-0.800747
1630932114503,-0.473177,0.334036,-0.801662
1630932114512,-0.47458,0.332938,-0.800442
1630932114522,-0.47458,0.333609,-0.800442
1630932114532,-0.47299399999999997,0.334463,-0.80154
1630932114541,-0.472262,0.335927,-0.80276
1630932114551,-0.471896,0.336415,-0.804712
1630932114560,-0.472811,0.33611,-0.80459
1630932114570,-0.47238399999999997,0.337513,-0.8054439999999999
1630932114580,-0.472628,0.337452,-0.8063589999999999
1630932114589,-0.47177399999999997,0.336232,-0.8054439999999999
1630932114599,-0.471286,0.335744,-0.805322
1630932114608,-0.471652,0.334219,-0.805627
1630932114618,-0.472018,0.333853,-0.8052
1630932114628,-0.47092,0.332328,-0.8066639999999999
1630932114637,-0.470249,0.33214499999999997,-0.807518
1630932114647,-0.470798,0.33214499999999997,-0.807823
1630932114656,-0.470676,0.334158,-0.808128
1630932114666,-0.470005,0.335683,-0.808311
1630932114676,-0.468968,0.336903,-0.807762
1630932114685,-0.469578,0.336598,-0.807213
1630932114695,-0.46860199999999996,0.337452,-0.8052
1630932114704,-0.468968,0.337513,-0.805566
1630932114714,-0.46738199999999996,0.338672,-0.805932
1630932114724,-0.46726,0.337208,-0.8051389999999999
1630932114733,-0.46707699999999996,0.338306,-0.804346
1630932114743,-0.466833,0.339404,-0.803675
1630932114752,-0.466894,0.340258,-0.8042239999999999
1630932114762,-0.46604,0.338611,-0.8039189999999999
1630932114772,-0.466589,0.339038,-0.802882
1630932114781,-0.466833,0.338428,-0.8026989999999999
1630932114791,-0.466589,0.338062,-0.802455
1630932114800,-0.465674,0.338367,-0.8026989999999999
1630932114810,-0.465979,0.339221,-0.802211
1630932114820,-0.466284,0.339282,-0.80215
1630932114829,-0.46616199999999997,0.339526,-0.801906
1630932114839,-0.46677199999999996,0.33958699999999997,-0.802638
1630932114848,-0.466406,0.339648,-0.80276
1630932114858,-0.467321,0.340014,-0.8033089999999999
1630932114868,-0.466345,0.339343,-0.8033089999999999
1630932114877,-0.467748,0.339526,-0.802211
1630932114887,-0.467321,0.339282,-0.803187
1630932114896,-0.468053,0.339343,-0.80276
1630932114906,-0.468724,0.339343,-0.803065
1630932114916,-0.46890699999999996,0.340258,-0.801906
1630932114925,-0.468846,0.340746,-0.803492
1630932114935,-0.468785,0.340136,-0.801723
1630932114944,-0.469944,0.341173,-0.8026989999999999
1630932114954,-0.469944,0.341539,-0.802455
1630932114964,-0.469639,0.34233199999999997,-0.801723
1630932114973,-0.470127,0.34324699999999997,-0.799527
1630932114983,-0.470371,0.345748,-0.798856
1630932114992,-0.469639,0.346968,-0.798002
1630932115002,-0.471652,0.34648,-0.797514
1630932115012,-0.470676,0.347273,-0.797819
1630932115021,-0.470676,0.34721199999999997,-0.798856
1630932115031,-0.47116399999999997,0.346236,-0.799222
1630932115040,-0.4697,0.345626,-0.799893
1630932115050,-0.469822,0.346663,-0.799588
1630932115060,-0.47092,0.347334,-0.798978
1630932115069,-0.470798,0.347639,-0.800076
1630932115079,-0.470737,0.34690699999999997,-0.800991
1630932115088,-0.470005,0.345931,-0.801418
1630932115098,-0.470127,0.34538199999999997,-0.800076
1630932115108,-0.470371,0.34538199999999997,-0.799832
1630932115117,-0.470554,0.345199,-0.800076
1630932115127,-0.470127,0.344406,-0.801235
1630932115136,-0.470371,0.344345,-0.8014789999999999
1630932115146,-0.471042,0.345504,-0.801601
1630932115156,-0.471591,0.345199,-0.803431
1630932115165,-0.471042,0.344345,-0.803675
1630932115175,-0.471408,0.343918,-0.803187
1630932115184,-0.471896,0.343613,-0.803248
1630932115194,-0.470676,0.34465,-0.801967
1630932115204,-0.470798,0.343979,-0.80398
1630932115213,-0.469822,0.34446699999999997,-0.8039189999999999
1630932115223,-0.468724,0.345626,-0.800503
1630932115232,-0.470737,0.347151,-0.799832
1630932115242,-0.470981,0.349286,-0.8011739999999999
1630932115252,-0.469456,0.351787,-0.801906
1630932115261,-0.467626,0.35373899999999997,-0.803736
1630932115271,-0.469151,0.355325,-0.803187
1630932115280,-0.469029,0.353861,-0.80337
1630932115290,-0.46890699999999996,0.35282399999999997,-0.804468
1630932115300,-0.4697,0.35075,-0.804102
1630932115309,-0.469395,0.349164,-0.802882
1630932115319,-0.468663,0.349164,-0.802638
1630932115328,-0.467138,0.34709,-0.801418
1630932115338,-0.46482,0.344833,-0.800076
1630932115348,-0.465125,0.344284,-0.798246
1630932115357,-0.463844,0.34477199999999997,-0.7984289999999999
1630932115367,-0.464698,0.346236,-0.801052
1630932115376,-0.464759,0.348066,-0.802638
1630932115386,-0.465186,0.348249,-0.803797
1630932115396,-0.465674,0.347761,-0.804651
1630932115405,-0.46555199999999997,0.348188,-0.804407
1630932115415,-0.466589,0.347029,-0.801723
1630932115424,-0.466345,0.347456,-0.7993439999999999
1630932115434,-0.467809,0.348554,-0.799283
1630932115444,-0.468358,0.349042,-0.798124
1630932115453,-0.468968,0.350018,-0.7990389999999999
1630932115463,-0.470188,0.35221399999999997,-0.800686
1630932115472,-0.470554,0.354227,-0.802638
1630932115482,-0.47092,0.355386,-0.8033089999999999
1630932115492,-0.469822,0.35624,-0.802882
1630932115501,-0.469517,0.35746,-0.800442
1630932115511,-0.4697,0.35746,-0.799588
1630932115520,-0.468846,0.35892399999999997,-0.7993439999999999
1630932115530,-0.46860199999999996,0.360205,-0.798978
1630932115540,-0.46890699999999996,0.360876,-0.799222
1630932115549,-0.46829699999999996,0.363011,-0.801418
1630932115559,-0.466589,0.363682,-0.804163
1630932115568,-0.46555199999999997,0.364719,-0.804895
1630932115578,-0.46494199999999997,0.36539,-0.8063589999999999
1630932115588,-0.46421,0.366,-0.8072739999999999
1630932115597,-0.462746,0.365817,-0.807823
1630932115607,-0.461648,0.365634,-0.808311
1630932115616,-0.46006199999999997,0.36478,-0.811117
1630932115626,-0.459574,0.36478,-0.812093
1630932115636,-0.459086,0.365573,-0.8121539999999999
1630932115645,-0.458598,0.366183,-0.8121539999999999
1630932115655,-0.457866,0.367769,-0.812886
1630932115664,-0.455914,0.370514,-0.813252
1630932115674,-0.454938,0.373198,-0.813923
1630932115684,-0.45200999999999997,0.376187,-0.813252
1630932115693,-0.45048499999999997,0.375394,-0.81191
1630932115703,-0.451644,0.374479,-0.812703
1630932115712,-0.449204,0.375272,-0.8136789999999999
1630932115722,-0.447618,0.377285,-0.815692
1630932115732,-0.446764,0.381189,-0.817156
1630932115741,-0.444751,0.38491,-0.815936
1630932115751,-0.44334799999999996,0.390278,-0.815387
1630932115760,-0.44029799999999997,0.396866,-0.815082
1630932115770,-0.43602799999999997,0.40443,-0.816729
1630932115780,-0.432978,0.40931,-0.81618
1630932115789,-0.43005,0.414861,-0.81557
1630932115799,-0.422608,0.417362,-0.816363
1630932115808,-0.415898,0.41846,-0.815265
1630932115818,-0.408151,0.418765,-0.814106
1630932115828,-0.401685,0.419253,-0.813862
1630932115837,-0.394914,0.418216,-0.813252
1630932115847,-0.386801,0.417728,-0.812947
1630932115856,-0.378322,0.41931399999999996,-0.8130689999999999
1630932115866,-0.37033099999999997,0.421571,-0.81313
1630932115876,-0.364292,0.422425,-0.8130689999999999
1630932115885,-0.355813,0.421937,-0.809348
1630932115895,-0.347883,0.42431599999999997,-0.8097139999999999
1630932115904,-0.339831,0.427732,-0.8106289999999999
1630932115914,-0.330376,0.431453,-0.8124589999999999
1630932115924,-0.32165299999999997,0.430477,-0.811788
1630932115933,-0.312808,0.433222,-0.813557
1630932115943,-0.302743,0.438041,-0.816912
1630932115952,-0.290055,0.440725,-0.818864
1630932115962,-0.279075,0.442494,-0.81984
1630932115972,-0.267668,0.44243299999999997,-0.819291
1630932115981,-0.256749,0.44273799999999996,-0.820206
1630932115991,-0.245159,0.448289,-0.823012
1630932116000,-0.235216,0.455548,-0.826184
1630932116010,-0.226127,0.46189199999999997,-0.826001
1630932116020,-0.21984399999999998,0.464759,-0.823561
1630932116029,-0.210572,0.465796,-0.821487
1630932116039,-0.200812,0.465979,-0.821609
1630932116048,-0.19154,0.468114,-0.816058
1630932116058,-0.18501299999999998,0.47336,-0.813008
1630932116068,-0.17946199999999998,0.47695899999999997,-0.816485
1630932116077,-0.17019,0.48806099999999997,-0.812886
1630932116087,-0.170922,0.496235,-0.8100189999999999
1630932116096,-0.16897,0.495747,-0.812398
1630932116106,-0.166103,0.49166,-0.816302
1630932116116,-0.164883,0.485133,-0.821182
1630932116125,-0.164517,0.479277,-0.831735
1630932116135,-0.163419,0.468419,-0.842532
1630932116144,-0.162504,0.459635,-0.847168
1630932116154,-0.165859,0.45444999999999997,-0.8477169999999999
1630932116164,-0.168787,0.450851,-0.8486319999999999
1630932116173,-0.171715,0.451644,-0.846558
1630932116183,-0.17763199999999998,0.45322999999999997,-0.843325
1630932116192,-0.18226799999999999,0.456097,-0.841617
1630932116202,-0.188368,0.459574,-0.839482
1630932116212,-0.191845,0.462746,-0.836981
1630932116221,-0.197823,0.465491,-0.833626
1630932116231,-0.203862,0.467016,-0.8306979999999999
1630932116240,-0.208498,0.467443,-0.829722
1630932116250,-0.213134,0.469395,-0.83204
1630932116260,-0.217526,0.470554,-0.83448
1630932116269,-0.21984399999999998,0.475007,-0.838872
1630932116279,-0.223199,0.481656,-0.84485
1630932116288,-0.224846,0.485377,-0.846558
1630932116298,-0.22783499999999998,0.485438,-0.842532
1630932116308,-0.229116,0.483303,-0.8395429999999999
1630932116317,-0.232654,0.482754,-0.833687
1630932116327,-0.23607,0.481961,-0.82533
1630932116336,-0.235948,0.482693,-0.816912
1630932116346,-0.240645,0.49050099999999996,-0.814167
1630932116356,-0.245769,0.49715,-0.816058
1630932116365,-0.249246,0.503189,-0.818925
1630932116375,-0.253333,0.50508,-0.8164239999999999
1630932116384,-0.259555,0.501847,-0.812398
1630932116394,-0.26657,0.49855299999999997,-0.809287
1630932116404,-0.275049,0.496052,-0.8100189999999999
1630932116413,-0.279929,0.493978,-0.8115439999999999
1630932116423,-0.285541,0.491477,-0.810202
1630932116432,-0.293837,0.487634,-0.802943
1630932116442,-0.301706,0.48409599999999997,-0.797819
1630932116452,-0.30719599999999997,0.480192,-0.79239
1630932116461,-0.310856,0.475617,-0.788242
1630932116471,-0.31537,0.468785,-0.7844599999999999
1630932116480,-0.31707799999999997,0.458537,-0.783484
1630932116490,-0.319091,0.453108,-0.786656
1630932116500,-0.31921299999999997,0.449448,-0.790438
1630932116509,-0.32226299999999997,0.450119,-0.79605
1630932116519,-0.328973,0.452376,-0.802028
1630932116528,-0.334219,0.453718,-0.807823
1630932116538,-0.341844,0.454877,-0.811727
1630932116548,-0.34953,0.450546,-0.811483
1630932116557,-0.359839,0.446276,-0.805871
1630932116567,-0.367037,0.44365299999999996,-0.80337
1630932116576,-0.372405,0.442494,-0.805627
1630932116586,-0.375699,0.43907799999999997,-0.8066639999999999
1630932116596,-0.380457,0.43798,-0.805932
1630932116605,-0.381555,0.441091,-0.808067
1630932116615,-0.380762,0.44395799999999996,-0.8113
1630932116624,-0.38125,0.442067,-0.808555
1630932116634,-0.388692,0.43785799999999997,-0.801662
1630932116644,-0.394182,0.434747,-0.797331
1630932116653,-0.393511,0.424133,-0.795074
1630932116663,-0.39558499999999996,0.41358,-0.794403
1630932116672,-0.404308,0.406016,-0.80093
1630932116682,-0.414251,0.39967199999999997,-0.809531
1630932116692,-0.422791,0.397903,-0.817949
1630932116701,-0.429135,0.39772,-0.826062
1630932116711,-0.435296,0.399794,-0.826306
1630932116720,-0.441274,0.40138,-0.824964
1630932116730,-0.44652,0.405711,-0.822585
1630932116740,-0.454389,0.41138399999999997,-0.821243
1630932116749,-0.462258,0.416752,-0.822524
1630932116759,-0.467016,0.420107,-0.819047
1630932116768,-0.47092,0.422486,-0.813252
1630932116778,-0.474397,0.424194,-0.8066639999999999
1630932116788,-0.476532,0.424194,-0.8005639999999999
1630932116797,-0.480436,0.421632,-0.794464
1630932116807,-0.48440099999999997,0.420107,-0.789279
1630932116816,-0.485987,0.418826,-0.7859849999999999
1630932116826,-0.48684099999999997,0.415715,-0.782752
1630932116836,-0.48562099999999997,0.410103,-0.778299
1630932116845,-0.48556,0.406626,-0.772565
1630932116855,-0.48592599999999997,0.404308,-0.767685
1630932116864,-0.485072,0.400465,-0.765489
1630932116874,-0.48312,0.396988,-0.763598
1630932116884,-0.481839,0.394792,-0.760792
1630932116893,-0.482449,0.394792,-0.759023
1630932116903,-0.481778,0.399428,-0.759267
1630932116912,-0.482205,0.40199,-0.761219
1630932116922,-0.481961,0.402966,-0.762988
1630932116932,-0.479948,0.40363699999999997,-0.7628659999999999
1630932116941,-0.479338,0.401258,-0.764208
1630932116951,-0.47756899999999997,0.40028199999999997,-0.766465
1630932116960,-0.474641,0.398757,-0.769637
1630932116970,-0.471957,0.396134,-0.77287
1630932116980,-0.46921199999999996,0.395219,-0.775493
1630932116989,-0.466284,0.395036,-0.7765299999999999
1630932116999,-0.465918,0.396073,-0.778726
1630932117008,-0.462563,0.3965,-0.778177
1630932117018,-0.46128199999999997,0.398086,-0.778726
1630932117028,-0.457805,0.399245,-0.7780549999999999
1630932117037,-0.45414499999999997,0.39833,-0.7759199999999999
1630932117047,-0.452498,0.39894,-0.775188
1630932117056,-0.449082,0.39955,-0.77226
1630932117066,-0.445239,0.398513,-0.77226
1630932117076,-0.44273799999999996,0.398208,-0.771284
1630932117085,-0.441884,0.398452,-0.771284
1630932117095,-0.442006,0.398025,-0.772321
1630932117104,-0.44225,0.39833,-0.774334
1630932117114,-0.441945,0.396805,-0.777018
1630932117124,-0.442006,0.396439,-0.7811049999999999
1630932117133,-0.441762,0.394487,-0.784643
1630932117143,-0.441152,0.394182,-0.786351
1630932117152,-0.441945,0.393389,-0.788974
1630932117162,-0.441884,0.39466999999999997,-0.790194
1630932117172,-0.44243299999999997,0.396683,-0.7920849999999999
1630932117181,-0.443836,0.396988,-0.794281
1630932117191,-0.44347,0.398696,-0.796599
1630932117200,-0.44395799999999996,0.399306,-0.795928
1630932117210,-0.445422,0.40211199999999997,-0.795867
1630932117220,-0.447557,0.405406,-0.79727
1630932117229,-0.446764,0.409371,-0.800137
1630932117239,-0.44347,0.412726,-0.80581
1630932117248,-0.441762,0.41541,-0.8087989999999999
1630932117258,-0.441884,0.416386,-0.811178
1630932117268,-0.441152,0.413092,-0.809348
1630932117277,-0.44212799999999997,0.409676,-0.807762
1630932117287,-0.443226,0.407358,-0.805932
1630932117296,-0.441762,0.407846,-0.808738
1630932117306,-0.438224,0.405955,-0.81008
1630932117316,-0.434869,0.404064,-0.8100189999999999
1630932117325,-0.432368,0.403576,-0.808982
1630932117335,-0.428952,0.4026,-0.807396
1630932117344,-0.424987,0.401563,-0.8066639999999999
1630932117354,-0.42151,0.400404,-0.808128
1630932117364,-0.41907,0.400526,-0.810568
1630932117373,-0.417545,0.398696,-0.811056
1630932117383,-0.41602,0.395646,-0.809348
1630932117392,-0.414678,0.39283999999999997,-0.805688
1630932117402,-0.41351899999999997,0.391986,-0.803797
1630932117412,-0.409981,0.39222999999999997,-0.8030039999999999
1630932117421,-0.408639,0.392779,-0.803492
1630932117431,-0.405711,0.393328,-0.804651
1630932117440,-0.40382,0.392657,-0.807335
1630932117450,-0.40028199999999997,0.391193,-0.810873
1630932117460,-0.398879,0.39283999999999997,-0.812703
1630932117469,-0.39558499999999996,0.39131499999999997,-0.813191
1630932117479,-0.393572,0.385581,-0.809287
1630932117488,-0.394304,0.382226,-0.8087989999999999
1630932117498,-0.390766,0.382409,-0.810141
1630932117508,-0.389973,0.380884,-0.809531
1630932117517,-0.39039999999999997,0.38143299999999997,-0.809897
1630932117527,-0.390461,0.384361,-0.8133739999999999
1630932117536,-0.388204,0.386008,-0.814472
1630932117546,-0.388814,0.385764,-0.814777
1630932117556,-0.38948499999999997,0.386252,-0.8148989999999999
1630932117565,-0.389302,0.386801,-0.815143
1630932117575,-0.38948499999999997,0.385581,-0.815631
1630932117584,-0.38917999999999997,0.382775,-0.81618
1630932117594,-0.389302,0.38064,-0.816302
1630932117604,-0.389058,0.3782,-0.815753
1630932117613,-0.38948499999999997,0.376736,-0.8174
1630932117623,-0.38917999999999997,0.37838299999999997,-0.819596
1630932117632,-0.390644,0.379115,-0.820328
1630932117642,-0.390156,0.380701,-0.822036
1630932117652,-0.392718,0.380457,-0.8227679999999999
1630932117661,-0.39314499999999997,0.380274,-0.823866
1630932117671,-0.393938,0.380457,-0.8252079999999999
1630932117680,-0.39558499999999996,0.379664,-0.825635
1630932117690,-0.396317,0.37838299999999997,-0.824842
1630932117700,-0.397293,0.37807799999999997,-0.824537
1630932117709,-0.397659,0.378444,-0.824354
1630932117719,-0.397171,0.379786,-0.824354
1630932117728,-0.399184,0.380579,-0.8230729999999999
1630932117738,-0.401258,0.380579,-0.8233779999999999
1630932117748,-0.4026,0.382287,-0.823256
1630932117757,-0.403759,0.382531,-0.821792
1630932117767,-0.406443,0.383446,-0.821426
1630932117776,-0.407419,0.385032,-0.822585
1630932117786,-0.409432,0.385154,-0.8221579999999999
1630932117796,-0.41053,0.38491,-0.822402
1630932117805,-0.41358,0.385032,-0.823256
1630932117815,-0.4148,0.386557,-0.824354
1630932117824,-0.416752,0.388021,-0.824781
1630932117834,-0.418216,0.389424,-0.8245979999999999
1630932117844,-0.417667,0.390766,-0.82228
1630932117853,-0.41717899999999997,0.392047,-0.819657
1630932117863,-0.416691,0.393694,-0.816973
1630932117872,-0.417362,0.395036,-0.815326
1630932117882,-0.418033,0.395768,-0.813801
1630932117892,-0.416996,0.395097,-0.811422
1630932117901,-0.416691,0.394914,-0.8081889999999999
1630932117911,-0.41656899999999997,0.393816,-0.803797
1630932117920,-0.416386,0.393572,-0.800991
1630932117930,-0.41687399999999997,0.392413,-0.79849
1630932117940,-0.41717899999999997,0.391437,-0.797575
1630932117949,-0.415166,0.390278,-0.79666
1630932117959,-0.416386,0.390278,-0.794159
1630932117968,-0.415898,0.388997,-0.796843
1630932117978,-0.41419,0.388082,-0.797758
1630932117988,-0.413946,0.38765499999999997,-0.798917
1630932117997,-0.416081,0.386923,-0.799893
1630932118007,-0.417118,0.388143,-0.803187
1630932118016,-0.419253,0.38948499999999997,-0.806481
1630932118026,-0.421754,0.388143,-0.8084939999999999
1630932118036,-0.422242,0.38765499999999997,-0.809287
1630932118045,-0.421754,0.388631,-0.809165
1630932118055,-0.421693,0.38917999999999997,-0.808006
1630932118064,-0.421937,0.392352,-0.808128
1630932118074,-0.42151,0.39497499999999997,-0.8091039999999999
1630932118084,-0.418216,0.397903,-0.812093
1630932118093,-0.41724,0.399184,-0.811971
1630932118103,-0.417301,0.397049,-0.809226
1630932118112,-0.417118,0.394731,-0.808128
1630932118122,-0.416447,0.390278,-0.80581
1630932118132,-0.41687399999999997,0.385886,-0.803675
1630932118141,-0.415105,0.383812,-0.801906
1630932118151,-0.413092,0.381494,-0.801113
1630932118160,-0.410713,0.379176,-0.801052
1630932118170,-0.409005,0.37899299999999997,-0.801601
1630932118180,-0.409066,0.379359,-0.802821
1630932118189,-0.408639,0.380396,-0.805505
1630932118199,-0.408273,0.38326299999999996,-0.8084939999999999
1630932118208,-0.407419,0.385764,-0.81069
1630932118218,-0.407724,0.386557,-0.813191
1630932118228,-0.40748,0.386252,-0.813008
1630932118237,-0.408578,0.385032,-0.811361
1630932118247,-0.408273,0.38326299999999996,-0.809226
1630932118256,-0.409615,0.382714,-0.808982
1630932118266,-0.410408,0.383934,-0.8103239999999999
1630932118276,-0.41114,0.384727,-0.814838
1630932118285,-0.410469,0.385215,-0.818254
1630932118295,-0.411018,0.38613,-0.820999
1630932118304,-0.410896,0.386252,-0.823927
1630932118314,-0.410103,0.386252,-0.823134
1630932118324,-0.411323,0.383141,-0.821609
1630932118333,-0.41175,0.382714,-0.821853
1630932118343,-0.411506,0.382714,-0.8230729999999999
1630932118352,-0.411018,0.38308,-0.8227679999999999
1630932118362,-0.411018,0.383507,-0.822829
1630932118372,-0.410408,0.383019,-0.823134
1630932118381,-0.40992,0.382714,-0.823439
1630932118391,-0.409188,0.38295799999999997,-0.8230729999999999
1630932118400,-0.40790699999999996,0.383141,-0.8224629999999999
1630932118410,-0.408151,0.38125,-0.819596
1630932118420,-0.40790699999999996,0.379664,-0.816912
1630932118429,-0.407846,0.378017,-0.815143
1630932118439,-0.406931,0.375821,-0.814716
1630932118448,-0.406748,0.37454,-0.8164239999999999
1630932118458,-0.407236,0.374418,-0.817278
1630932118468,-0.407785,0.375211,-0.817156
1630932118477,-0.40809,0.374479,-0.816546
1630932118487,-0.408456,0.376065,-0.816241
1630932118496,-0.40790699999999996,0.37637,-0.815143
1630932118506,-0.407053,0.377285,-0.815387
1630932118516,-0.40626,0.37685799999999997,-0.813923
1630932118525,-0.405528,0.376187,-0.811422
1630932118535,-0.405955,0.375272,-0.810263
1630932118544,-0.40668699999999997,0.375455,-0.80947
1630932118554,-0.40607699999999997,0.37515,-0.808433
1630932118564,-0.40729699999999996,0.374784,-0.8097139999999999
1630932118573,-0.407541,0.37533299999999997,-0.813008
1630932118583,-0.408944,0.375882,-0.814777
1630932118592,-0.409188,0.37533299999999997,-0.816485
1630932118602,-0.409859,0.374418,-0.818925
1630932118612,-0.410408,0.374418,-0.820084
1630932118621,-0.41107899999999997,0.374662,-0.82228
1630932118631,-0.41199399999999997,0.374174,-0.822829
1630932118640,-0.412787,0.374052,-0.8235
1630932118650,-0.413885,0.375028,-0.823317
1630932118660,-0.41419,0.37533299999999997,-0.8235
1630932118669,-0.415166,0.375882,-0.823622
1630932118679,-0.41602,0.37716299999999997,-0.8255129999999999
1630932118688,-0.41534899999999997,0.377651,-0.8276479999999999
1630932118698,-0.416508,0.378749,-0.8276479999999999
1630932118708,-0.41602,0.377956,-0.828624
1630932118717,-0.414678,0.37655299999999997,-0.8285629999999999
1630932118727,-0.41419,0.374784,-0.826855
1630932118736,-0.414495,0.372832,-0.8258179999999999
1630932118746,-0.41175,0.3721,-0.824232
1630932118756,-0.410957,0.371368,-0.82167
1630932118765,-0.41053,0.371002,-0.821426
1630932118775,-0.409737,0.37088,-0.819779
1630932118784,-0.409859,0.370514,-0.818315
1630932118794,-0.408578,0.371368,-0.818925
1630932118804,-0.40821199999999996,0.371612,-0.817949
1630932118813,-0.409615,0.370575,-0.818742
1630932118823,-0.409554,0.37002599999999997,-0.820389
1630932118832,-0.409005,0.36911099999999997,-0.818437
1630932118842,-0.410652,0.368684,-0.818071
1630932118852,-0.410286,0.369172,-0.818376
1630932118861,-0.411262,0.36819599999999997,-0.818681
1630932118871,-0.412848,0.367098,-0.820267
1630932118880,-0.413153,0.365512,-0.82106
1630932118890,-0.412726,0.36392599999999997,-0.81923
1630932118900,-0.41443399999999997,0.364414,-0.818559
1630932118909,-0.415105,0.36453599999999997,-0.820633
1630932118919,-0.413641,0.367159,-0.825025
1630932118928,-0.412848,0.367403,-0.827404
1630932118938,-0.412726,0.368074,-0.8255129999999999
1630932118948,-0.413885,0.367037,-0.824354
1630932118957,-0.41382399999999997,0.36356,-0.82716
1630932118967,-0.41321399999999997,0.359961,-0.828929
1630932118976,-0.41358,0.357643,-0.828441
1630932118986,-0.41229899999999997,0.35465399999999997,-0.828807
1630932118996,-0.410591,0.353068,-0.829356
1630932119005,-0.408822,0.351421,-0.829234
1630932119015,-0.407053,0.351238,-0.8285629999999999
1630932119024,-0.405345,0.351177,-0.829722
1630932119034,-0.40211199999999997,0.349713,-0.8310029999999999
1630932119044,-0.400526,0.347456,-0.833626
1630932119053,-0.398391,0.34660199999999997,-0.836371
1630932119063,-0.397659,0.34507699999999997,-0.8380179999999999
1630932119072,-0.395829,0.342271,-0.838384
1630932119082,-0.396012,0.34221,-0.83753
1630932119092,-0.3965,0.34233199999999997,-0.837286
1630932119101,-0.395829,0.34263699999999997,-0.8361879999999999
1630932119111,-0.397537,0.342698,-0.83631
1630932119120,-0.396683,0.34526,-0.836737
1630932119130,-0.396622,0.346236,-0.8361879999999999
1630932119140,-0.397232,0.347456,-0.835334
1630932119149,-0.39711,0.347639,-0.8358829999999999
1630932119159,-0.397903,0.348066,-0.8355779999999999
1630932119168,-0.398147,0.347273,-0.832772
1630932119178,-0.398269,0.345443,-0.832711
1630932119188,-0.397842,0.345565,-0.832467
1630932119197,-0.397476,0.344284,-0.8313079999999999
1630932119207,-0.399855,0.345016,-0.830271
1630932119216,-0.400343,0.345199,-0.831247
1630932119226,-0.402051,0.346114,-0.8325279999999999
1630932119236,-0.402661,0.34526,-0.8334429999999999
1630932119245,-0.404369,0.343674,-0.834602
1630932119255,-0.406016,0.342088,-0.835151
1630932119264,-0.407053,0.341051,-0.8361879999999999
1630932119274,-0.409676,0.339526,-0.836249
1630932119284,-0.410408,0.338794,-0.8352729999999999
1630932119293,-0.412116,0.337574,-0.8346629999999999
1630932119303,-0.412848,0.33733,-0.8349679999999999
1630932119312,-0.413031,0.336171,-0.835212
1630932119322,-0.414678,0.336781,-0.834602
1630932119332,-0.41565399999999997,0.337025,-0.835822
1630932119341,-0.41663,0.338794,-0.83509
1630932119351,-0.418216,0.340624,-0.835334
1630932119360,-0.418765,0.342576,-0.8337479999999999
1630932119370,-0.420351,0.343674,-0.832101
1630932119380,-0.42151,0.344406,-0.831125
1630932119389,-0.421449,0.34477199999999997,-0.829966
1630932119399,-0.421632,0.345748,-0.829295
1630932119408,-0.422608,0.34538199999999997,-0.828685
1630932119418,-0.423218,0.346236,-0.828441
1630932119428,-0.422364,0.346724,-0.827587
1630932119437,-0.424072,0.346541,-0.828014
1630932119447,-0.424438,0.345931,-0.8288679999999999
1630932119456,-0.425353,0.345565,-0.8285629999999999
1630932119466,-0.42578,0.343979,-0.827709
1630932119476,-0.42675599999999997,0.34343,-0.82655
1630932119485,-0.42761,0.343308,-0.826184
1630932119495,-0.428098,0.34141699999999997,-0.82594
1630932119504,-0.427732,0.340868,-0.826062
1630932119514,-0.427549,0.341478,-0.826184
1630932119524,-0.42889099999999997,0.34141699999999997,-0.825574
1630932119533,-0.428342,0.34111199999999997,-0.82655
1630932119543,-0.42950099999999997,0.340136,-0.8258179999999999
1630932119552,-0.429684,0.340258,-0.826916
1630932119562,-0.429074,0.33989199999999997,-0.826245
1630932119572,-0.42950099999999997,0.34202699999999997,-0.82411
1630932119581,-0.42889099999999997,0.342881,-0.823622
1630932119591,-0.430782,0.342576,-0.82533
1630932119600,-0.429745,0.341661,-0.8252079999999999
1630932119610,-0.429074,0.341539,-0.826062
1630932119620,-0.429867,0.341783,-0.825757
1630932119629,-0.429684,0.341173,-0.825452
1630932119639,-0.43072099999999997,0.34111199999999997,-0.8245979999999999
1630932119648,-0.42883,0.34099,-0.824537
1630932119658,-0.429318,0.342271,-0.8227679999999999
1630932119668,-0.429989,0.342454,-0.823622
1630932119677,-0.429013,0.343491,-0.824781
1630932119687,-0.429318,0.34294199999999997,-0.824781
1630932119696,-0.42883,0.342454,-0.82655
1630932119706,-0.429379,0.340868,-0.826306
1630932119716,-0.429257,0.340319,-0.826001
1630932119725,-0.42761,0.34099,-0.825635
1630932119735,-0.42761,0.341844,-0.8261229999999999
1630932119744,-0.42767099999999997,0.341051,-0.82594
1630932119754,-0.424438,0.342881,-0.821975
1630932119764,-0.42639,0.348859,-0.8152039999999999
1630932119773,-0.42761,0.354898,-0.816546
1630932119783,-0.426878,0.361913,-0.8158139999999999
1630932119792,-0.426634,0.363316,-0.820084
1630932119802,-0.428098,0.364048,-0.819108
1630932119812,-0.428342,0.362218,-0.81984
1630932119821,-0.42706099999999997,0.359778,-0.821975
1630932119831,-0.428342,0.357765,-0.820816
1630932119840,-0.42980599999999997,0.35624,-0.8233779999999999
1630932119850,-0.42944,0.355203,-0.824781
1630932119860,-0.428098,0.355386,-0.823012
1630932119869,-0.428037,0.355813,-0.82228
1630932119879,-0.429257,0.356301,-0.819901
1630932119888,-0.428525,0.35892399999999997,-0.818498
1630932119898,-0.431514,0.361852,-0.8164239999999999
1630932119908,-0.432063,0.362767,-0.818864
1630932119917,-0.432002,0.368135,-0.820023
1630932119927,-0.434686,0.370514,-0.819901
1630932119936,-0.43694299999999997,0.371063,-0.819352
1630932119946,-0.43737,0.374174,-0.812215
1630932119956,-0.441396,0.37716299999999997,-0.8091039999999999
1630932119965,-0.441884,0.378322,-0.809592
1630932119975,-0.443165,0.378261,-0.806298
1630932119984,-0.443287,0.38051799999999997,-0.802882
1630932119994,-0.44225,0.38247,-0.801296
1630932120004,-0.441762,0.386618,-0.800076
1630932120013,-0.44286,0.39039999999999997,-0.797331
1630932120023,-0.441457,0.39405999999999997,-0.791841
1630932120032,-0.441579,0.397598,-0.789218
1630932120042,-0.44164,0.402905,-0.7859849999999999
1630932120052,-0.441274,0.40760199999999996,-0.782691
1630932120061,-0.441762,0.411872,-0.777872
1630932120071,-0.441884,0.416325,-0.775737
1630932120080,-0.44103,0.420595,-0.7756149999999999
1630932120090,-0.44103,0.42309599999999997,-0.773968
1630932120100,-0.44151799999999997,0.426085,-0.771223
1630932120109,-0.44182299999999997,0.433039,-0.770674
1630932120119,-0.442372,0.437736,-0.769515
1630932120128,-0.442555,0.440054,-0.769454
1630932120138,-0.441945,0.440237,-0.770613
1630932120148,-0.441396,0.44029799999999997,-0.770796
1630932120157,-0.442006,0.43938299999999997,-0.771345
1630932120167,-0.441335,0.436455,-0.773724
1630932120176,-0.440786,0.436211,-0.7759199999999999
1630932120186,-0.44182299999999997,0.437492,-0.778299
1630932120196,-0.441884,0.43694299999999997,-0.780739
1630932120205,-0.44103,0.435784,-0.782264
1630932120215,-0.43938299999999997,0.43541799999999997,-0.7841549999999999
1630932120224,-0.43798,0.434991,-0.785802
1630932120234,-0.43859,0.434198,-0.786534
1630932120244,-0.437431,0.432124,-0.789828
1630932120253,-0.433161,0.434198,-0.793366
1630932120263,-0.43066,0.435357,-0.794525
1630932120272,-0.428403,0.437919,-0.796965
1630932120282,-0.424133,0.438285,-0.79971
1630932120292,-0.420656,0.439566,-0.7987339999999999
1630932120301,-0.41809399999999997,0.441945,-0.798856
1630932120311,-0.414495,0.445788,-0.799222
1630932120320,-0.408578,0.446276,-0.798917
1630932120330,-0.40199,0.44926499999999997,-0.797636
1630932120340,-0.395402,0.446764,-0.799466
1630932120349,-0.389851,0.441579,-0.804468
1630932120359,-0.382714,0.438041,-0.805871
1630932120368,-0.379054,0.436272,-0.806847
1630932120378,-0.373076,0.427488,-0.809836
1630932120388,-0.36575599999999997,0.416752,-0.813191
1630932120397,-0.359168,0.406016,-0.819047
1630932120407,-0.35373899999999997,0.40272199999999997,-0.8252079999999999
1630932120416,-0.347944,0.403271,-0.826794
1630932120426,-0.339953,0.404125,-0.820511
1630932120436,-0.33977,0.404735,-0.814228
1630932120445,-0.336415,0.393694,-0.816607
1630932120455,-0.329461,0.377041,-0.825574
1630932120464,-0.322934,0.360327,-0.841739
1630932120474,-0.32043299999999997,0.3477,-0.856745
1630932120484,-0.31598,0.338123,-0.868396
1630932120493,-0.314333,0.334341,-0.874435
1630932120503,-0.311161,0.333731,-0.8732759999999999
1630932120512,-0.314516,0.330376,-0.874252
1630932120522,-0.313235,0.326899,-0.875594
1630932120532,-0.308538,0.32012799999999997,-0.879315
1630932120541,-0.307318,0.31646799999999997,-0.8830359999999999
1630932120551,-0.305488,0.312808,-0.882609
1630932120560,-0.304939,0.310063,-0.888038
1630932120570,-0.305549,0.305915,-0.890234
1630932120580,-0.307257,0.301828,-0.891271
1630932120589,-0.311283,0.300181,-0.887367
1630932120599,-0.310856,0.299937,-0.884622
1630932120608,-0.311954,0.305,-0.882975
1630932120618,-0.315065,0.31171,-0.879132
1630932120628,-0.315492,0.31921299999999997,-0.876509
1630932120637,-0.315492,0.323422,-0.873337
1630932120647,-0.316895,0.325008,-0.870409
1630932120656,-0.31964,0.324703,-0.866871
1630932120666,-0.316834,0.327143,-0.867054
1630932120676,-0.322751,0.331901,-0.8632719999999999
1630932120685,-0.325069,0.334341,-0.862723
1630932120695,-0.322507,0.336842,-0.861381
1630932120704,-0.324703,0.34172199999999997,-0.861076
1630932120714,-0.326411,0.34568699999999997,-0.861076
1630932120724,-0.325862,0.348554,-0.86437
1630932120733,-0.326411,0.350262,-0.864126
1630932120743,-0.327814,0.351482,-0.861198
1630932120752,-0.328973,0.352397,-0.8571719999999999
1630932120762,-0.331169,0.35434899999999997,-0.852719
1630932120772,-0.332511,0.357155,-0.850706
1630932120781,-0.333426,0.362767,-0.850218
1630932120791,-0.334158,0.367342,-0.850218
1630932120800,-0.336598,0.372283,-0.85034
1630932120810,-0.338794,0.377834,-0.852109
1630932120820,-0.341234,0.38265299999999997,-0.854244
1630932120829,-0.34629699999999997,0.38491,-0.853573
1630932120839,-0.349896,0.386191,-0.856013
1630932120848,-0.353983,0.387167,-0.855708
1630932120858,-0.357826,0.39283999999999997,-0.856318
1630932120868,-0.361364,0.401075,-0.857355
1630932120877,-0.362218,0.406504,-0.854183
1630932120887,-0.36234,0.410408,-0.853756
1630932120896,-0.362584,0.411323,-0.854183
1630932120906,-0.361425,0.409737,-0.858331
1630932120916,-0.362279,0.410774,-0.861076
1630932120925,-0.361608,0.410652,-0.864919
1630932120935,-0.362096,0.407358,-0.8635769999999999
1630932120944,-0.36051,0.40199,-0.86071
1630932120954,-0.35953399999999996,0.40992,-0.857965
1630932120964,-0.360571,0.391803,-0.857965
1630932120973,-0.357826,0.388692,-0.861503
1630932120983,-0.353983,0.381494,-0.8644919999999999
1630932120992,-0.350384,0.373869,-0.866749
1630932121002,-0.340441,0.363316,-0.867725
1630932121012,-0.327631,0.35312899999999997,-0.861564
1630932121021,-0.317139,0.34416199999999997,-0.845948
1630932121031,-0.308599,0.336781,-0.826855
1630932121040,-0.30378,0.330132,-0.81374
1630932121050,-0.300364,0.324459,-0.808433
1630932121060,-0.29822899999999997,0.319274,-0.808006
1630932121069,-0.294935,0.31354,-0.814777
1630932121079,-0.292922,0.307623,-0.823256
1630932121088,-0.290604,0.301462,-0.831735
1630932121098,-0.27358499999999997,0.280356,-0.818498
1630932121108,-0.275598,0.251808,-0.802577
1630932121117,-0.295728,0.262422,-0.8568669999999999
1630932121127,-0.307562,0.28731,-0.939766
1630932121136,-0.314394,0.29761899999999997,-0.98759
1630932121146,-0.32086,0.301096,-1.004609
1630932121156,-0.32635,0.301889,-0.998814
1630932121165,-0.32513,0.296155,-0.982954
1630932121175,-0.317871,0.292922,-0.963861
1630932121184,-0.314577,0.29426399999999997,-0.9472079999999999
1630932121194,-0.309209,0.30256,-0.941962
1630932121204,-0.30445099999999997,0.307013,-0.945195
1630932121213,-0.299022,0.306769,-0.946354
1630932121223,-0.290604,0.300913,-0.943975
1630932121232,-0.283528,0.292556,-0.939827
1630932121242,-0.274378,0.282064,-0.938302
1630932121252,-0.267424,0.273402,-0.93757
1630932121261,-0.261934,0.265655,-0.932141
1630932121271,-0.254614,0.256505,-0.924272
1630932121280,-0.246928,0.251076,-0.9116449999999999
1630932121290,-0.241926,0.24601299999999998,-0.899628
1630932121300,-0.235338,0.241621,-0.891027
1630932121309,-0.229055,0.235338,-0.884439
1630932121319,-0.224358,0.232349,-0.88145
1630932121328,-0.222833,0.231129,-0.8824259999999999
1630932121338,-0.22265,0.231739,-0.886025
1630932121348,-0.222406,0.231007,-0.890051
1630932121357,-0.222467,0.229604,-0.892064
1630932121367,-0.221552,0.227774,-0.897432
1630932121376,-0.220698,0.227286,-0.903227
1630932121386,-0.220332,0.224236,-0.9061549999999999
1630932121396,-0.221003,0.226371,-0.907924
1630932121405,-0.223077,0.229238,-0.910364
1630932121415,-0.224602,0.23119,-0.9137799999999999
1630932121424,-0.227774,0.235765,-0.919087
1630932121434,-0.230092,0.239486,-0.928298
1630932121444,-0.229665,0.24204799999999999,-0.93574
1630932121453,-0.23241,0.24326799999999998,-0.9420229999999999
1630932121463,-0.234728,0.245769,-0.948672
1630932121472,-0.235277,0.247965,-0.95526
1630932121482,-0.238815,0.247843,-0.95709
1630932121492,-0.238388,0.246684,-0.957395
1630932121501,-0.240035,0.250161,-0.95526
1630932121511,-0.237046,0.255651,-0.951295
1630932121520,-0.23729,0.259677,-0.9484279999999999
1630932121530,-0.23985199999999998,0.264008,-0.94367
1630932121540,-0.239059,0.267302,-0.938058
1630932121549,-0.237046,0.268522,-0.936106
1630932121559,-0.237351,0.269437,-0.934398
1630932121568,-0.2379,0.263581,-0.932507
1630932121578,-0.237351,0.258945,-0.930006
1630932121588,-0.23893699999999998,0.25376,-0.9250039999999999
1630932121597,-0.240889,0.250771,-0.9211
1630932121607,-0.24015699999999998,0.24644,-0.918233
1630932121616,-0.240035,0.24387799999999998,-0.915488
1630932121626,-0.241682,0.243512,-0.915
1630932121636,-0.243146,0.244549,-0.9122549999999999
1630932121645,-0.24448799999999998,0.24705,-0.910303
1630932121655,-0.24644,0.251686,-0.909876
1630932121664,-0.249368,0.256261,-0.911096
1630932121674,-0.252479,0.255956,-0.910364
1630932121684,-0.256566,0.257176,-0.9076799999999999
1630932121693,-0.25986,0.25790799999999997,-0.905728
1630932121703,-0.260836,0.255834,-0.8985299999999999
1630932121712,-0.260897,0.250405,-0.887428
1630932121722,-0.27236499999999997,0.251991,-0.891698
1630932121732,-0.279075,0.264435,-0.9207339999999999
1630932121741,-0.283284,0.274073,-0.9429379999999999
1630932121751,-0.285358,0.280661,-0.953552
1630932121760,-0.287432,0.290238,-0.953369
1630932121770,-0.287127,0.291885,-0.947025
1630932121780,-0.288042,0.291092,-0.93818
1630932121789,-0.287615,0.292922,-0.9333
1630932121799,-0.285968,0.293898,-0.929152
1630932121808,-0.285175,0.289018,-0.9240889999999999
1630932121818,-0.281393,0.283223,-0.9182939999999999
1630932121828,-0.276208,0.274744,-0.9137799999999999
1630932121837,-0.270352,0.263764,-0.906338
1630932121847,-0.269071,0.256078,-0.900848
1630932121856,-0.265228,0.250832,-0.893406
1630932121866,-0.263154,0.24326799999999998,-0.88206
1630932121876,-0.26095799999999997,0.237961,-0.878705
1630932121885,-0.26034799999999997,0.234179,-0.8787659999999999
1630932121895,-0.257481,0.2318,-0.882243
1630932121904,-0.255468,0.231922,-0.88328
1630932121914,-0.256932,0.229604,-0.880962
1630932121924,-0.259006,0.227896,-0.880535
1630932121933,-0.262178,0.224724,-0.883219
1630932121943,-0.264618,0.224968,-0.891942
1630932121952,-0.265899,0.224358,-0.901702
1630932121962,-0.26535,0.223504,-0.909327
1630932121972,-0.265228,0.22508999999999998,-0.914817
1630932121981,-0.266387,0.228628,-0.9207339999999999
1630932121991,-0.269559,0.231007,-0.9246989999999999
1630932122000,-0.270718,0.236619,-0.93635
1630932122010,-0.273158,0.24448799999999998,-0.9505629999999999
1630932122020,-0.271999,0.25071,-0.961482
1630932122029,-0.270474,0.256261,-0.964471
1630932122039,-0.266875,0.262849,-0.96441
1630932122048,-0.2623,0.264557,-0.958066
1630932122058,-0.255407,0.265655,-0.950075
1630932122068,-0.249978,0.263886,-0.944646
1630932122077,-0.244,0.261202,-0.941108
1630932122087,-0.23973,0.25559,-0.939644
1630932122096,-0.235338,0.247111,-0.933727
1630932122106,-0.23369099999999998,0.242414,-0.931531
1630932122116,-0.232288,0.238571,-0.930311
1630932122125,-0.23216599999999998,0.23308099999999998,-0.930006
1630932122135,-0.231922,0.2318,-0.930738
1630932122144,-0.234667,0.23277599999999998,-0.933483
1630932122154,-0.23668,0.235033,-0.935618
1630932122164,-0.240279,0.240645,-0.940559
1630932122173,-0.237229,0.24570799999999998,-0.9326289999999999
1630932122183,-0.23832699999999998,0.250527,-0.9201239999999999
1630932122192,-0.243939,0.255163,-0.916159
1630932122202,-0.24601299999999998,0.259494,-0.9201239999999999
1630932122212,-0.248941,0.263337,-0.928542
1630932122221,-0.250466,0.267363,-0.935801
1630932122231,-0.253577,0.27144999999999997,-0.94001
1630932122240,-0.255102,0.27511,-0.94184
1630932122250,-0.25559,0.27816,-0.938058
1630932122260,-0.25681,0.280478,-0.930982
1630932122269,-0.256444,0.28346699999999997,-0.926651
1630932122279,-0.256749,0.284199,-0.922381
1630932122288,-0.257969,0.28346699999999997,-0.918355
1630932122298,-0.257115,0.286029,-0.916769
1630932122308,-0.2562,0.288286,-0.910974
1630932122317,-0.257054,0.290726,-0.903593
1630932122327,-0.259982,0.292373,-0.901458
1630932122336,-0.25821299999999997,0.294142,-0.900177
1630932122346,-0.256566,0.29456899999999997,-0.903288
1630932122356,-0.257176,0.296277,-0.903898
1630932122365,-0.258091,0.29707,-0.901702
1630932122375,-0.257969,0.297863,-0.898408
1630932122384,-0.26095799999999997,0.2989,-0.8948699999999999
1630932122394,-0.264862,0.30073,-0.891149
1630932122404,-0.268339,0.306769,-0.892125
1630932122413,-0.270047,0.315553,-0.8973099999999999
1630932122423,-0.271816,0.323483,-0.900238
1630932122432,-0.274134,0.33061999999999997,-0.898774
1630932122442,-0.27358499999999997,0.337147,-0.893162
1630932122452,-0.274012,0.340075,-0.881145
1630932122461,-0.275232,0.342881,-0.8723
1630932122471,-0.276818,0.346724,-0.866078
1630932122480,-0.276696,0.348493,-0.859124
1630932122490,-0.278038,0.351299,-0.851438
1630932122500,-0.280905,0.354166,-0.846558
1630932122509,-0.284504,0.355813,-0.842166
1630932122519,-0.288286,0.35831399999999997,-0.841068
1630932122528,-0.29036,0.359168,-0.842288
1630932122538,-0.292556,0.35922899999999997,-0.847229
1630932122548,-0.295362,0.361486,-0.8480219999999999
1630932122557,-0.299083,0.365329,-0.849059
1630932122567,-0.30414599999999997,0.369843,-0.849913
1630932122576,-0.306952,0.37332,-0.84912
1630932122586,-0.313906,0.375455,-0.849364
1630932122596,-0.318237,0.378566,-0.852231
1630932122605,-0.321104,0.377407,-0.8513769999999999
1630932122615,-0.328119,0.374601,-0.84973
1630932122624,-0.336354,0.372832,-0.855586
1630932122634,-0.34385699999999997,0.376126,-0.867664
1630932122644,-0.352092,0.381494,-0.8781559999999999
1630932122653,-0.363011,0.385764,-0.879803
1630932122663,-0.373076,0.392779,-0.881694
1630932122672,-0.380091,0.397354,-0.8778509999999999
1630932122682,-0.38173799999999997,0.399794,-0.869311
1630932122692,-0.383812,0.398696,-0.853634
1630932122701,-0.386679,0.397476,-0.837042
1630932122711,-0.386557,0.3965,-0.822646
1630932122720,-0.386862,0.395707,-0.8112389999999999
1630932122730,-0.388143,0.393938,-0.802638
1630932122740,-0.392718,0.393084,-0.795318
1630932122749,-0.395158,0.391498,-0.7887299999999999
1630932122759,-0.39936699999999997,0.385154,-0.781959
1630932122768,-0.401868,0.371124,-0.777994
1630932122778,-0.401868,0.370148,-0.771589
1630932122788,-0.406321,0.369172,-0.764025
1630932122797,-0.409859,0.372893,-0.762073
1630932122807,-0.413031,0.381616,-0.7656109999999999
1630932122816,-0.413458,0.397903,-0.766892
1630932122826,-0.41717899999999997,0.404796,-0.767014
1630932122836,-0.41968,0.408395,-0.771711
1630932122845,-0.417606,0.409737,-0.776286
1630932122855,-0.422303,0.412726,-0.782142
1630932122864,-0.427244,0.424499,-0.790011
1630932122874,-0.431392,0.429135,-0.796355
1630932122884,-0.434442,0.433344,-0.79971
1630932122893,-0.437797,0.438834,-0.800198
1630932122903,-0.441335,0.44347,-0.801357
1630932122912,-0.44395799999999996,0.448838,-0.8017839999999999
1630932122922,-0.443226,0.454389,-0.803492
1630932122932,-0.442982,0.454633,-0.799222
1630932122941,-0.444873,0.454877,-0.796599
1630932122951,-0.445178,0.453169,-0.796233
1630932122960,-0.442616,0.447862,-0.798185
1630932122970,-0.43877299999999997,0.445483,-0.79849
1630932122980,-0.433283,0.439627,-0.795928
1630932122989,-0.430599,0.437126,-0.793366
1630932122999,-0.42919599999999997,0.437675,-0.794403
1630932123008,-0.42645099999999997,0.442799,-0.798002
1630932123018,-0.42370599999999997,0.445727,-0.796355
1630932123028,-0.422303,0.448289,-0.792695
1630932123037,-0.421388,0.447008,-0.782264
1630932123047,-0.421144,0.443104,-0.776164
1630932123056,-0.422059,0.445117,-0.772626
1630932123066,-0.41907,0.44987499999999997,-0.771467
1630932123076,-0.411872,0.455731,-0.768966
1630932123085,-0.405833,0.45884199999999997,-0.7677459999999999
1630932123095,-0.402295,0.459086,-0.769332
1630932123104,-0.397903,0.462746,-0.770674
1630932123114,-0.393328,0.465918,-0.772016
1630932123124,-0.387411,0.46768699999999996,-0.774029
1630932123133,-0.388448,0.46665,-0.774944
1630932123143,-0.391498,0.465918,-0.772321
1630932123152,-0.397537,0.468541,-0.767929
1630932123162,-0.40302699999999997,0.477508,-0.771284
1630932123172,-0.409554,0.48409599999999997,-0.773419
1630932123181,-0.41595899999999997,0.486963,-0.771711
1630932123191,-0.418216,0.486353,-0.765855
1630932123200,-0.41900899999999996,0.482388,-0.759999
1630932123210,-0.417118,0.47726399999999997,-0.759572
1630932123220,-0.414312,0.475861,-0.7643909999999999
1630932123229,-0.410225,0.471896,-0.769271
1630932123239,-0.410042,0.471408,-0.771101
1630932123248,-0.41229899999999997,0.468724,-0.770308
1630932123258,-0.418338,0.470432,-0.768112
1630932123268,-0.421388,0.469151,-0.7628659999999999
1630932123277,-0.42029,0.47177399999999997,-0.76006
1630932123287,-0.419497,0.474763,-0.759328
1630932123296,-0.41846,0.481107,-0.75823
1630932123306,-0.420534,0.485682,-0.7555459999999999
1630932123316,-0.420961,0.490745,-0.749873
1630932123325,-0.42212,0.49263599999999996,-0.745176
1630932123335,-0.423035,0.48861,-0.7379169999999999
1630932123344,-0.42736599999999997,0.482815,-0.731878
1630932123354,-0.428708,0.47848399999999996,-0.730353
1630932123364,-0.431209,0.475068,-0.730231
1630932123373,-0.433344,0.467626,-0.727486
1630932123383,-0.437065,0.467931,-0.724924
1630932123392,-0.44042,0.466711,-0.726754
1630932123402,-0.444629,0.466284,-0.728035
1630932123412,-0.449448,0.469395,-0.731024
1630932123421,-0.455853,0.47177399999999997,-0.732244
1630932123431,-0.464454,0.468785,-0.735233
1630932123440,-0.468663,0.46116,-0.734806
1630932123450,-0.47458,0.452193,-0.7321219999999999
1630932123460,-0.480375,0.444812,-0.731329
1630932123469,-0.48409599999999997,0.437187,-0.734623
1630932123479,-0.488305,0.42736599999999997,-0.737734
1630932123488,-0.489952,0.422974,-0.7421869999999999
1630932123498,-0.495564,0.41961899999999996,-0.748348
1630932123508,-0.492148,0.419802,-0.755485
1630932123517,-0.494222,0.418033,-0.756583
1630932123527,-0.494222,0.421754,-0.760853
1630932123536,-0.492087,0.426573,-0.767685
1630932123546,-0.490135,0.42761,-0.7746999999999999
1630932123556,-0.490928,0.42858599999999997,-0.7771399999999999
1630932123565,-0.491782,0.426634,-0.779458
1630932123575,-0.487329,0.422059,-0.778177
1630932123584,-0.482144,0.41541,-0.774944
1630932123594,-0.479155,0.40790699999999996,-0.770613
1630932123604,-0.482266,0.40546699999999997,-0.76799
1630932123613,-0.4819,0.400831,-0.766343
1630932123623,-0.481046,0.399733,-0.765672
1630932123632,-0.482205,0.401014,-0.766038
1630932123642,-0.484828,0.39936699999999997,-0.768478
1630932123652,-0.484462,0.397842,-0.769515
1630932123661,-0.48440099999999997,0.393084,-0.76738
1630932123671,-0.486475,0.390827,-0.7646959999999999
1630932123680,-0.48501099999999997,0.389607,-0.767563
1630932123690,-0.485194,0.38978999999999997,-0.771345
1630932123700,-0.48409599999999997,0.393572,-0.777079
1630932123709,-0.481412,0.396927,-0.781166
1630932123719,-0.479216,0.400038,-0.7865949999999999
1630932123728,-0.473726,0.405711,-0.7902549999999999
1630932123738,-0.469151,0.410225,-0.792512
1630932123748,-0.462929,0.413275,-0.7914749999999999
1630932123757,-0.459513,0.417606,-0.793305
1630932123767,-0.455487,0.418521,-0.7999539999999999
1630932123776,-0.449204,0.41900899999999996,-0.808372
1630932123786,-0.442372,0.418887,-0.815875
1630932123796,-0.435601,0.414983,-0.819474
1630932123805,-0.429623,0.41138399999999997,-0.824842
1630932123815,-0.423523,0.4087,-0.829722
1630932123824,-0.416081,0.406748,-0.83082
1630932123834,-0.41321399999999997,0.405955,-0.830637
1630932123844,-0.408578,0.40607699999999997,-0.831857
1630932123853,-0.402478,0.40443,-0.830942
1630932123863,-0.39772,0.40199,-0.826672
1630932123872,-0.394853,0.40077,-0.820938
1630932123882,-0.39131499999999997,0.40058699999999997,-0.819474
1630932123892,-0.388143,0.40119699999999997,-0.81862
1630932123901,-0.384483,0.40272199999999997,-0.822524
1630932123911,-0.380945,0.4026,-0.82655
1630932123920,-0.375516,0.400221,-0.830332
1630932123930,-0.375028,0.397415,-0.831735
1630932123940,-0.376736,0.393328,-0.8313079999999999
1630932123949,-0.37746799999999997,0.389302,-0.831491
1630932123959,-0.375577,0.387167,-0.828502
1630932123968,-0.373869,0.384544,-0.82228
1630932123978,-0.371795,0.37990799999999997,-0.8174
1630932123988,-0.368745,0.375516,-0.814655
1630932123997,-0.367952,0.373686,-0.816485
1630932124007,-0.367769,0.371612,-0.819352
1630932124016,-0.367769,0.371002,-0.823805
1630932124026,-0.369233,0.371612,-0.826916
1630932124036,-0.369782,0.36941599999999997,-0.8288679999999999
1630932124045,-0.370697,0.366488,-0.826367
1630932124055,-0.370758,0.363438,-0.8233779999999999
1630932124064,-0.370697,0.362706,-0.822707
1630932124074,-0.371673,0.36234,-0.822707
1630932124084,-0.371795,0.362767,-0.823744
1630932124093,-0.372649,0.363072,-0.826245
1630932124103,-0.375577,0.365573,-0.828319
1630932124112,-0.377407,0.365268,-0.8310029999999999
1630932124122,-0.37881,0.364048,-0.829234
1630932124132,-0.381006,0.361913,-0.827526
1630932124141,-0.382775,0.360998,-0.827282
1630932124151,-0.384117,0.360022,-0.82594
1630932124160,-0.38795999999999997,0.3599,-0.823622
1630932124170,-0.388936,0.360266,-0.82411
1630932124180,-0.391498,0.361364,-0.825086
1630932124189,-0.395829,0.362706,-0.826916
1630932124199,-0.397781,0.361913,-0.828319
1630932124208,-0.39833,0.36234,-0.829295
1630932124218,-0.39967199999999997,0.362462,-0.83265
1630932124228,-0.400343,0.362035,-0.834541
1630932124237,-0.399794,0.360205,-0.834602
1630932124247,-0.398513,0.35800899999999997,-0.83204
1630932124256,-0.398574,0.355935,-0.8288679999999999
1630932124266,-0.39711,0.355447,-0.826001
1630932124276,-0.396927,0.355752,-0.826489
1630932124285,-0.398086,0.356667,-0.827404
1630932124295,-0.399123,0.357826,-0.829966
1630932124304,-0.399733,0.358253,-0.8337479999999999
1630932124314,-0.40077,0.357826,-0.835944
1630932124324,-0.402295,0.35770399999999997,-0.8380179999999999
1630932124333,-0.403454,0.358802,-0.8374079999999999
1630932124343,-0.404918,0.359656,-0.835517
1630932124352,-0.40546699999999997,0.360144,-0.832406
1630932124362,-0.406809,0.359168,-0.8291729999999999
1630932124372,-0.407053,0.358863,-0.827221
1630932124381,-0.408151,0.360144,-0.826916
1630932124391,-0.409066,0.359412,-0.8285629999999999
1630932124400,-0.409737,0.35800899999999997,-0.830271
1630932124410,-0.410591,0.357887,-0.831857
1630932124420,-0.409493,0.35685,-0.834114
1630932124429,-0.410164,0.355752,-0.836432
1630932124439,-0.409676,0.355813,-0.837286
1630932124448,-0.409188,0.35617899999999997,-0.837225
1630932124458,-0.408761,0.355386,-0.837225
1630932124468,-0.409554,0.35526399999999997,-0.8371029999999999
1630932124477,-0.40748,0.35404399999999997,-0.836127
1630932124487,-0.40638199999999997,0.353983,-0.834724
1630932124496,-0.404186,0.354898,-0.834114
1630932124506,-0.40363699999999997,0.355752,-0.83631
1630932124516,-0.4026,0.355508,-0.836676
1630932124525,-0.400465,0.354715,-0.836554
1630932124535,-0.399794,0.353556,-0.836737
1630932124544,-0.398513,0.35434899999999997,-0.838201
1630932124554,-0.396988,0.35434899999999997,-0.838994
1630932124564,-0.3965,0.35441,-0.838262
1630932124573,-0.397354,0.354898,-0.838201
1630932124583,-0.399062,0.35685,-0.836676
1630932124592,-0.400404,0.359839,-0.837896
1630932124602,-0.398879,0.361547,-0.837286
1630932124612,-0.397781,0.363072,-0.835334
1630932124621,-0.396012,0.36453599999999997,-0.8325279999999999
1630932124631,-0.395524,0.366122,-0.828929
1630932124640,-0.395768,0.367708,-0.825086
1630932124650,-0.394304,0.36819599999999997,-0.8261229999999999
1630932124660,-0.394121,0.369172,-0.825757
1630932124669,-0.39283999999999997,0.37063599999999997,-0.82838
1630932124679,-0.395036,0.373015,-0.8270379999999999
1630932124688,-0.395951,0.374296,-0.827709
1630932124698,-0.396378,0.372771,-0.8296
1630932124708,-0.397903,0.368623,-0.829844
1630932124717,-0.400038,0.364414,-0.8300879999999999
1630932124727,-0.40150199999999997,0.359961,-0.830759
1630932124736,-0.40058699999999997,0.355813,-0.832406
1630932124746,-0.40089199999999997,0.352275,-0.830637
1630932124756,-0.40272199999999997,0.352153,-0.827831
1630932124765,-0.402783,0.349164,-0.8258179999999999
1630932124775,-0.40119699999999997,0.348554,-0.825574
1630932124784,-0.402234,0.345748,-0.825269
1630932124794,-0.403698,0.34568699999999997,-0.82594
1630932124804,-0.406809,0.345016,-0.827709
1630932124813,-0.406931,0.344223,-0.829295
1630932124823,-0.408761,0.340685,-0.826855
1630932124832,-0.412055,0.338672,-0.826001
1630932124842,-0.41595899999999997,0.340441,-0.829966
1630932124852,-0.417118,0.341966,-0.8334429999999999
1630932124861,-0.417972,0.34355199999999997,-0.837164
1630932124871,-0.417606,0.344711,-0.839665
1630932124880,-0.416447,0.343735,-0.83814
1630932124890,-0.417972,0.343796,-0.833199
1630932124900,-0.418338,0.346968,-0.8306979999999999
1630932124909,-0.41778899999999997,0.346419,-0.82838
1630932124919,-0.41931399999999996,0.34721199999999997,-0.824232
1630932124928,-0.419497,0.350872,-0.826306
1630932124938,-0.41846,0.352092,-0.829112
1630932124948,-0.419436,0.35282399999999997,-0.829966
1630932124957,-0.418887,0.35343399999999997,-0.8300879999999999
1630932124967,-0.418826,0.35319,-0.829539
1630932124976,-0.419375,0.353983,-0.826916
1630932124986,-0.418338,0.354593,-0.824537
1630932124996,-0.417606,0.353556,-0.821548
1630932125005,-0.416752,0.351787,-0.819657
1630932125015,-0.415166,0.350811,-0.81984
1630932125024,-0.413031,0.35075,-0.820267
1630932125034,-0.413031,0.351848,-0.821426
1630932125044,-0.412482,0.35251899999999997,-0.823012
1630932125053,-0.410347,0.35282399999999997,-0.824415
1630932125063,-0.409554,0.352702,-0.824232
1630932125072,-0.411262,0.352641,-0.823317
1630932125082,-0.41138399999999997,0.35075,-0.824354
1630932125092,-0.41168899999999997,0.352946,-0.826794
1630932125101,-0.412482,0.353312,-0.829356
1630932125111,-0.411933,0.35160399999999997,-0.8300879999999999
1630932125120,-0.41199399999999997,0.351848,-0.831552
1630932125130,-0.412055,0.35075,-0.833382
1630932125140,-0.412116,0.35075,-0.8352729999999999
1630932125149,-0.41138399999999997,0.352153,-0.8377129999999999
1630932125159,-0.410652,0.353312,-0.840397
1630932125168,-0.409432,0.352458,-0.8401529999999999
1630932125178,-0.40931,0.35404399999999997,-0.840275
1630932125188,-0.410286,0.355996,-0.840885
1630932125197,-0.409859,0.359168,-0.843142
1630932125207,-0.407358,0.359656,-0.841617
1630932125216,-0.405711,0.359046,-0.837896
1630932125226,-0.403454,0.358863,-0.833992
1630932125236,-0.40089199999999997,0.35868,-0.829661
1630932125245,-0.400404,0.357338,-0.826001
1630932125255,-0.40016,0.356301,-0.8252079999999999
1630932125264,-0.398147,0.357826,-0.827099
1630932125274,-0.396622,0.357521,-0.8282579999999999
1630932125284,-0.39588999999999996,0.35678899999999997,-0.827404
1630932125293,-0.39711,0.35587399999999997,-0.827282
1630932125303,-0.396622,0.35434899999999997,-0.826916
1630932125312,-0.397964,0.355081,-0.828014
1630932125322,-0.399428,0.35312899999999997,-0.82899
1630932125332,-0.399855,0.353007,-0.829661
1630932125341,-0.399062,0.353068,-0.8294779999999999
1630932125351,-0.399062,0.351787,-0.828502
1630932125360,-0.40077,0.35014,-0.82472
1630932125370,-0.402478,0.351116,-0.82411
1630932125380,-0.403393,0.35136,-0.825696
1630932125389,-0.404064,0.34953,-0.8276479999999999
1630932125399,-0.40485699999999997,0.348859,-0.827587
1630932125408,-0.406443,0.351116,-0.8273429999999999
1630932125418,-0.40809,0.353495,-0.8291729999999999
1630932125428,-0.41114,0.354776,-0.827404
1630932125437,-0.41107899999999997,0.35892399999999997,-0.82899
1630932125447,-0.410896,0.363438,-0.834602
1630932125456,-0.411628,0.365085,-0.836554
1630932125466,-0.41168899999999997,0.36575599999999997,-0.836859
1630932125476,-0.410408,0.362462,-0.83387
1630932125485,-0.412238,0.35861899999999997,-0.828502
1630932125495,-0.415471,0.356972,-0.8224629999999999
1630932125504,-0.414373,0.356606,-0.819901
1630932125514,-0.414373,0.35495899999999997,-0.818315
1630932125524,-0.414068,0.353861,-0.817705
1630932125533,-0.414373,0.35502,-0.817278
1630932125543,-0.4148,0.357216,-0.820694
1630932125552,-0.414861,0.35739899999999997,-0.8230729999999999
1630932125562,-0.414983,0.35953399999999996,-0.826489
1630932125572,-0.416386,0.35922899999999997,-0.826855
1630932125581,-0.418033,0.358192,-0.8236829999999999
1630932125591,-0.41931399999999996,0.358131,-0.821243
1630932125600,-0.419192,0.35953399999999996,-0.81862
1630932125610,-0.418338,0.360571,-0.818986
1630932125620,-0.420778,0.362889,-0.819291
1630932125629,-0.420046,0.364719,-0.821731
1630932125639,-0.419558,0.367098,-0.822829
1630932125648,-0.420778,0.371063,-0.8242929999999999
1630932125658,-0.420168,0.3721,-0.8264279999999999
1630932125668,-0.41992399999999996,0.369599,-0.822646
1630932125677,-0.420717,0.36972099999999997,-0.819901
1630932125687,-0.41870399999999997,0.370392,-0.81862
1630932125696,-0.418948,0.370575,-0.817156
1630932125706,-0.420473,0.371124,-0.81435
1630932125716,-0.421998,0.374906,-0.81557
1630932125725,-0.420412,0.378139,-0.815936
1630932125735,-0.419558,0.379542,-0.814167
1630932125744,-0.418765,0.380335,-0.812398
1630932125754,-0.417118,0.38021299999999997,-0.812093
1630932125764,-0.41412899999999997,0.37942,-0.813435
1630932125773,-0.413153,0.37807799999999997,-0.812825
1630932125783,-0.414556,0.37746799999999997,-0.812032
1630932125792,-0.413092,0.37594299999999997,-0.810385
1630932125802,-0.41053,0.37637,-0.810568
1630932125812,-0.411018,0.378261,-0.811178
1630932125821,-0.411018,0.378505,-0.811117
1630932125831,-0.411628,0.379054,-0.814777
1630932125840,-0.41260399999999997,0.379542,-0.816912
1630932125850,-0.413336,0.379725,-0.818071
1630932125860,-0.41419,0.37868799999999997,-0.81862
1630932125869,-0.415105,0.378139,-0.819352
1630932125879,-0.41419,0.377956,-0.82045
1630932125888,-0.41663,0.378322,-0.820999
1630932125898,-0.41663,0.37929799999999997,-0.822646
1630932125908,-0.41687399999999997,0.379176,-0.821975
1630932125917,-0.416813,0.380274,-0.822707
1630932125927,-0.415532,0.38173799999999997,-0.8245979999999999
1630932125936,-0.41534899999999997,0.38234799999999997,-0.826489
1630932125946,-0.41687399999999997,0.384727,-0.8258179999999999
1630932125956,-0.416142,0.385947,-0.825452
1630932125965,-0.414251,0.38491,-0.820023
1630932125975,-0.41290899999999997,0.38552,-0.817583
1630932125984,-0.410713,0.386496,-0.815143
1630932125994,-0.409737,0.386618,-0.81069
1630932126004,-0.410164,0.388387,-0.808616
1630932126013,-0.409554,0.388936,-0.807396
1630932126023,-0.409676,0.38917999999999997,-0.805993
1630932126032,-0.408517,0.387838,-0.805932
1630932126042,-0.408944,0.386496,-0.805993
1630932126052,-0.409188,0.385215,-0.807701
1630932126061,-0.409798,0.385764,-0.809287
1630932126071,-0.409066,0.384117,-0.810446
1630932126080,-0.408761,0.38308,-0.81008
1630932126090,-0.408334,0.38186,-0.810385
1630932126100,-0.409127,0.38003,-0.808372
1630932126109,-0.411018,0.38003,-0.80886
1630932126119,-0.410103,0.381494,-0.8121539999999999
1630932126128,-0.412238,0.380274,-0.8133739999999999
1630932126138,-0.41321399999999997,0.37868799999999997,-0.813252
1630932126148,-0.413336,0.37838299999999997,-0.811666
1630932126157,-0.414312,0.381189,-0.810873
1630932126167,-0.414861,0.382531,-0.809775
1630932126176,-0.414495,0.384544,-0.811056
1630932126186,-0.413275,0.388814,-0.814228
1630932126196,-0.411933,0.390156,-0.818742
1630932126205,-0.410652,0.390949,-0.817461
1630932126215,-0.411872,0.389058,-0.8121539999999999
1630932126224,-0.413641,0.386496,-0.809226
1630932126234,-0.41473899999999997,0.383751,-0.806786
1630932126244,-0.414251,0.38387299999999996,-0.807823
1630932126253,-0.412848,0.383812,-0.809531
1630932126263,-0.413031,0.383995,-0.812642
1630932126272,-0.412726,0.384056,-0.8139839999999999
1630932126282,-0.41175,0.386008,-0.814411
1630932126292,-0.411506,0.386496,-0.81313
1630932126301,-0.412421,0.387289,-0.8124589999999999
1630932126311,-0.412238,0.38917999999999997,-0.81313
1630932126320,-0.412421,0.388631,-0.812642
1630932126330,-0.412421,0.388997,-0.81191
1630932126340,-0.413397,0.389851,-0.811666
1630932126349,-0.415227,0.391437,-0.811422
1630932126359,-0.414373,0.392352,-0.8112389999999999
1630932126368,-0.412848,0.392718,-0.809897
1630932126378,-0.4148,0.39436499999999997,-0.811666
1630932126388,-0.415715,0.397354,-0.815082
1630932126397,-0.41382399999999997,0.399794,-0.817583
1630932126407,-0.412055,0.396378,-0.811605
1630932126416,-0.413763,0.392352,-0.80642
1630932126426,-0.411262,0.392657,-0.808006
1630932126436,-0.410469,0.393389,-0.8091039999999999
1630932126445,-0.410896,0.394426,-0.809653
1630932126455,-0.414251,0.397049,-0.8127639999999999
1630932126464,-0.414678,0.399733,-0.81557
1630932126474,-0.41358,0.40089199999999997,-0.818559
1630932126484,-0.41443399999999997,0.40302699999999997,-0.818132
1630932126493,-0.414922,0.405101,-0.817705
1630932126503,-0.414556,0.404674,-0.814228
1630932126512,-0.412543,0.40485699999999997,-0.80764
1630932126522,-0.410164,0.400709,-0.797575
1630932126532,-0.409249,0.395707,-0.791292
1630932126541,-0.409066,0.396073,-0.789462
1630932126551,-0.40821199999999996,0.39558499999999996,-0.789157
1630932126560,-0.40809,0.39558499999999996,-0.788181
1630932126570,-0.407785,0.398391,-0.789523
1630932126580,-0.409371,0.399123,-0.794586
1630932126589,-0.41175,0.401746,-0.798063
1630932126599,-0.41443399999999997,0.406199,-0.8036139999999999
1630932126608,-0.415227,0.408578,-0.806298
1630932126618,-0.415776,0.409554,-0.805505
1630932126628,-0.417057,0.40760199999999996,-0.802943
1630932126637,-0.41724,0.408822,-0.800137
1630932126647,-0.416325,0.408456,-0.797209
1630932126656,-0.417423,0.40790699999999996,-0.793976
1630932126666,-0.417057,0.407846,-0.793427
1630932126676,-0.418216,0.408456,-0.794891
1630932126685,-0.418887,0.408639,-0.79544
1630932126695,-0.41968,0.408456,-0.795318
1630932126704,-0.420351,0.408578,-0.792695
1630932126714,-0.42370599999999997,0.40455199999999997,-0.789401
1630932126724,-0.423035,0.40363699999999997,-0.789828
1630932126733,-0.426512,0.401685,-0.789096
1630932126743,-0.426695,0.40199,-0.790438
1630932126752,-0.42822,0.402783,-0.791841
1630932126762,-0.429745,0.402173,-0.794342
1630932126772,-0.430599,0.40241699999999997,-0.795806
1630932126781,-0.432368,0.403576,-0.795501
1630932126791,-0.43493,0.405894,-0.795379
1630932126800,-0.43663799999999997,0.407419,-0.798002
1630932126810,-0.439322,0.407663,-0.799466
1630932126820,-0.439444,0.40790699999999996,-0.80032
1630932126829,-0.439444,0.410286,-0.800442
1630932126839,-0.43968799999999997,0.413702,-0.797697
1630932126848,-0.439261,0.41602,-0.795684
1630932126858,-0.437675,0.417545,-0.792329
1630932126868,-0.437614,0.41900899999999996,-0.7914749999999999
1630932126877,-0.436699,0.419253,-0.789584
1630932126887,-0.434808,0.41907,-0.785436
1630932126896,-0.434625,0.418155,-0.781593
1630932126906,-0.435296,0.418765,-0.780983
1630932126916,-0.43371,0.419802,-0.781959
1630932126925,-0.433222,0.420961,-0.780861
1630932126935,-0.434076,0.421937,-0.778543
1630932126944,-0.434015,0.422974,-0.778116
1630932126954,-0.43188,0.421876,-0.780983
1630932126964,-0.432856,0.42029,-0.780068
1630932126973,-0.436516,0.41968,-0.779031
1630932126983,-0.437004,0.41778899999999997,-0.7786649999999999
1630932126992,-0.438346,0.415898,-0.780922
1630932127002,-0.438102,0.415715,-0.781898
1630932127012,-0.43938299999999997,0.41663,-0.780983
1630932127021,-0.440664,0.417057,-0.783179
1630932127031,-0.439749,0.41931399999999996,-0.786656
1630932127040,-0.442372,0.423462,-0.7896449999999999
1630932127050,-0.443897,0.426817,-0.790987
1630932127060,-0.44456799999999996,0.427183,-0.789584
1630932127069,-0.44426299999999996,0.426207,-0.785436
1630932127079,-0.443409,0.424255,-0.7801899999999999
1630932127088,-0.442616,0.422974,-0.774334
1630932127098,-0.440725,0.424499,-0.770491
1630932127108,-0.44151799999999997,0.424804,-0.766099
1630932127117,-0.440115,0.425658,-0.764879
1630932127127,-0.439261,0.427549,-0.764818
1630932127136,-0.43846799999999997,0.429379,-0.764818
1630932127146,-0.437797,0.429684,-0.764452
1630932127156,-0.437919,0.429379,-0.7662209999999999
1630932127165,-0.43785799999999997,0.427427,-0.770125
1630932127175,-0.43859,0.426329,-0.772077
1630932127184,-0.439627,0.424987,-0.772321
1630932127194,-0.44042,0.424438,-0.7759199999999999
1630932127204,-0.441457,0.423218,-0.780556
1630932127213,-0.442555,0.422974,-0.781776
1630932127223,-0.444202,0.423645,-0.782874
1630932127232,-0.444507,0.42431599999999997,-0.784277
1630932127242,-0.446764,0.425109,-0.785924
1630932127252,-0.447618,0.425658,-0.7856799999999999
1630932127261,-0.448777,0.426085,-0.785131
1630932127271,-0.448411,0.426512,-0.786046
1630932127280,-0.448899,0.42736599999999997,-0.788242
1630932127290,-0.449997,0.430599,-0.7893399999999999
1630932127300,-0.44865499999999997,0.43249,-0.787754
1630932127309,-0.446764,0.431392,-0.783301
1630932127319,-0.445666,0.431453,-0.778421
1630932127328,-0.442677,0.429928,-0.775066
1630932127338,-0.440359,0.430172,-0.772138
1630932127348,-0.439017,0.432917,-0.769454
1630932127357,-0.43846799999999997,0.436516,-0.766953
1630932127367,-0.437065,0.437614,-0.768356
1630932127376,-0.43663799999999997,0.433344,-0.770491
1630932127386,-0.434442,0.428464,-0.769576
1630932127396,-0.433283,0.427427,-0.768295
1630932127405,-0.433893,0.429623,-0.766587
1630932127415,-0.434076,0.434442,-0.766404
1630932127424,-0.434808,0.43005,-0.766648
1630932127434,-0.433832,0.425048,-0.767563
1630932127444,-0.43493,0.423157,-0.768539
1630932127453,-0.43737,0.425048,-0.76921
1630932127463,-0.439566,0.429074,-0.770064
1630932127472,-0.43999299999999997,0.428647,-0.770552
1630932127482,-0.44347,0.429318,-0.771589
1630932127492,-0.443836,0.43224599999999996,-0.771223
1630932127501,-0.446947,0.42828099999999997,-0.770674
1630932127511,-0.447984,0.42761,-0.77287
1630932127520,-0.447008,0.42553599999999997,-0.773602
1630932127530,-0.447496,0.426207,-0.773358
1630932127540,-0.447557,0.42675599999999997,-0.772016
1630932127549,-0.448777,0.427793,-0.770796
1630932127559,-0.450119,0.42883,-0.768844
1630932127568,-0.449692,0.426512,-0.768905
1630932127578,-0.447679,0.424682,-0.769149
1630932127588,-0.449021,0.423523,-0.770003
1630932127597,-0.447923,0.424072,-0.770918
1630932127607,-0.448106,0.42462099999999997,-0.772138
1630932127616,-0.447984,0.425597,-0.772687
1630932127626,-0.449692,0.42675599999999997,-0.772992
1630932127636,-0.44926499999999997,0.427183,-0.7746999999999999
1630932127645,-0.448838,0.427915,-0.774578
1630932127655,-0.451217,0.429318,-0.777323
1630932127664,-0.449997,0.430294,-0.7774449999999999
1630932127674,-0.450424,0.430294,-0.774273
1630932127684,-0.44956999999999997,0.43066,-0.772077
1630932127693,-0.45292499999999997,0.434137,-0.773053
1630932127703,-0.453352,0.436394,-0.775554
1630932127712,-0.453474,0.438529,-0.776896
1630932127722,-0.452864,0.44029799999999997,-0.777262
1630932127732,-0.452254,0.440786,-0.779336
1630932127741,-0.45170499999999997,0.44103,-0.781166
1630932127751,-0.451278,0.439932,-0.778543
1630932127760,-0.449753,0.437492,-0.775554
1630932127770,-0.448533,0.434625,-0.771833
1630932127780,-0.448472,0.43224599999999996,-0.767014
1630932127789,-0.446276,0.429257,-0.765794
1630932127799,-0.44652,0.42675599999999997,-0.76311
1630932127808,-0.444873,0.429562,-0.764879
1630932127818,-0.44304299999999996,0.42980599999999997,-0.767624
1630932127828,-0.442982,0.429562,-0.769088
1630932127837,-0.44334799999999996,0.429074,-0.770796
1630932127847,-0.444324,0.426207,-0.769332
1630932127856,-0.44426299999999996,0.425658,-0.76799
1630932127866,-0.44591,0.425963,-0.7665259999999999
1630932127876,-0.444812,0.425292,-0.76555
1630932127885,-0.445544,0.42706099999999997,-0.766465
1630932127895,-0.445605,0.42761,-0.76738
1630932127904,-0.446276,0.43133099999999996,-0.768905
1630932127914,-0.447008,0.434137,-0.768966
1630932127924,-0.446337,0.43737,-0.7668309999999999
1630932127933,-0.447008,0.437431,-0.7674409999999999
1630932127943,-0.445544,0.43785799999999997,-0.769454
1630932127952,-0.447191,0.43737,-0.767502
1630932127962,-0.447252,0.43737,-0.76677
1630932127972,-0.447496,0.437675,-0.767014
1630932127981,-0.446276,0.436211,-0.767319
1630932127991,-0.446215,0.435662,-0.7668309999999999
1630932128000,-0.447191,0.434869,-0.767014
1630932128010,-0.446032,0.435906,-0.765977
1630932128020,-0.446703,0.436272,-0.765855
1630932128029,-0.445605,0.434198,-0.765489
1630932128039,-0.447008,0.4331,-0.7650009999999999
1630932128048,-0.44712999999999997,0.430843,-0.764879
1630932128058,-0.446703,0.42919599999999997,-0.766099
1630932128068,-0.446154,0.427549,-0.768783
1630932128077,-0.447191,0.426512,-0.771894
1630932128087,-0.44895999999999997,0.426207,-0.773724
1630932128096,-0.44773999999999997,0.42675599999999997,-0.774395
1630932128106,-0.44895999999999997,0.426268,-0.775859
1630932128116,-0.448716,0.42614599999999997,-0.775371
1630932128125,-0.45048499999999997,0.427122,-0.775981
1630932128135,-0.45017999999999997,0.428708,-0.775676
1630932128144,-0.451888,0.426268,-0.776652
1630932128154,-0.45170499999999997,0.427244,-0.7774449999999999
1630932128164,-0.450729,0.426512,-0.777384
1630932128173,-0.451766,0.426207,-0.777689
1630932128183,-0.451278,0.427549,-0.777628
1630932128192,-0.449082,0.428403,-0.7777499999999999
1630932128202,-0.450241,0.428464,-0.777811
1630932128212,-0.44926499999999997,0.429989,-0.779031
1630932128221,-0.449387,0.43224599999999996,-0.777018
1630932128231,-0.44987499999999997,0.432063,-0.778238
1630932128240,-0.450119,0.432307,-0.7783599999999999
1630932128250,-0.448899,0.432185,-0.7765299999999999
1630932128260,-0.447374,0.431819,-0.773907
1630932128269,-0.446886,0.431575,-0.77104
1630932128279,-0.444751,0.429989,-0.7674409999999999
1630932128288,-0.443226,0.43041599999999997,-0.7646959999999999
1630932128298,-0.44456799999999996,0.430965,-0.763842
1630932128308,-0.443531,0.432002,-0.764208
1630932128317,-0.442616,0.43371,-0.764757
1630932128327,-0.444141,0.434076,-0.766282
1630932128336,-0.443897,0.435296,-0.765977
1630932128346,-0.44426299999999996,0.436211,-0.766038
1630932128356,-0.445056,0.434808,-0.765672
1630932128365,-0.445849,0.434564,-0.766404
1630932128375,-0.446642,0.432612,-0.765489
1630932128384,-0.446154,0.432063,-0.766648
1630932128394,-0.44591,0.431392,-0.766099
1630932128404,-0.446398,0.43011099999999997,-0.7662209999999999
1630932128413,-0.446154,0.430294,-0.765245
1630932128423,-0.447496,0.42980599999999997,-0.764818
1630932128432,-0.448594,0.429257,-0.766099
1630932128442,-0.44895999999999997,0.427854,-0.769149
1630932128452,-0.449936,0.428464,-0.772382
1630932128461,-0.447984,0.428769,-0.772382
1630932128471,-0.447923,0.428403,-0.770735
1630932128480,-0.449204,0.430538,-0.769576
1630932128490,-0.450607,0.433771,-0.770003
1630932128500,-0.450546,0.435479,-0.773419
1630932128509,-0.450607,0.436272,-0.7753099999999999
1630932128519,-0.449692,0.436699,-0.779214
1630932128528,-0.448777,0.434381,-0.782264
1630932128538,-0.449082,0.430172,-0.7829349999999999
1630932128548,-0.45078999999999997,0.42639,-0.780739
1630932128557,-0.450119,0.42578,-0.780129
1630932128567,-0.450119,0.424682,-0.779946
1630932128576,-0.44834999999999997,0.42334,-0.7798849999999999
1630932128586,-0.446398,0.421815,-0.778116
1630932128596,-0.444446,0.419375,-0.776957
1630932128605,-0.442921,0.418582,-0.775981
1630932128615,-0.442616,0.419253,-0.776164
1630932128624,-0.441274,0.420412,-0.777872
1630932128634,-0.43999299999999997,0.420717,-0.777384
1630932128644,-0.440359,0.41992399999999996,-0.775188
1630932128653,-0.441091,0.419436,-0.773602
1630932128663,-0.440969,0.41870399999999997,-0.771772
1630932128672,-0.440786,0.419192,-0.769881
1630932128682,-0.44121299999999997,0.421083,-0.768173
1630932128692,-0.441152,0.424499,-0.769576
1630932128701,-0.43981,0.427793,-0.771955
1630932128711,-0.440542,0.427549,-0.771711
1630932128720,-0.439627,0.427244,-0.772504
1630932128730,-0.439932,0.43011099999999997,-0.772382
1630932128740,-0.439505,0.429318,-0.771467
1630932128749,-0.440359,0.430355,-0.770186
1630932128759,-0.44090799999999997,0.432673,-0.771894
1630932128768,-0.439139,0.433344,-0.775371
1630932128778,-0.43907799999999997,0.434076,-0.776896
1630932128788,-0.440359,0.435784,-0.7771399999999999
1630932128797,-0.440725,0.435662,-0.776408
1630932128807,-0.44042,0.43541799999999997,-0.775737
1630932128816,-0.44042,0.434198,-0.772077
1630932128826,-0.441152,0.434076,-0.769515
1630932128836,-0.43999299999999997,0.433222,-0.76799
1630932128845,-0.43859,0.433832,-0.768417
1630932128855,-0.439566,0.434869,-0.770003
1630932128864,-0.4392,0.434808,-0.770674
1630932128874,-0.44029799999999997,0.436211,-0.772077
1630932128884,-0.44029799999999997,0.437614,-0.773175
1630932128893,-0.439566,0.43798,-0.773724
1630932128903,-0.440176,0.43785799999999997,-0.773053
1630932128912,-0.438834,0.438651,-0.77165
1630932128922,-0.440176,0.440542,-0.769881
1630932128932,-0.440481,0.440664,-0.769149
1630932128941,-0.441762,0.439627,-0.768722
1630932128951,-0.44090799999999997,0.438285,-0.766892
1630932128960,-0.441884,0.4392,-0.76799
1630932128970,-0.44121299999999997,0.438834,-0.768356
1630932128980,-0.442372,0.439017,-0.769698
1630932128989,-0.442372,0.438895,-0.76982
1630932128999,-0.442494,0.439627,-0.76921
1630932129008,-0.442982,0.440237,-0.768661
1630932129018,-0.443287,0.44090799999999997,-0.767807
1630932129028,-0.443714,0.44151799999999997,-0.767075
1630932129037,-0.444751,0.441945,-0.766648
1630932129047,-0.4453,0.44212799999999997,-0.765428
1630932129056,-0.444934,0.44243299999999997,-0.764452
1630932129066,-0.44652,0.44286,-0.764147
1630932129076,-0.44469,0.442677,-0.762988
1630932129085,-0.44591,0.44225,-0.762195
1630932129095,-0.446215,0.43981,-0.7625609999999999
1630932129104,-0.445422,0.43877299999999997,-0.76311
1630932129114,-0.445056,0.438834,-0.763903
1630932129124,-0.446642,0.43968799999999997,-0.763293
1630932129133,-0.44682499999999997,0.43907799999999997,-0.76311
1630932129143,-0.44712999999999997,0.43938299999999997,-0.762378
1630932129152,-0.448289,0.440176,-0.7625609999999999
1630932129162,-0.449326,0.439505,-0.7646959999999999
1630932129172,-0.449448,0.439932,-0.765367
1630932129181,-0.450546,0.440664,-0.7653059999999999
1630932129191,-0.450912,0.44090799999999997,-0.764147
1630932129200,-0.451339,0.441457,-0.763537
1630932129210,-0.450302,0.44060299999999997,-0.762622
1630932129220,-0.450851,0.440481,-0.762378
1630932129229,-0.45109499999999997,0.441152,-0.76128
1630932129239,-0.450607,0.442372,-0.7622559999999999
1630932129248,-0.45292499999999997,0.442494,-0.763354
1630932129258,-0.452742,0.44243299999999997,-0.763659
1630932129268,-0.452559,0.44334799999999996,-0.7610359999999999
1630932129277,-0.452376,0.44408,-0.758657
1630932129287,-0.452498,0.444934,-0.7564609999999999
1630932129296,-0.45444999999999997,0.446093,-0.7555459999999999
1630932129306,-0.452681,0.44956999999999997,-0.759938
1630932129316,-0.45139999999999997,0.452864,-0.76616
1630932129325,-0.450546,0.45322999999999997,-0.7671359999999999
1630932129335,-0.450912,0.45078999999999997,-0.769942
1630932129344,-0.452193,0.447008,-0.76738
1630932129354,-0.453291,0.441945,-0.761829
1630932129364,-0.453169,0.44090799999999997,-0.759328
1630932129373,-0.45292499999999997,0.439505,-0.759755
1630932129383,-0.451644,0.438712,-0.7595109999999999
1630932129392,-0.449997,0.437736,-0.760548
1630932129402,-0.448533,0.439139,-0.760975
1630932129412,-0.448533,0.43968799999999997,-0.76189
1630932129421,-0.44895999999999997,0.440847,-0.763415
1630932129431,-0.449143,0.44121299999999997,-0.76372
1630932129440,-0.450424,0.441457,-0.762073
1630932129450,-0.451156,0.439871,-0.76128
1630932129460,-0.451034,0.440115,-0.7598159999999999
1630932129469,-0.451278,0.4392,-0.7589009999999999
1630932129479,-0.450729,0.43968799999999997,-0.758413
1630932129488,-0.451644,0.442189,-0.759877
1630932129498,-0.451949,0.444141,-0.760914
1630932129508,-0.450912,0.445361,-0.763232
1630932129517,-0.450973,0.443592,-0.761707
1630932129527,-0.452742,0.443775,-0.761097
1630932129536,-0.451461,0.445727,-0.762378
1630932129546,-0.45078999999999997,0.44365299999999996,-0.7616459999999999
1630932129556,-0.451888,0.444812,-0.762195
1630932129565,-0.450302,0.447313,-0.763537
1630932129575,-0.449021,0.447496,-0.764818
1630932129584,-0.449021,0.446581,-0.76433
1630932129594,-0.45048499999999997,0.446337,-0.762683
1630932129604,-0.450668,0.445544,-0.7616459999999999
1630932129613,-0.448167,0.444995,-0.762378
1630932129623,-0.448716,0.443775,-0.7625
1630932129632,-0.448106,0.44151799999999997,-0.761158
1630932129642,-0.44804499999999997,0.440664,-0.759755
1630932129652,-0.447984,0.441091,-0.7592059999999999
1630932129661,-0.446642,0.441274,-0.7616459999999999
1630932129671,-0.446947,0.442067,-0.762744
1630932129680,-0.447008,0.44225,-0.763842
1630932129690,-0.447618,0.443775,-0.766587
1630932129700,-0.447496,0.445117,-0.7668309999999999
1630932129709,-0.447618,0.4453,-0.766648
1630932129719,-0.448411,0.444934,-0.766587
1630932129728,-0.447923,0.44456799999999996,-0.766404
1630932129738,-0.447191,0.444446,-0.765245
1630932129748,-0.446703,0.444324,-0.762195
1630932129757,-0.446703,0.444141,-0.761524
1630932129767,-0.444812,0.444812,-0.759694
1630932129776,-0.445056,0.444324,-0.759084
1630932129786,-0.44456799999999996,0.445117,-0.7592059999999999
1630932129796,-0.44334799999999996,0.44426299999999996,-0.760975
1630932129805,-0.44273799999999996,0.443592,-0.761707
1630932129815,-0.442982,0.443836,-0.763842
1630932129824,-0.44347,0.444507,-0.764208
1630932129834,-0.442006,0.44304299999999996,-0.765489
1630932129844,-0.442616,0.441396,-0.764208
1630932129853,-0.44273799999999996,0.441579,-0.765062
1630932129863,-0.443775,0.442494,-0.76555
1630932129872,-0.442982,0.441884,-0.764879
1630932129882,-0.44426299999999996,0.441396,-0.765489
1630932129892,-0.44469,0.44164,-0.766038
1630932129901,-0.4453,0.443165,-0.7668309999999999
1630932129911,-0.445727,0.44469,-0.767319
1630932129920,-0.446337,0.445666,-0.7677459999999999
1630932129930,-0.447496,0.447008,-0.767319
1630932129940,-0.447008,0.447008,-0.767014
1630932129949,-0.44591,0.446886,-0.766282
1630932129959,-0.446154,0.447008,-0.764513
1630932129968,-0.44591,0.44743499999999997,-0.763049
1630932129978,-0.446398,0.447862,-0.7616459999999999
1630932129988,-0.444751,0.448106,-0.761524
1630932129997,-0.443592,0.449204,-0.761158
1630932130007,-0.44347,0.448899,-0.760365
1630932130016,-0.44243299999999997,0.450302,-0.7601209999999999
1630932130026,-0.442006,0.449082,-0.759938
1630932130036,-0.444324,0.449448,-0.758779
1630932130045,-0.44225,0.449021,-0.755058
1630932130055,-0.443287,0.449387,-0.75152
1630932130064,-0.446398,0.447801,-0.750056
1630932130074,-0.446398,0.450607,-0.752862
1630932130084,-0.445117,0.452254,-0.75823
1630932130093,-0.444324,0.455548,-0.7656109999999999
1630932130103,-0.444934,0.455548,-0.767258
1630932130112,-0.445544,0.454572,-0.767685
1630932130122,-0.44682499999999997,0.449631,-0.7659159999999999
1630932130132,-0.448472,0.443592,-0.761463
1630932130141,-0.449753,0.442372,-0.759755
1630932130151,-0.448472,0.44225,-0.7595109999999999
1630932130160,-0.44712999999999997,0.441762,-0.7601209999999999
1630932130170,-0.446337,0.44151799999999997,-0.759938
1630932130180,-0.4453,0.443287,-0.759389
1630932130189,-0.446398,0.444385,-0.75823
1630932130199,-0.446581,0.444507,-0.758474
1630932130208,-0.445727,0.445056,-0.757803
1630932130218,-0.447191,0.44456799999999996,-0.756705
1630932130228,-0.449204,0.44408,-0.755973
1630932130237,-0.449021,0.44408,-0.7555459999999999
1630932130247,-0.449082,0.443165,-0.75579
1630932130256,-0.450119,0.442921,-0.7555459999999999
1630932130266,-0.451034,0.444446,-0.756827
1630932130276,-0.451827,0.448228,-0.760365
1630932130285,-0.451583,0.44834999999999997,-0.762622
1630932130295,-0.453291,0.447252,-0.760914
1630932130304,-0.454816,0.447496,-0.762012
1630932130314,-0.455182,0.44804499999999997,-0.763598
1630932130324,-0.454267,0.447984,-0.763598
1630932130333,-0.456097,0.449692,-0.764574
1630932130343,-0.454816,0.450302,-0.764452
1630932130352,-0.45231499999999997,0.450302,-0.76433
1630932130362,-0.452193,0.449814,-0.765184
1630932130372,-0.45261999999999997,0.44956999999999997,-0.764147
1630932130381,-0.451888,0.449082,-0.761829
1630932130391,-0.451766,0.447374,-0.759023
1630932130400,-0.45048499999999997,0.445605,-0.759572
1630932130410,-0.450424,0.44365299999999996,-0.759145
1630932130420,-0.450973,0.44243299999999997,-0.757498
1630932130429,-0.44956999999999997,0.441701,-0.758779
1630932130439,-0.449631,0.442189,-0.7607309999999999
1630932130448,-0.449082,0.441762,-0.761402
1630932130458,-0.449326,0.443104,-0.761524
1630932130468,-0.449143,0.443897,-0.76128
1630932130477,-0.449997,0.445422,-0.760487
1630932130487,-0.450302,0.446276,-0.760548
1630932130496,-0.451522,0.446703,-0.7616459999999999
1630932130506,-0.450607,0.447374,-0.7613409999999999
1630932130516,-0.450119,0.446581,-0.761829
1630932130525,-0.450363,0.446398,-0.760975
1630932130535,-0.450424,0.445666,-0.760548
1630932130544,-0.449814,0.446642,-0.759633
1630932130554,-0.448167,0.446459,-0.759328
1630932130564,-0.448594,0.444934,-0.759145
1630932130573,-0.448594,0.444812,-0.75884
1630932130583,-0.449204,0.445971,-0.758962
1630932130592,-0.448594,0.4453,-0.758779
1630932130602,-0.448167,0.444629,-0.7585959999999999
1630932130612,-0.44926499999999997,0.44347,-0.756644
1630932130621,-0.449692,0.442372,-0.756583
1630932130631,-0.450912,0.442067,-0.757193
1630932130640,-0.451888,0.442189,-0.757498
1630932130650,-0.451461,0.441945,-0.757193
1630932130660,-0.45170499999999997,0.442067,-0.7576809999999999
1630932130669,-0.451583,0.442311,-0.756583
1630932130679,-0.451583,0.44304299999999996,-0.755058
1630932130688,-0.453474,0.444934,-0.7558509999999999
1630932130698,-0.454328,0.446581,-0.75762
1630932130708,-0.455731,0.44652,-0.759755
1630932130717,-0.454694,0.444873,-0.759755
1630932130727,-0.454328,0.444446,-0.76189
1630932130736,-0.453108,0.44426299999999996,-0.765428
1630932130746,-0.452071,0.443714,-0.767868
1630932130756,-0.452437,0.442616,-0.767929
1630932130765,-0.45322999999999997,0.441457,-0.765794
1630932130775,-0.452498,0.441945,-0.7634759999999999
1630932130784,-0.453047,0.442067,-0.7640859999999999
1630932130794,-0.452498,0.441396,-0.7646959999999999
1630932130804,-0.451583,0.441579,-0.766404
1630932130813,-0.450668,0.441945,-0.764025
1630932130823,-0.451156,0.440176,-0.761768
1630932130832,-0.451278,0.441396,-0.76067
1630932130842,-0.450302,0.44456799999999996,-0.7613409999999999
1630932130852,-0.449509,0.445849,-0.762927
1630932130861,-0.450119,0.449814,-0.7634759999999999
1630932130871,-0.44987499999999997,0.452864,-0.764269
1630932130880,-0.45048499999999997,0.451888,-0.765123
1630932130890,-0.448106,0.449326,-0.76372
1630932130900,-0.44926499999999997,0.447496,-0.760548
1630932130909,-0.450668,0.446276,-0.757315
1630932130919,-0.449936,0.443531,-0.757559
1630932130928,-0.448838,0.442006,-0.7595109999999999
1630932130938,-0.449448,0.441884,-0.758474
1630932130948,-0.448838,0.440969,-0.756827
1630932130957,-0.448472,0.44090799999999997,-0.756949
1630932130967,-0.44804499999999997,0.442189,-0.757559
1630932130976,-0.44743499999999997,0.444507,-0.758535
1630932130986,-0.448472,0.445056,-0.76006
1630932130996,-0.44804499999999997,0.445544,-0.76006
1630932131005,-0.44804499999999997,0.443287,-0.758962
1630932131015,-0.448594,0.44273799999999996,-0.757315
1630932131024,-0.448594,0.442982,-0.755729
1630932131034,-0.45017999999999997,0.442067,-0.755058
1630932131044,-0.44926499999999997,0.443592,-0.755119
1630932131053,-0.449204,0.446459,-0.757315
1630932131063,-0.449387,0.446886,-0.757254
1630932131072,-0.449753,0.446337,-0.756827
1630932131082,-0.45017999999999997,0.446337,-0.7579859999999999
1630932131092,-0.449936,0.447679,-0.760792
1630932131101,-0.450119,0.446886,-0.760914
1630932131111,-0.452132,0.446459,-0.759328
1630932131120,-0.451217,0.44743499999999997,-0.761829
1630932131130,-0.451461,0.448106,-0.762317
1630932131140,-0.450851,0.448594,-0.7610359999999999
1630932131149,-0.45170499999999997,0.44895999999999997,-0.760487
1630932131159,-0.450729,0.44865499999999997,-0.758718
1630932131168,-0.451339,0.447923,-0.75701
1630932131178,-0.452071,0.44773999999999997,-0.755668
1630932131188,-0.453657,0.445666,-0.754204
1630932131197,-0.454572,0.444812,-0.755302
1630932131207,-0.454816,0.445788,-0.756827
1630932131216,-0.455548,0.444141,-0.758657
1630932131226,-0.455853,0.442006,-0.758962
1630932131236,-0.455731,0.44029799999999997,-0.762073
1630932131245,-0.456646,0.440115,-0.762744
1630932131255,-0.457195,0.441945,-0.762988
1630932131264,-0.458049,0.44243299999999997,-0.763903
1630932131274,-0.457866,0.443226,-0.7659159999999999
1630932131284,-0.457744,0.444934,-0.7662209999999999
1630932131293,-0.456341,0.445605,-0.7674409999999999
1630932131303,-0.456158,0.447069,-0.766709
1630932131312,-0.454877,0.447862,-0.766648
1630932131322,-0.45475499999999996,0.449204,-0.766282
1630932131332,-0.454572,0.448167,-0.763964
1630932131341,-0.454389,0.44834999999999997,-0.762439
1630932131351,-0.45566999999999996,0.45017999999999997,-0.760792
1630932131360,-0.455121,0.451156,-0.759694
1630932131370,-0.454206,0.450912,-0.75823
1630932131380,-0.45322999999999997,0.450302,-0.754387
1630932131389,-0.452559,0.44895999999999997,-0.749995
1630932131399,-0.451644,0.44804499999999997,-0.746152
1630932131408,-0.450668,0.445849,-0.7434069999999999
1630932131418,-0.450058,0.444812,-0.743895
1630932131428,-0.450607,0.443409,-0.745969
1630932131437,-0.449936,0.445056,-0.747128
1630932131447,-0.452986,0.443287,-0.749202
1630932131456,-0.453413,0.444324,-0.751154
1630932131466,-0.454572,0.44243299999999997,-0.751764
1630932131476,-0.455487,0.44304299999999996,-0.754082
1630932131485,-0.453962,0.44164,-0.755729
1630932131495,-0.45566999999999996,0.44182299999999997,-0.757132
1630932131504,-0.454877,0.442006,-0.758718
1630932131514,-0.456036,0.441091,-0.75823
1630932131524,-0.455609,0.439566,-0.759328
1630932131533,-0.45658499999999996,0.43968799999999997,-0.758474
1630932131543,-0.458171,0.439749,-0.758535
1630932131552,-0.458598,0.439749,-0.759633
1630932131562,-0.458354,0.440481,-0.75884
1630932131572,-0.460306,0.44151799999999997,-0.758474
1630932131581,-0.462929,0.44243299999999997,-0.759084
1630932131591,-0.46311199999999997,0.44408,-0.75823
1630932131600,-0.465613,0.446032,-0.757925
1630932131610,-0.46726,0.445788,-0.756705
1630932131620,-0.46665,0.445239,-0.755424
1630932131629,-0.463966,0.443287,-0.7537159999999999
1630932131639,-0.462868,0.445727,-0.7524959999999999
1630932131648,-0.461221,0.448106,-0.749263
1630932131658,-0.461526,0.448838,-0.748897
1630932131668,-0.460794,0.449204,-0.749751
1630932131677,-0.45933,0.452071,-0.751398
1630932131687,-0.459879,0.452376,-0.7515809999999999
1630932131696,-0.464576,0.454999,-0.754753
1630932131706,-0.464698,0.45811,-0.758352
1630932131716,-0.465979,0.45811,-0.759877
1630932131725,-0.46677199999999996,0.457195,-0.759572
1630932131735,-0.468846,0.454084,-0.756827
1630932131744,-0.470493,0.451827,-0.754387
1630932131754,-0.46848,0.448167,-0.7531059999999999
1630932131764,-0.46707699999999996,0.445971,-0.749934
1630932131773,-0.465308,0.445056,-0.74664
1630932131783,-0.465369,0.444202,-0.746701
1630932131792,-0.46433199999999997,0.445971,-0.748714
1630932131802,-0.462258,0.447679,-0.75152
1630932131812,-0.462441,0.44834999999999997,-0.750422
1630932131821,-0.464576,0.44804499999999997,-0.748226
1630932131831,-0.46372199999999997,0.447984,-0.748104
1630932131840,-0.46543,0.448472,-0.745603
1630932131850,-0.46250199999999997,0.445544,-0.744993
1630932131860,-0.462563,0.446032,-0.74176
1630932131869,-0.463478,0.447557,-0.740906
1630932131879,-0.462319,0.449631,-0.7424919999999999
1630932131888,-0.462441,0.449936,-0.743712
1630932131898,-0.46402699999999997,0.447984,-0.743712
1630932131908,-0.46311199999999997,0.450241,-0.746152
1630932131917,-0.462624,0.45292499999999997,-0.747067
1630932131927,-0.463173,0.452803,-0.745603
1630932131936,-0.464149,0.451949,-0.746518
1630932131946,-0.46177,0.450302,-0.7503
1630932131956,-0.460733,0.448472,-0.753594
1630932131965,-0.460123,0.448106,-0.757559
1630932131975,-0.462929,0.448838,-0.758169
1630932131984,-0.466894,0.447984,-0.759145
1630932131994,-0.466101,0.44682499999999997,-0.760243
1630932132004,-0.46341699999999997,0.44456799999999996,-0.7598159999999999
1630932132013,-0.464698,0.44334799999999996,-0.7592059999999999
1630932132023,-0.466345,0.442189,-0.75823
1630932132032,-0.464515,0.440115,-0.760792
1630932132042,-0.463661,0.440664,-0.7619509999999999
1630932132052,-0.463844,0.44273799999999996,-0.763903
1630932132061,-0.462746,0.444446,-0.765733
1630932132071,-0.461221,0.445361,-0.76738
1630932132080,-0.463234,0.447862,-0.76616
1630932132090,-0.463844,0.448594,-0.764513
1630932132100,-0.462441,0.453596,-0.76494
1630932132109,-0.458598,0.458293,-0.767258
1630932132119,-0.457988,0.462624,-0.768112
1630932132128,-0.456097,0.466406,-0.7650009999999999
1630932132138,-0.45627999999999996,0.468175,-0.76128
1630932132148,-0.45475499999999996,0.467565,-0.7573759999999999
1630932132157,-0.45170499999999997,0.46665,-0.752374
1630932132167,-0.448594,0.462685,-0.748104
1630932132176,-0.447191,0.460306,-0.745969
1630932132186,-0.44804499999999997,0.46067199999999997,-0.746579
1630932132196,-0.448472,0.458476,-0.74969
1630932132205,-0.446581,0.455426,-0.753045
1630932132215,-0.444873,0.451583,-0.753472
1630932132224,-0.44456799999999996,0.44926499999999997,-0.756278
1630932132234,-0.443287,0.446276,-0.759084
1630932132244,-0.440054,0.446093,-0.760365
1630932132253,-0.43615,0.447984,-0.759633
1630932132263,-0.437736,0.448899,-0.759328
1630932132272,-0.433771,0.45048499999999997,-0.763049
1630932132282,-0.43249,0.452864,-0.7656109999999999
1630932132292,-0.431087,0.454389,-0.766038
1630932132301,-0.427732,0.453474,-0.7668309999999999
1630932132311,-0.426024,0.453169,-0.766587
1630932132320,-0.423035,0.454572,-0.767258
1630932132330,-0.422791,0.457927,-0.769149
1630932132340,-0.420534,0.460916,-0.76799
1630932132349,-0.41907,0.46402699999999997,-0.766343
1630932132359,-0.417606,0.463844,-0.762012
1630932132368,-0.415166,0.46177,-0.761524
1630932132378,-0.411262,0.456951,-0.7625
1630932132388,-0.409615,0.455304,-0.764635
1630932132397,-0.408456,0.455731,-0.764757
1630932132407,-0.40748,0.455426,-0.7653059999999999
1630932132416,-0.407358,0.458354,-0.767685
1630932132426,-0.40504,0.457683,-0.76921
1630932132436,-0.404491,0.459879,-0.770369
1630932132445,-0.404796,0.463173,-0.771467
1630932132455,-0.40394199999999997,0.46433199999999997,-0.77287
1630932132464,-0.40211199999999997,0.46421,-0.77226
1630932132474,-0.401563,0.466528,-0.77287
1630932132484,-0.39894,0.46707699999999996,-0.775249
1630932132493,-0.396988,0.46860199999999996,-0.7777499999999999
1630932132503,-0.395219,0.46787,-0.779641
1630932132512,-0.392291,0.46646699999999996,-0.777506
1630932132522,-0.390461,0.46726,-0.775676
1630932132532,-0.391071,0.47153,-0.7753099999999999
1630932132541,-0.39131499999999997,0.47543399999999997,-0.7771399999999999
1630932132551,-0.389302,0.479216,-0.779458
1630932132560,-0.39100999999999997,0.484218,-0.778238
1630932132570,-0.389912,0.48684099999999997,-0.7783599999999999
1630932132580,-0.388082,0.48556,-0.778421
1630932132589,-0.387472,0.484889,-0.778726
1630932132599,-0.386862,0.481412,-0.776896
1630932132608,-0.386008,0.47885,-0.775554
1630932132618,-0.386313,0.477691,-0.772748
1630932132628,-0.385825,0.477813,-0.76921
1630932132637,-0.38552,0.47702,-0.7656109999999999
1630932132647,-0.386435,0.47878899999999996,-0.7659159999999999
1630932132656,-0.38491,0.480497,-0.76738
1630932132666,-0.384849,0.482998,-0.766404
1630932132676,-0.38491,0.486414,-0.766038
1630932132685,-0.384239,0.488122,-0.7668309999999999
1630932132695,-0.385886,0.488427,-0.7650009999999999
1630932132704,-0.386069,0.489525,-0.7616459999999999
1630932132714,-0.386862,0.49105,-0.758169
1630932132724,-0.385947,0.49166,-0.75579
1630932132733,-0.385276,0.49172099999999996,-0.7585959999999999
1630932132743,-0.383934,0.49172099999999996,-0.761158
1630932132752,-0.384666,0.493185,-0.760609
1630932132762,-0.385276,0.49471,-0.758108
1630932132772,-0.387167,0.497089,-0.757803
1630932132781,-0.388692,0.499529,-0.75762
1630932132791,-0.391376,0.499102,-0.756095
1630932132800,-0.388997,0.500322,-0.754997
1630932132810,-0.387106,0.50264,-0.755485
1630932132820,-0.38734999999999997,0.504043,-0.756705
1630932132829,-0.385093,0.506544,-0.757742
1630932132839,-0.387106,0.509289,-0.7582909999999999
1630932132848,-0.387594,0.510753,-0.7567659999999999
1630932132858,-0.388509,0.51301,-0.7555459999999999
1630932132868,-0.388631,0.512034,-0.7549359999999999
1630932132877,-0.388997,0.51179,-0.752374
1630932132887,-0.388936,0.510082,-0.749629
1630932132896,-0.38856999999999997,0.510631,-0.748958
1630932132906,-0.389119,0.513742,-0.748104
1630932132916,-0.387228,0.5145959999999999,-0.74725
1630932132925,-0.386191,0.5158159999999999,-0.744932
1630932132935,-0.385886,0.5197809999999999,-0.744505
1630932132944,-0.385459,0.523502,-0.74298
1630932132954,-0.385154,0.52826,-0.74176
1630932132964,-0.384178,0.531859,-0.742309
1630932132973,-0.383202,0.530639,-0.742126
1630932132983,-0.38308,0.529175,-0.741821
1630932132992,-0.383812,0.529114,-0.741089
1630932133002,-0.38552,0.528382,-0.740784
1630932133012,-0.387106,0.531066,-0.7409669999999999
1630932133021,-0.387472,0.528992,-0.7412719999999999
1630932133031,-0.387594,0.532591,-0.74054
1630932133040,-0.38613,0.530822,-0.739198
1630932133050,-0.388326,0.530517,-0.7391369999999999
1630932133060,-0.386618,0.530334,-0.740296
1630932133069,-0.387228,0.532042,-0.7388319999999999
1630932133079,-0.388082,0.532774,-0.737124
1630932133088,-0.389241,0.53375,-0.737368
1630932133098,-0.39039999999999997,0.534421,-0.738344
1630932133108,-0.391498,0.535092,-0.737673
1630932133117,-0.392596,0.53192,-0.738649
1630932133127,-0.393694,0.533811,-0.7391369999999999
1630932133136,-0.394548,0.531737,-0.738954
1630932133146,-0.394792,0.531005,-0.739808
1630932133156,-0.395768,0.530517,-0.739259
1630932133165,-0.3965,0.531737,-0.740235
1630932133175,-0.395219,0.529724,-0.7412719999999999
1630932133184,-0.394121,0.528321,-0.7424919999999999
1630932133194,-0.392291,0.530029,-0.742309
1630932133204,-0.393511,0.531249,-0.74237
1630932133213,-0.393511,0.531737,-0.741455
1630932133223,-0.393206,0.530822,-0.7391369999999999
1630932133232,-0.390949,0.529602,-0.738161
1630932133242,-0.391498,0.529114,-0.737185
1630932133252,-0.388692,0.528809,-0.73871
1630932133261,-0.389363,0.527284,-0.739503
1630932133271,-0.389058,0.52521,-0.740479
1630932133280,-0.388143,0.524173,-0.741516
1630932133290,-0.387533,0.521428,-0.742553
1630932133300,-0.386862,0.521062,-0.741821
1630932133309,-0.386435,0.520635,-0.741211
1630932133319,-0.382897,0.520818,-0.743163
1630932133328,-0.3843,0.520574,-0.743773
1630932133338,-0.38552,0.521245,-0.744505
1630932133348,-0.385032,0.52277,-0.745237
1630932133357,-0.38295799999999997,0.52521,-0.743224
1630932133367,-0.384178,0.526003,-0.740174
1630932133376,-0.385032,0.528565,-0.7397469999999999
1630932133386,-0.383812,0.533567,-0.743041
1630932133396,-0.381555,0.5383249999999999,-0.751093
1630932133405,-0.38082299999999997,0.539057,-0.753167
1630932133415,-0.37960299999999997,0.536007,-0.75274
1630932133424,-0.378322,0.530944,-0.750727
1630932133434,-0.380579,0.527345,-0.746701
1630932133444,-0.382287,0.525271,-0.7424919999999999
1630932133453,-0.38143299999999997,0.523502,-0.741516
1630932133463,-0.379054,0.5219159999999999,-0.739686
1630932133472,-0.37746799999999997,0.520269,-0.740174
1630932133482,-0.377651,0.5200859999999999,-0.7394419999999999
1630932133492,-0.378139,0.519964,-0.7397469999999999
1630932133501,-0.378139,0.52155,-0.7412719999999999
1630932133511,-0.37881,0.522587,-0.744871
1630932133520,-0.377346,0.522465,-0.746579
1630932133530,-0.379115,0.522465,-0.745176
1630932133540,-0.380335,0.520574,-0.745054
1630932133549,-0.38003,0.519232,-0.745054
1630932133559,-0.37899299999999997,0.517768,-0.746274
1630932133568,-0.37942,0.5176459999999999,-0.74786
1630932133578,-0.38064,0.517585,-0.750422
1630932133588,-0.380457,0.5194759999999999,-0.751154
1630932133597,-0.38186,0.518622,-0.748775
1630932133607,-0.382836,0.51972,-0.749995
1630932133616,-0.38112799999999997,0.518988,-0.752313
1630932133626,-0.379847,0.5200859999999999,-0.7546309999999999
1630932133636,-0.38064,0.520879,-0.754692
1630932133645,-0.380457,0.520879,-0.754753
1630932133655,-0.379542,0.520757,-0.755363
1630932133664,-0.378139,0.5206959999999999,-0.755424
1630932133674,-0.38051799999999997,0.519537,-0.7543259999999999
1630932133684,-0.381616,0.518988,-0.754875
1630932133693,-0.379176,0.518195,-0.75518
1630932133703,-0.37899299999999997,0.5170359999999999,-0.7531059999999999
1630932133712,-0.37838299999999997,0.515938,-0.752984
1630932133722,-0.37807799999999997,0.5155109999999999,-0.752984
1630932133732,-0.377651,0.51301,-0.754143
1630932133741,-0.377041,0.512339,-0.757498
1630932133751,-0.37746799999999997,0.511424,-0.757254
1630932133760,-0.377529,0.510082,-0.758474
1630932133770,-0.37637,0.508313,-0.7610359999999999
1630932133780,-0.376126,0.504165,-0.7604259999999999
1630932133789,-0.37576,0.502335,-0.762134
1630932133799,-0.375699,0.50264,-0.763659
1630932133808,-0.375211,0.500627,-0.7653059999999999
1630932133818,-0.373808,0.501054,-0.765794
1630932133828,-0.376492,0.500322,-0.766709
1630932133837,-0.375028,0.497882,-0.76677
1630932133847,-0.373747,0.498004,-0.7674409999999999
1630932133856,-0.373137,0.49611299999999997,-0.770918
1630932133866,-0.373381,0.49580799999999997,-0.772321
1630932133876,-0.372954,0.493917,-0.772626
1630932133885,-0.371978,0.492514,-0.772504
1630932133895,-0.372039,0.48989099999999997,-0.773663
1630932133904,-0.37155099999999996,0.48867099999999997,-0.774456
1630932133914,-0.37088,0.486658,-0.774456
1630932133924,-0.370087,0.485499,-0.773358
1630932133933,-0.371307,0.48373,-0.772809
1630932133943,-0.370758,0.481717,-0.774029
1630932133952,-0.370209,0.481046,-0.7746999999999999
1630932133962,-0.370575,0.47970399999999996,-0.774639
1630932133972,-0.37088,0.478118,-0.774212
1630932133981,-0.372954,0.477691,-0.775432
1630932133991,-0.372832,0.47665399999999997,-0.777567
1630932134000,-0.372405,0.475373,-0.779519
1630932134010,-0.372222,0.473116,-0.782508
1630932134020,-0.37332,0.471408,-0.783118
1630932134029,-0.373808,0.469456,-0.782752
1630932134039,-0.373503,0.46738199999999996,-0.782996
1630932134048,-0.373869,0.466101,-0.784521
1630932134058,-0.374723,0.46463699999999997,-0.788059
1630932134068,-0.375272,0.463905,-0.789584
1630932134077,-0.374967,0.461648,-0.791048
1630932134087,-0.373137,0.459086,-0.791719
1630932134096,-0.371673,0.4575,-0.793305
1630932134106,-0.3721,0.457012,-0.794159
1630932134116,-0.37332,0.454633,-0.795013
1630932134125,-0.37454,0.452376,-0.795501
1630932134135,-0.374052,0.44987499999999997,-0.793366
1630932134144,-0.375211,0.448533,-0.789828
1630932134154,-0.37685799999999997,0.446581,-0.7893399999999999
1630932134164,-0.379176,0.446886,-0.791536
1630932134173,-0.379664,0.447862,-0.795318
1630932134183,-0.38112799999999997,0.44895999999999997,-0.798063
1630932134192,-0.381494,0.44712999999999997,-0.800747
1630932134202,-0.383446,0.444385,-0.803431
1630932134212,-0.384178,0.440542,-0.805627
1630932134221,-0.387289,0.435662,-0.805322
1630932134231,-0.388082,0.432734,-0.8060539999999999
1630932134240,-0.388326,0.429989,-0.806786
1630932134250,-0.38795999999999997,0.427732,-0.80459
1630932134260,-0.388509,0.426085,-0.802821
1630932134269,-0.389058,0.424987,-0.800686
1630932134279,-0.38917999999999997,0.423828,-0.800137
1630932134288,-0.388448,0.422486,-0.802333
1630932134298,-0.388143,0.420656,-0.805017
1630932134308,-0.388814,0.418643,-0.806908
1630932134317,-0.388753,0.414678,-0.808982
1630932134327,-0.388204,0.41199399999999997,-0.809653
1630932134336,-0.389851,0.409554,-0.81008
1630932134346,-0.390217,0.4087,-0.8091039999999999
1630932134356,-0.39009499999999997,0.406931,-0.809226
1630932134365,-0.392413,0.40748,-0.810202
1630932134375,-0.392657,0.407175,-0.812581
1630932134384,-0.393816,0.40443,-0.812947
1630932134394,-0.394426,0.401685,-0.815753
1630932134404,-0.393816,0.398818,-0.820206
1630932134413,-0.392962,0.396683,-0.8235
1630932134423,-0.393816,0.394792,-0.824964
1630932134432,-0.393999,0.39466999999999997,-0.826611
1630932134442,-0.39222999999999997,0.393999,-0.829966
1630932134452,-0.390949,0.391864,-0.8319179999999999
1630932134461,-0.39070499999999997,0.38856999999999997,-0.835944
1630932134471,-0.390644,0.386801,-0.8374079999999999
1630932134480,-0.390034,0.38387299999999996,-0.837774
1630932134490,-0.389729,0.38051799999999997,-0.8377129999999999
1630932134500,-0.390339,0.37746799999999997,-0.835334
1630932134509,-0.390888,0.374052,-0.833992
1630932134519,-0.391864,0.371307,-0.8322229999999999
1630932134528,-0.39070499999999997,0.368928,-0.829722
1630932134538,-0.388814,0.36478,-0.827465
1630932134548,-0.388753,0.360998,-0.825757
1630932134557,-0.387167,0.358741,-0.82472
1630932134567,-0.385642,0.356606,-0.825086
1630932134576,-0.384849,0.356362,-0.826855
1630932134586,-0.384361,0.356301,-0.828746
1630932134596,-0.385825,0.35770399999999997,-0.83204
1630932134605,-0.386313,0.35678899999999997,-0.835212
1630932134615,-0.387289,0.354898,-0.836737
1630932134624,-0.386191,0.352763,-0.837591
1630932134634,-0.387472,0.349225,-0.837774
1630932134644,-0.386496,0.347334,-0.838384
1630932134653,-0.387167,0.34660199999999997,-0.837164
1630932134663,-0.386008,0.345321,-0.837469
1630932134672,-0.386679,0.345748,-0.8367979999999999
1630932134682,-0.387716,0.344711,-0.837164
1630932134692,-0.38613,0.344955,-0.83814
1630932134701,-0.38613,0.345748,-0.839665
1630932134711,-0.38734999999999997,0.345931,-0.840092
1630932134720,-0.386679,0.34648,-0.841678
1630932134730,-0.386618,0.34599199999999997,-0.842654
1630932134740,-0.386984,0.34538199999999997,-0.842593
1630932134749,-0.38795999999999997,0.343918,-0.842959
1630932134759,-0.389241,0.343491,-0.841922
1630932134768,-0.390217,0.342698,-0.840702
1630932134778,-0.390827,0.341478,-0.842166
1630932134788,-0.388387,0.34038,-0.842532
1630932134797,-0.389546,0.340868,-0.842227
1630932134807,-0.390278,0.33916,-0.843691
1630932134816,-0.389607,0.340746,-0.843935
1630932134826,-0.391498,0.341844,-0.843508
1630932134836,-0.391132,0.339282,-0.842593
1630932134845,-0.392169,0.341783,-0.843874
1630932134855,-0.394853,0.34141699999999997,-0.844545
1630932134864,-0.396012,0.341539,-0.842959
1630932134874,-0.397415,0.34294199999999997,-0.841068
1630932134884,-0.399489,0.34416199999999997,-0.838567
1630932134893,-0.396134,0.34355199999999997,-0.843569
1630932134903,-0.398025,0.344284,-0.842898
1630932134912,-0.397781,0.342881,-0.843996
1630932134922,-0.398147,0.34080699999999997,-0.842471
1630932134932,-0.401136,0.337696,-0.837774
1630932134941,-0.403698,0.338611,-0.8389329999999999
1630932134951,-0.408334,0.34355199999999997,-0.8404579999999999
1630932134960,-0.40821199999999996,0.346053,-0.841922
1630932134970,-0.407419,0.35014,-0.841251
1630932134980,-0.408456,0.353007,-0.841129
1630932134989,-0.407968,0.35251899999999997,-0.844972
1630932134999,-0.40729699999999996,0.349835,-0.843813
1630932135008,-0.408517,0.348005,-0.841983
1630932135018,-0.408822,0.344528,-0.8401529999999999
1630932135028,-0.409188,0.34282,-0.8392379999999999
1630932135037,-0.407358,0.337879,-0.836432
1630932135047,-0.407236,0.336293,-0.831857
1630932135056,-0.406931,0.334097,-0.8294779999999999
1630932135066,-0.407358,0.335012,-0.829417
1630932135076,-0.408334,0.3355,-0.83021
1630932135085,-0.408273,0.337025,-0.8297829999999999
1630932135095,-0.409005,0.337757,-0.8297829999999999
1630932135104,-0.409554,0.336415,-0.830454
1630932135114,-0.408944,0.335561,-0.830271
1630932135124,-0.410225,0.336415,-0.830149
1630932135133,-0.41138399999999997,0.33672,-0.83021
1630932135143,-0.41236,0.338245,-0.829295
1630932135152,-0.413092,0.33977,-0.829417
1630932135162,-0.41382399999999997,0.34172199999999997,-0.828624
1630932135172,-0.41382399999999997,0.34263699999999997,-0.827282
1630932135181,-0.415105,0.34221,-0.826245
1630932135191,-0.415715,0.345138,-0.827587
1630932135200,-0.416447,0.346541,-0.827099
1630932135210,-0.417423,0.345626,-0.82594
1630932135220,-0.418826,0.346968,-0.824415
1630932135229,-0.419802,0.347273,-0.8242929999999999
1630932135239,-0.41968,0.349042,-0.82472
1630932135248,-0.4209,0.34831,-0.8252079999999999
1630932135258,-0.419863,0.3477,-0.82655
1630932135268,-0.421083,0.347517,-0.825696
1630932135277,-0.421388,0.346663,-0.825086
1630932135287,-0.421388,0.347456,-0.8235
1630932135296,-0.421571,0.348005,-0.823927
1630932135306,-0.423828,0.347273,-0.824842
1630932135316,-0.423279,0.347395,-0.82411
1630932135325,-0.424499,0.347334,-0.823134
1630932135335,-0.426634,0.34629699999999997,-0.823256
1630932135344,-0.427122,0.345443,-0.824354
1630932135354,-0.42761,0.346724,-0.825574
1630932135364,-0.428159,0.346724,-0.827099
1630932135373,-0.428464,0.346236,-0.8285629999999999
1630932135383,-0.427732,0.346236,-0.829417
1630932135392,-0.429318,0.345748,-0.8306979999999999
1630932135402,-0.429684,0.34660199999999997,-0.830271
1630932135412,-0.432124,0.346175,-0.8310029999999999
1630932135421,-0.431575,0.3477,-0.830149
1630932135431,-0.431148,0.348127,-0.830759
1630932135440,-0.432368,0.349164,-0.830881
1630932135450,-0.432734,0.350628,-0.829722
1630932135460,-0.434991,0.350872,-0.8288679999999999
1630932135469,-0.433283,0.35160399999999997,-0.829356
1630932135479,-0.434808,0.353068,-0.8288679999999999
1630932135488,-0.435235,0.354166,-0.829295
1630932135498,-0.433283,0.353312,-0.82899
1630932135508,-0.4331,0.35319,-0.82655
1630932135517,-0.432002,0.353312,-0.825452
1630932135527,-0.42944,0.352458,-0.8230729999999999
1630932135536,-0.42797599999999997,0.353617,-0.81984
1630932135546,-0.426329,0.353678,-0.818071
1630932135556,-0.424682,0.352702,-0.816485
1630932135565,-0.424377,0.35258,-0.817705
1630932135575,-0.423828,0.35258,-0.817339
1630932135584,-0.424377,0.35136,-0.817156
1630932135594,-0.423523,0.349835,-0.817278
1630932135604,-0.423462,0.348432,-0.818437
1630932135613,-0.42395,0.347944,-0.821121
1630932135623,-0.422364,0.34587,-0.821121
1630932135632,-0.422852,0.343186,-0.820206
1630932135642,-0.421998,0.343125,-0.819779
1630932135652,-0.421998,0.34233199999999997,-0.819718
1630932135661,-0.422059,0.340685,-0.820145
1630932135671,-0.42212,0.341356,-0.820999
1630932135680,-0.421205,0.34202699999999997,-0.818986
1630932135690,-0.421693,0.34324699999999997,-0.817522
1630932135700,-0.422486,0.345016,-0.816546
1630932135709,-0.421998,0.34709,-0.819474
1630932135719,-0.421998,0.34831,-0.822219
1630932135728,-0.422425,0.349347,-0.8230729999999999
1630932135738,-0.423584,0.349713,-0.823927
1630932135748,-0.422974,0.346053,-0.8258179999999999
1630932135757,-0.422242,0.344101,-0.828014
1630932135767,-0.423584,0.342393,-0.827831
1630932135776,-0.424865,0.341356,-0.830027
1630932135786,-0.426024,0.336598,-0.8297829999999999
1630932135796,-0.42553599999999997,0.334402,-0.827099
1630932135805,-0.425048,0.33336499999999997,-0.825025
1630932135815,-0.42492599999999997,0.332694,-0.825086
1630932135824,-0.425109,0.334402,-0.8279529999999999
1630932135834,-0.42492599999999997,0.336781,-0.830881
1630932135844,-0.424743,0.338184,-0.83326
1630932135853,-0.425475,0.339404,-0.834907
1630932135863,-0.426085,0.338672,-0.8343579999999999
1630932135872,-0.426634,0.339953,-0.833504
1630932135882,-0.427488,0.34233199999999997,-0.8296
1630932135892,-0.42767099999999997,0.342515,-0.828197
1630932135901,-0.428525,0.343796,-0.827099
1630932135911,-0.428464,0.34568699999999997,-0.82716
1630932135920,-0.427732,0.347944,-0.827221
1630932135930,-0.428159,0.34629699999999997,-0.826306
1630932135940,-0.428098,0.346846,-0.8249029999999999
1630932135949,-0.426817,0.349103,-0.827526
1630932135959,-0.423767,0.346541,-0.826306
1630932135968,-0.425353,0.34599199999999997,-0.8245979999999999
1630932135978,-0.426024,0.34721199999999997,-0.8249029999999999
1630932135988,-0.424743,0.346724,-0.82655
1630932135997,-0.424499,0.34721199999999997,-0.826184
1630932136007,-0.425109,0.348554,-0.826306
1630932136016,-0.424438,0.347761,-0.826184
1630932136026,-0.42395,0.347761,-0.8252079999999999
1630932136036,-0.425475,0.347395,-0.823805
1630932136045,-0.425658,0.34721199999999997,-0.822951
1630932136055,-0.42456,0.345016,-0.8227679999999999
1630932136064,-0.424804,0.34477199999999997,-0.821731
1630932136074,-0.424438,0.343308,-0.822402
1630932136084,-0.424072,0.342698,-0.821914
1630932136093,-0.425719,0.34324699999999997,-0.8230729999999999
1630932136103,-0.426085,0.343674,-0.8233779999999999
1630932136112,-0.425597,0.345016,-0.823805
1630932136122,-0.424377,0.344894,-0.825635
1630932136132,-0.42517,0.34446699999999997,-0.825696
1630932136141,-0.425353,0.345199,-0.825391
1630932136151,-0.425414,0.344406,-0.82411
1630932136160,-0.42553599999999997,0.343796,-0.8236829999999999
1630932136170,-0.425719,0.34385699999999997,-0.822707
1630932136180,-0.425414,0.34538199999999997,-0.821609
1630932136189,-0.425475,0.344894,-0.8224629999999999
1630932136199,-0.42492599999999997,0.345443,-0.822646
1630932136208,-0.425658,0.344711,-0.82289
1630932136218,-0.425048,0.345626,-0.8235
1630932136228,-0.42431599999999997,0.345016,-0.824354
1630932136237,-0.424743,0.34587,-0.82289
1630932136247,-0.425292,0.344711,-0.822707
1630932136256,-0.425414,0.344894,-0.82228
1630932136266,-0.42639,0.34526,-0.822646
1630932136276,-0.42736599999999997,0.344345,-0.823134
1630932136285,-0.427122,0.345016,-0.823622
1630932136295,-0.42736599999999997,0.345748,-0.823805
1630932136304,-0.42797599999999997,0.345565,-0.824354
1630932136314,-0.427305,0.344711,-0.8227679999999999
1630932136324,-0.428708,0.343674,-0.821975
1630932136333,-0.42919599999999997,0.34465,-0.822402
1630932136343,-0.430965,0.34477199999999997,-0.823256
1630932136352,-0.430294,0.345748,-0.82533
1630932136362,-0.428403,0.34599199999999997,-0.826489
1630932136372,-0.428647,0.346663,-0.826916
1630932136381,-0.429562,0.347029,-0.825757
1630932136391,-0.430599,0.347578,-0.82289
1630932136400,-0.430477,0.34831,-0.8224629999999999
1630932136410,-0.430599,0.348554,-0.82167
1630932136420,-0.432612,0.346724,-0.821853
1630932136429,-0.431575,0.348737,-0.822097
1630932136439,-0.43072099999999997,0.351055,-0.821731
1630932136448,-0.43011099999999997,0.35312899999999997,-0.819962
1630932136458,-0.431758,0.353617,-0.81679
1630932136468,-0.431453,0.356667,-0.816363
1630932136477,-0.430538,0.35868,-0.816851
1630932136487,-0.43041599999999997,0.362828,-0.819901
1630932136496,-0.428098,0.362767,-0.82411
1630932136506,-0.428464,0.361364,-0.826306
1630932136516,-0.427549,0.357826,-0.8242929999999999
1630932136525,-0.429989,0.353373,-0.820328
1630932136535,-0.43005,0.351116,-0.81923
1630932136544,-0.429623,0.350628,-0.818864
1630932136554,-0.427183,0.348188,-0.816302
1630932136564,-0.42675599999999997,0.346053,-0.813313
1630932136573,-0.427244,0.34648,-0.814045
1630932136583,-0.426573,0.347578,-0.815387
1630932136592,-0.426268,0.349103,-0.817034
1630932136602,-0.428769,0.350994,-0.818437
1630932136612,-0.429379,0.350201,-0.818803
1630932136621,-0.43066,0.350201,-0.8174
1630932136631,-0.43133099999999996,0.350323,-0.816241
1630932136640,-0.430843,0.351177,-0.817156
1630932136650,-0.43255099999999996,0.35373899999999997,-0.816485
1630932136660,-0.43249,0.35624,-0.818376
1630932136669,-0.432002,0.356911,-0.820572
1630932136679,-0.430904,0.35563,-0.818925
1630932136688,-0.432612,0.355996,-0.8161189999999999
1630932136698,-0.432368,0.35746,-0.81679
1630932136708,-0.431148,0.357643,-0.817095
1630932136717,-0.431819,0.357521,-0.814716
1630932136727,-0.43102599999999996,0.359351,-0.816363
1630932136736,-0.430904,0.359778,-0.818498
1630932136746,-0.43072099999999997,0.359168,-0.820084
1630932136756,-0.430355,0.359107,-0.820145
1630932136765,-0.430477,0.358131,-0.81984
1630932136775,-0.43188,0.35648399999999997,-0.817522
1630932136784,-0.430965,0.355996,-0.817278
1630932136794,-0.430538,0.354288,-0.817888
1630932136804,-0.43072099999999997,0.353556,-0.81801
1630932136813,-0.431514,0.353678,-0.817705
1630932136823,-0.430538,0.353251,-0.81923
1630932136832,-0.429928,0.353495,-0.82045
1630932136842,-0.42919599999999997,0.35312899999999997,-0.821426
1630932136852,-0.430538,0.354166,-0.82167
1630932136861,-0.430538,0.3538,-0.82106
1630932136871,-0.431209,0.355752,-0.821914
1630932136880,-0.43072099999999997,0.35678899999999997,-0.823012
1630932136890,-0.429745,0.356606,-0.823134
1630932136900,-0.429013,0.356118,-0.821975
1630932136909,-0.430172,0.35685,-0.819718
