timestamp,ax,ay,az
1630932113008,-0.33074951171875,-0.22515869140625,0.928466796875
1630932113008,-0.3370361328125,-0.23162841796875,0.9185791015625
1630932113009,-0.3458251953125,-0.2413330078125,0.91766357421875
1630932113053,-0.31622314453125,-0.1866455078125,0.9459228515625
1630932113053,-0.3095703125,-0.1722412109375,0.94451904296875
1630932113054,-0.32049560546875,-0.208251953125,0.9412841796875
1630932113191,-0.30474853515625,-0.1536865234375,0.94659423828125
1630932113191,-0.29058837890625,-0.13421630859375,0.9461669921875
1630932113191,-0.29241943359375,-0.145751953125,0.94647216796875
1630932113237,-0.283203125,-0.11102294921875,0.94317626953125
1630932113243,-0.287841796875,-0.1234130859375,0.944580078125
1630932113243,-0.28204345703125,-0.1103515625,0.93829345703125
1630932113342,-0.26904296875,-0.09954833984375,0.94500732421875
1630932113342,-0.2828369140625,-0.10687255859375,0.94659423828125
1630932113343,-0.280029296875,-0.1021728515625,0.946533203125
1630932113430,-0.2637939453125,-0.092041015625,0.94915771484375
1630932113430,-0.26361083984375,-0.09246826171875,0.953369140625
1630932113430,-0.26708984375,-0.095947265625,0.94366455078125
1630932113457,-0.2559814453125,-0.07867431640625,0.96612548828125
1630932113458,-0.25836181640625,-0.08941650390625,0.95477294921875
1630932113458,-0.2567138671875,-0.0850830078125,0.96197509765625
1630932113500,-0.25030517578125,-0.07403564453125,0.9708251953125
1630932113500,-0.2510986328125,-0.08013916015625,0.97021484375
1630932113500,-0.25531005859375,-0.0731201171875,0.9730224609375
1630932113570,-0.25042724609375,-0.06646728515625,0.97589111328125
1630932113571,-0.25482177734375,-0.06524658203125,0.97760009765625
1630932113571,-0.25469970703125,-0.0635986328125,0.9774169921875
1630932113598,-0.254638671875,-0.060302734375,0.97210693359375
1630932113598,-0.25677490234375,-0.05902099609375,0.96673583984375
1630932113598,-0.259521484375,-0.05401611328125,0.9739990234375
1630932113637,-0.2625732421875,-0.06292724609375,0.95379638671875
1630932113638,-0.26116943359375,-0.0589599609375,0.9515380859375
1630932113638,-0.261474609375,-0.05877685546875,0.9617919921875
1630932113660,-0.2581787109375,-0.04974365234375,0.9488525390625
1630932113664,-0.2628173828125,-0.04901123046875,0.95208740234375
1630932113665,-0.261962890625,-0.04925537109375,0.9451904296875
1630932113747,-0.2579345703125,-0.049560546875,0.94879150390625
1630932113747,-0.259033203125,-0.04656982421875,0.953369140625
1630932113747,-0.25506591796875,-0.04315185546875,0.95635986328125
1630932113786,-0.25067138671875,-0.0439453125,0.95416259765625
1630932113786,-0.253173828125,-0.0467529296875,0.9578857421875
1630932113787,-0.25628662109375,-0.04412841796875,0.954833984375
1630932113933,-0.25225830078125,-0.039306640625,0.95562744140625
1630932113944,-0.251708984375,-0.0416259765625,0.96142578125
1630932113944,-0.25537109375,-0.0465087890625,0.9593505859375
1630932113953,-0.25469970703125,-0.0394287109375,0.9661865234375
1630932113953,-0.256103515625,-0.040283203125,0.9610595703125
1630932113957,-0.25164794921875,-0.03887939453125,0.9600830078125
1630932114015,-0.253173828125,-0.03204345703125,0.96929931640625
1630932114016,-0.2484130859375,-0.02978515625,0.968017578125
1630932114016,-0.250732421875,-0.0325927734375,0.96673583984375
1630932114146,-0.249267578125,-0.03070068359375,0.969970703125
1630932114147,-0.25201416015625,-0.03326416015625,0.9727783203125
1630932114147,-0.25604248046875,-0.02850341796875,0.97052001953125
1630932114172,-0.26129150390625,-0.02569580078125,0.958984375
1630932114172,-0.251953125,-0.03045654296875,0.9617919921875
1630932114173,-0.2532958984375,-0.0277099609375,0.96710205078125
1630932114192,-0.25677490234375,-0.0260009765625,0.951171875
1630932114199,-0.2542724609375,-0.02685546875,0.95550537109375
1630932114203,-0.258544921875,-0.02850341796875,0.95294189453125
1630932114207,-0.254150390625,-0.03167724609375,0.956298828125
1630932114208,-0.254638671875,-0.02874755859375,0.9613037109375
1630932114210,-0.25872802734375,-0.02667236328125,0.95721435546875
1630932114263,-0.25408935546875,-0.03070068359375,0.96173095703125
1630932114263,-0.256103515625,-0.03167724609375,0.9609375
1630932114264,-0.2568359375,-0.0313720703125,0.96063232421875
1630932114486,-0.26080322265625,-0.03411865234375,0.9593505859375
1630932114486,-0.26019287109375,-0.03564453125,0.9593505859375
1630932114486,-0.25909423828125,-0.03192138671875,0.95806884765625
1630932114554,-0.26165771484375,-0.03411865234375,0.9525146484375
1630932114555,-0.26446533203125,-0.034423828125,0.95513916015625
1630932114575,-0.265380859375,-0.03662109375,0.9532470703125
1630932114638,-0.2669677734375,-0.03607177734375,0.9525146484375
1630932114639,-0.2642822265625,-0.0333251953125,0.9508056640625
1630932114691,-0.2647705078125,-0.0302734375,0.95721435546875
1630932114706,-0.264404296875,-0.029541015625,0.9505615234375
1630932114708,-0.26531982421875,-0.02911376953125,0.9547119140625
1630932114722,-0.26580810546875,-0.0281982421875,0.96002197265625
1630932114728,-0.26544189453125,-0.029541015625,0.96343994140625
1630932114730,-0.2650146484375,-0.03192138671875,0.96649169921875
1630932114754,-0.26739501953125,-0.0313720703125,0.96942138671875
1630932114756,-0.263916015625,-0.04071044921875,0.9610595703125
1630932114756,-0.26495361328125,-0.037841796875,0.9637451171875
1630932114773,-0.26348876953125,-0.03271484375,0.95697021484375
1630932114781,-0.26220703125,-0.0338134765625,0.96380615234375
1630932114782,-0.262451171875,-0.03363037109375,0.96307373046875
1630932114783,-0.25909423828125,-0.03326416015625,0.9564208984375
1630932114783,-0.26275634765625,-0.03314208984375,0.95379638671875
1630932114787,-0.2640380859375,-0.03668212890625,0.96630859375
1630932114787,-0.26287841796875,-0.0255126953125,0.95184326171875
1630932114789,-0.26324462890625,-0.029296875,0.9498291015625
1630932114795,-0.2607421875,-0.03289794921875,0.95965576171875
1630932114844,-0.2674560546875,-0.0390625,0.96484375
1630932114844,-0.26580810546875,-0.03863525390625,0.96734619140625
1630932114844,-0.266357421875,-0.04095458984375,0.9620361328125
1630932114912,-0.27154541015625,-0.042236328125,0.95831298828125
1630932114913,-0.2708740234375,-0.041748046875,0.958740234375
1630932114913,-0.27374267578125,-0.03924560546875,0.95513916015625
1630932115030,-0.27691650390625,-0.02630615234375,0.95751953125
1630932115031,-0.2713623046875,-0.0323486328125,0.9561767578125
1630932115032,-0.2734375,-0.02960205078125,0.9569091796875
1630932115223,-0.2801513671875,-0.01702880859375,0.96343994140625
1630932115223,-0.2821044921875,-0.0162353515625,0.9649658203125
1630932115223,-0.2779541015625,-0.0234375,0.96527099609375
1630932115429,-0.2947998046875,-0.01873779296875,0.953369140625
1630932115430,-0.287109375,-0.0267333984375,0.95880126953125
1630932115435,-0.27801513671875,-0.02386474609375,0.960205078125
1630932115468,-0.3118896484375,0.01861572265625,0.92333984375
1630932115470,-0.30926513671875,0.00140380859375,0.9373779296875
1630932115494,-0.31494140625,0.0355224609375,0.9119873046875
1630932115496,-0.302734375,-0.01385498046875,0.9530029296875
1630932115498,-0.32440185546875,0.0911865234375,0.9072265625
1630932115498,-0.31842041015625,0.06048583984375,0.9063720703125
1630932115525,-0.34454345703125,0.23248291015625,0.90264892578125
1630932115526,-0.32763671875,0.1185302734375,0.909423828125
1630932115526,-0.33685302734375,0.15020751953125,0.91058349609375
1630932115536,-0.35076904296875,0.248046875,0.90594482421875
1630932115538,-0.33929443359375,0.180419921875,0.90924072265625
1630932115548,-0.3421630859375,0.20361328125,0.90374755859375
1630932115634,-0.356201171875,0.27349853515625,0.9091796875
1630932115634,-0.35870361328125,0.3037109375,0.90576171875
1630932115637,-0.36663818359375,0.327392578125,0.918212890625
1630932115650,-0.3865966796875,0.33514404296875,0.83612060546875
1630932115650,-0.3779296875,0.34783935546875,0.84613037109375
1630932115651,-0.3726806640625,0.347900390625,0.86260986328125
1630932115652,-0.36907958984375,0.341064453125,0.8922119140625
1630932115653,-0.37115478515625,0.32977294921875,0.950927734375
1630932115653,-0.36895751953125,0.34002685546875,0.9189453125
1630932115816,-0.3897705078125,0.29644775390625,0.845947265625
1630932115816,-0.3944091796875,0.30743408203125,0.84503173828125
1630932115816,-0.39202880859375,0.3287353515625,0.84051513671875
1630932115844,-0.36737060546875,0.16656494140625,0.9031982421875
1630932115844,-0.376953125,0.19366455078125,0.90478515625
1630932115847,-0.37823486328125,0.224365234375,0.8726806640625
1630932115849,-0.38702392578125,0.2459716796875,0.85821533203125
1630932115850,-0.36883544921875,0.14508056640625,0.91229248046875
1630932115850,-0.3712158203125,0.159423828125,0.90850830078125
1630932115851,-0.3919677734375,0.27264404296875,0.8504638671875
1630932115853,-0.383544921875,0.2352294921875,0.86297607421875
1630932115855,-0.36859130859375,0.21533203125,0.8809814453125
1630932115961,-0.36090087890625,0.11480712890625,0.8902587890625
1630932115961,-0.35687255859375,0.10614013671875,0.87091064453125
1630932115962,-0.36920166015625,0.130126953125,0.902587890625
1630932116051,-0.3460693359375,0.0546875,0.9019775390625
1630932116051,-0.34979248046875,0.069091796875,0.89251708984375
1630932116051,-0.336669921875,0.0443115234375,0.91021728515625
1630932116052,-0.3504638671875,0.08197021484375,0.8795166015625
1630932116052,-0.3507080078125,0.09814453125,0.8668212890625
1630932116054,-0.32684326171875,0.0308837890625,0.9222412109375
1630932116099,-0.325439453125,0.019287109375,0.94049072265625
1630932116110,-0.321533203125,0.016845703125,0.94854736328125
1630932116110,-0.3099365234375,0.0235595703125,0.93524169921875
1630932116181,-0.30389404296875,-0.0455322265625,1.03619384765625
1630932116182,-0.30206298828125,0.02313232421875,0.94720458984375
1630932116185,-0.2972412109375,-0.00335693359375,0.9951171875
1630932116187,-0.3026123046875,0.01605224609375,0.97479248046875
1630932116197,-0.2999267578125,-0.0166015625,1.02032470703125
1630932116197,-0.3001708984375,-0.0321044921875,1.0400390625
1630932116211,-0.3148193359375,-0.08917236328125,0.91595458984375
1630932116213,-0.31561279296875,-0.07958984375,0.94061279296875
1630932116213,-0.31060791015625,-0.0543212890625,1.0203857421875
1630932116213,-0.31280517578125,-0.0723876953125,0.964599609375
1630932116213,-0.31201171875,-0.06231689453125,0.99786376953125
1630932116214,-0.3052978515625,-0.08660888671875,0.917236328125
1630932116369,-0.32281494140625,-0.02874755859375,0.90252685546875
1630932116369,-0.32611083984375,-0.03778076171875,0.9002685546875
1630932116370,-0.31988525390625,-0.05548095703125,0.90826416015625
1630932116374,-0.31402587890625,-0.0894775390625,0.91888427734375
1630932116374,-0.32513427734375,-0.04534912109375,0.9007568359375
1630932116374,-0.32208251953125,-0.08184814453125,0.91204833984375
1630932116381,-0.323974609375,-0.05120849609375,0.90216064453125
1630932116387,-0.31964111328125,-0.066162109375,0.91046142578125
1630932116394,-0.32135009765625,-0.01788330078125,0.90216064453125
1630932116498,-0.32366943359375,-0.005615234375,0.91375732421875
1630932116498,-0.3194580078125,-0.00201416015625,0.92010498046875
1630932116498,-0.32183837890625,-0.0126953125,0.90911865234375
1630932116661,-0.32281494140625,0.002197265625,0.93109130859375
1630932116661,-0.31451416015625,0.0009765625,0.95184326171875
1630932116661,-0.31842041015625,0.00341796875,0.9423828125
1630932116719,-0.31939697265625,-0.003662109375,0.96282958984375
1630932116721,-0.315185546875,-0.01531982421875,0.9658203125
1630932116721,-0.31475830078125,-0.01171875,0.9681396484375
1630932116746,-0.30535888671875,-0.011474609375,0.95233154296875
1630932116746,-0.309814453125,-0.0145263671875,0.957275390625
1630932116755,-0.31231689453125,-0.0189208984375,0.96295166015625
1630932116854,-0.30133056640625,0.00152587890625,0.9471435546875
1630932116854,-0.29815673828125,0.01593017578125,0.95318603515625
1630932116855,-0.30584716796875,-0.00341796875,0.9508056640625
1630932116941,-0.29632568359375,0.02789306640625,0.95001220703125
1630932116942,-0.2982177734375,0.0330810546875,0.9552001953125
1630932116951,-0.29608154296875,0.035888671875,0.95538330078125
1630932117102,-0.2957763671875,0.03948974609375,0.9449462890625
1630932117104,-0.29510498046875,0.05718994140625,0.93646240234375
1630932117104,-0.295654296875,0.04180908203125,0.93865966796875
1630932117151,-0.288330078125,0.0543212890625,0.93658447265625
1630932117155,-0.29278564453125,0.05084228515625,0.9403076171875
1630932117156,-0.2911376953125,0.05718994140625,0.93896484375
1630932117156,-0.2906494140625,0.0511474609375,0.9390869140625
1630932117157,-0.294677734375,0.0537109375,0.94146728515625
1630932117177,-0.2906494140625,0.05511474609375,0.93389892578125
1630932117353,-0.28289794921875,0.05059814453125,0.951416015625
1630932117353,-0.28643798828125,0.05499267578125,0.94122314453125
1630932117365,-0.28582763671875,0.05157470703125,0.94683837890625
1630932117393,-0.2813720703125,0.04864501953125,0.95196533203125
1630932117394,-0.28179931640625,0.04425048828125,0.966064453125
1630932117395,-0.28228759765625,0.04962158203125,0.96136474609375
1630932117415,-0.28424072265625,0.03472900390625,0.96942138671875
1630932117429,-0.2808837890625,0.0406494140625,0.97125244140625
1630932117440,-0.283935546875,0.03924560546875,0.975341796875
1630932117463,-0.290771484375,0.017333984375,0.9638671875
1630932117464,-0.28936767578125,0.0252685546875,0.97235107421875
1630932117465,-0.28851318359375,0.0299072265625,0.9676513671875
1630932117508,-0.3004150390625,0.012451171875,0.9388427734375
1630932117508,-0.29888916015625,0.0142822265625,0.9345703125
1630932117509,-0.29327392578125,0.01312255859375,0.9549560546875
1630932117516,-0.29833984375,0.007568359375,0.9417724609375
1630932117517,-0.2960205078125,0.009521484375,0.9503173828125
1630932117520,-0.29461669921875,0.01300048828125,0.93878173828125
1630932117545,-0.3001708984375,0.01849365234375,0.9359130859375
1630932117545,-0.29888916015625,0.01605224609375,0.92974853515625
1630932117545,-0.30096435546875,0.01708984375,0.931884765625
1630932117708,-0.299072265625,0.0206298828125,0.938232421875
1630932117709,-0.3043212890625,0.02032470703125,0.94586181640625
1630932117709,-0.29449462890625,0.022705078125,0.929931640625
1630932117709,-0.29986572265625,0.01739501953125,0.95147705078125
1630932117709,-0.299072265625,0.0157470703125,0.94287109375
1630932117738,-0.29058837890625,0.0224609375,0.93939208984375
1630932117738,-0.28717041015625,0.0225830078125,0.927490234375
1630932117738,-0.2894287109375,0.02490234375,0.9228515625
1630932117782,-0.2879638671875,0.03302001953125,0.95062255859375
1630932117782,-0.287841796875,0.02691650390625,0.94622802734375
1630932117783,-0.28753662109375,0.02960205078125,0.94580078125
1630932117868,-0.282470703125,0.035888671875,0.96331787109375
1630932117868,-0.287841796875,0.03948974609375,0.960693359375
1630932117868,-0.287353515625,0.0352783203125,0.960205078125
1630932117869,-0.28558349609375,0.0302734375,0.96002197265625
1630932117871,-0.28662109375,0.0355224609375,0.957275390625
1630932117872,-0.291259765625,0.0328369140625,0.95654296875
1630932117923,-0.28448486328125,0.0367431640625,0.9619140625
1630932117923,-0.281982421875,0.040771484375,0.95611572265625
1630932117924,-0.28106689453125,0.036865234375,0.95635986328125
1630932117933,-0.2830810546875,0.03594970703125,0.95135498046875
1630932117935,-0.280029296875,0.03271484375,0.9541015625
1630932117942,-0.27978515625,0.036376953125,0.952880859375
1630932117962,-0.2801513671875,0.037109375,0.9442138671875
1630932117962,-0.27801513671875,0.03118896484375,0.951416015625
1630932117962,-0.27728271484375,0.0355224609375,0.94744873046875
1630932117984,-0.28424072265625,0.032470703125,0.94549560546875
1630932117985,-0.281982421875,0.02880859375,0.944091796875
1630932117988,-0.2823486328125,0.0355224609375,0.946044921875
1630932118017,-0.2822265625,0.0308837890625,0.9481201171875
1630932118031,-0.28240966796875,0.0272216796875,0.955078125
1630932118031,-0.28314208984375,0.0311279296875,0.95159912109375
1630932118047,-0.274658203125,0.02386474609375,0.95184326171875
1630932118055,-0.278076171875,0.0228271484375,0.95159912109375
1630932118056,-0.2808837890625,0.02716064453125,0.955810546875
1630932118128,-0.2716064453125,0.02642822265625,0.95172119140625
1630932118128,-0.27386474609375,0.02587890625,0.948974609375
1630932118128,-0.27325439453125,0.02960205078125,0.95135498046875
1630932118337,-0.26611328125,0.03839111328125,0.956787109375
1630932118339,-0.26806640625,0.03155517578125,0.960693359375
1630932118367,-0.2681884765625,0.03515625,0.96649169921875
1630932118392,-0.25775146484375,0.0377197265625,0.9517822265625
1630932118393,-0.258544921875,0.04156494140625,0.95172119140625
1630932118395,-0.250732421875,0.04345703125,0.9490966796875
1630932118512,-0.2469482421875,0.05670166015625,0.9686279296875
1630932118512,-0.240966796875,0.0494384765625,0.97271728515625
1630932118512,-0.23895263671875,0.0457763671875,0.97320556640625
1630932118556,-0.2398681640625,0.04217529296875,0.96856689453125
1630932118557,-0.23797607421875,0.0460205078125,0.97021484375
1630932118557,-0.24029541015625,0.04583740234375,0.97216796875
1630932118718,-0.243896484375,0.0362548828125,0.96923828125
1630932118718,-0.24359130859375,0.0401611328125,0.96319580078125
1630932118783,-0.2420654296875,0.03668212890625,0.9642333984375
1630932118783,-0.24151611328125,0.0313720703125,0.96453857421875
1630932118784,-0.24407958984375,0.03875732421875,0.9639892578125
1630932118894,-0.24420166015625,0.01556396484375,0.96923828125
1630932118894,-0.24530029296875,0.02130126953125,0.96710205078125
1630932118894,-0.24560546875,0.02508544921875,0.96929931640625
1630932118912,-0.2459716796875,0.0123291015625,0.96612548828125
1630932118913,-0.2431640625,0.01116943359375,0.96728515625
1630932118914,-0.24285888671875,0.013427734375,0.96649169921875
1630932118928,-0.2457275390625,0.0152587890625,0.96405029296875
1630932118941,-0.2423095703125,0.01544189453125,0.96783447265625
1630932118943,-0.2452392578125,0.01416015625,0.96685791015625
1630932119137,-0.2469482421875,0.0174560546875,0.96533203125
1630932119137,-0.24749755859375,0.0157470703125,0.964111328125
1630932119137,-0.24603271484375,0.014892578125,0.96282958984375
1630932119161,-0.2430419921875,0.00775146484375,0.95965576171875
1630932119163,-0.24566650390625,0.00872802734375,0.961669921875
1630932119163,-0.25079345703125,0.0125732421875,0.95947265625
1630932119165,-0.24853515625,0.00823974609375,0.95941162109375
1630932119172,-0.24652099609375,0.005126953125,0.96429443359375
1630932119183,-0.24481201171875,0.01416015625,0.96234130859375
1630932119232,-0.24456787109375,0.01715087890625,1.02276611328125
1630932119233,-0.24267578125,0.0107421875,0.970458984375
1630932119234,-0.241943359375,0.01666259765625,0.993896484375
1630932119235,-0.2386474609375,0.01507568359375,1.019775390625
1630932119235,-0.24029541015625,0.01171875,0.96539306640625
1630932119236,-0.2427978515625,0.01177978515625,0.9608154296875
1630932119298,-0.25140380859375,0.013671875,0.9859619140625
1630932119298,-0.24285888671875,0.01788330078125,0.99847412109375
1630932119299,-0.2432861328125,0.0106201171875,1.010986328125
1630932119379,-0.25390625,0.01806640625,0.97808837890625
1630932119379,-0.272705078125,0.0086669921875,0.96942138671875
1630932119381,-0.26275634765625,0.0159912109375,0.97210693359375
1630932119403,-0.30517578125,0.015625,0.92803955078125
1630932119413,-0.29437255859375,0.0150146484375,0.94464111328125
1630932119413,-0.28558349609375,0.011962890625,0.95819091796875
1630932119469,-0.34375,0.00506591796875,0.890869140625
1630932119469,-0.3514404296875,0.00396728515625,0.87884521484375
1630932119469,-0.32861328125,0.0057373046875,0.89300537109375
1630932119470,-0.36187744140625,-0.002197265625,0.87225341796875
1630932119471,-0.31573486328125,0.01025390625,0.9114990234375
1630932119471,-0.37017822265625,-0.0079345703125,0.86578369140625
1630932119544,-0.37738037109375,-0.00982666015625,0.86102294921875
1630932119544,-0.37896728515625,-0.0064697265625,0.85595703125
1630932119545,-0.372314453125,-0.01068115234375,0.86627197265625
1630932119698,-0.37451171875,0.006591796875,0.87255859375
1630932119698,-0.37738037109375,0.00860595703125,0.86895751953125
1630932119698,-0.3812255859375,0.003662109375,0.866455078125
1630932119782,-0.37017822265625,0.01739501953125,0.88653564453125
1630932119790,-0.35296630859375,0.01763916015625,0.90264892578125
1630932119791,-0.3646240234375,0.01800537109375,0.89178466796875
1630932119822,-0.33447265625,0.022216796875,0.93292236328125
1630932119823,-0.3265380859375,0.03582763671875,0.9439697265625
1630932119824,-0.34429931640625,0.02337646484375,0.91461181640625
1630932119919,-0.308837890625,0.04931640625,0.96795654296875
1630932119921,-0.2618408203125,0.07421875,0.97344970703125
1630932119921,-0.291259765625,0.06182861328125,0.96673583984375
1630932119967,-0.20025634765625,0.11761474609375,1.04180908203125
1630932119968,-0.22515869140625,0.099365234375,1.06817626953125
1630932119970,-0.25189208984375,0.08746337890625,1.0272216796875
1630932120043,-0.19586181640625,0.1290283203125,1.0235595703125
1630932120044,-0.18170166015625,0.13885498046875,1.02655029296875
1630932120045,-0.18634033203125,0.1475830078125,1.0137939453125
1630932120097,-0.18438720703125,0.1571044921875,0.99462890625
1630932120097,-0.193359375,0.166015625,0.988525390625
1630932120097,-0.1942138671875,0.17401123046875,0.9736328125
1630932120134,-0.198486328125,0.17437744140625,0.96783447265625
1630932120134,-0.21697998046875,0.16741943359375,0.975830078125
1630932120135,-0.22308349609375,0.16180419921875,0.96893310546875
1630932120162,-0.2252197265625,0.156005859375,0.954833984375
1630932120162,-0.2479248046875,0.14019775390625,0.93414306640625
1630932120163,-0.23309326171875,0.149658203125,0.94329833984375
1630932120252,-0.2547607421875,0.13641357421875,0.9202880859375
1630932120254,-0.25958251953125,0.13568115234375,0.9215087890625
1630932120261,-0.28082275390625,0.12396240234375,0.92486572265625
1630932120261,-0.267822265625,0.130126953125,0.917724609375
1630932120261,-0.28558349609375,0.1129150390625,0.9234619140625
1630932120261,-0.25274658203125,0.1368408203125,0.92730712890625
1630932120302,-0.3140869140625,0.087890625,0.9207763671875
1630932120302,-0.29510498046875,0.1005859375,0.91143798828125
1630932120303,-0.30218505859375,0.09588623046875,0.9105224609375
1630932120320,-0.30615234375,0.07049560546875,0.903564453125
1630932120323,-0.31170654296875,0.0745849609375,0.9110107421875
1630932120323,-0.30926513671875,0.08245849609375,0.9166259765625
1630932120402,-0.28240966796875,0.08709716796875,0.9176025390625
1630932120406,-0.2601318359375,0.099853515625,0.926025390625
1630932120406,-0.28607177734375,0.08636474609375,0.9400634765625
1630932120438,-0.185302734375,0.14501953125,0.968017578125
1630932120438,-0.20306396484375,0.13360595703125,0.94512939453125
1630932120438,-0.2303466796875,0.1138916015625,0.93865966796875
1630932120466,-0.1693115234375,0.17474365234375,1.047607421875
1630932120467,-0.14300537109375,0.17779541015625,0.9241943359375
1630932120467,-0.15802001953125,0.16796875,0.98089599609375
1630932120479,-0.1798095703125,0.157470703125,0.97906494140625
1630932120485,-0.17938232421875,0.16680908203125,1.0496826171875
1630932120492,-0.1807861328125,0.1630859375,1.0465087890625
1630932120552,-0.1494140625,0.17919921875,1.001953125
1630932120552,-0.15887451171875,0.1671142578125,1.0328369140625
1630932120552,-0.1654052734375,0.1756591796875,1.0445556640625
1630932120602,-0.126708984375,0.21044921875,0.9647216796875
1630932120602,-0.1177978515625,0.2236328125,0.9573974609375
1630932120603,-0.14031982421875,0.19378662109375,0.98358154296875
1630932120621,-0.1058349609375,0.23175048828125,0.9512939453125
1630932120621,-0.10943603515625,0.23541259765625,0.9498291015625
1630932120629,-0.10894775390625,0.2314453125,0.95050048828125
1630932120685,-0.10260009765625,0.23553466796875,0.9478759765625
1630932120685,-0.1058349609375,0.24066162109375,0.9599609375
1630932120686,-0.1046142578125,0.2325439453125,0.94268798828125
1630932120814,-0.110107421875,0.23516845703125,0.969482421875
1630932120814,-0.11151123046875,0.23162841796875,0.9747314453125
1630932120814,-0.116943359375,0.23419189453125,0.98834228515625
1630932120845,-0.1146240234375,0.24395751953125,1.00469970703125
1630932120845,-0.12554931640625,0.2398681640625,1.02484130859375
1630932120845,-0.11639404296875,0.2467041015625,1.0140380859375
1630932120913,-0.126708984375,0.2371826171875,1.0098876953125
1630932120976,-0.1336669921875,0.19171142578125,0.94683837890625
1630932120976,-0.1297607421875,0.19775390625,0.9437255859375
1630932120985,-0.126953125,0.18218994140625,0.93829345703125
1630932121149,-0.15093994140625,0.1544189453125,1.0040283203125
1630932121149,-0.14654541015625,0.16668701171875,0.994140625
1630932121149,-0.1417236328125,0.181396484375,0.96575927734375
1630932121235,-0.14385986328125,0.158935546875,0.99603271484375
1630932121258,-0.12542724609375,0.17132568359375,0.95318603515625
1630932121259,-0.12103271484375,0.17401123046875,0.9346923828125
1630932121261,-0.1348876953125,0.15850830078125,0.9742431640625
1630932121266,-0.1468505859375,0.1575927734375,1.0030517578125
1630932121272,-0.11456298828125,0.17633056640625,0.92620849609375
1630932121313,-0.1090087890625,0.1744384765625,0.92510986328125
1630932121313,-0.10931396484375,0.17279052734375,0.92095947265625
1630932121313,-0.11285400390625,0.17266845703125,0.92840576171875
1630932121331,-0.10479736328125,0.171142578125,0.93072509765625
1630932121343,-0.11273193359375,0.18121337890625,0.9796142578125
1630932121346,-0.1109619140625,0.1710205078125,0.943115234375
1630932121377,-0.1038818359375,0.216796875,1.05572509765625
1630932121377,-0.11279296875,0.1915283203125,1.01641845703125
1630932121378,-0.1090087890625,0.20013427734375,1.04986572265625
1630932121394,-0.09619140625,0.2412109375,1.02691650390625
1630932121401,-0.0980224609375,0.2294921875,1.04693603515625
1630932121401,-0.09423828125,0.2476806640625,1.00628662109375
1630932121446,-0.12060546875,0.2445068359375,0.99041748046875
1630932121446,-0.1014404296875,0.2489013671875,0.9993896484375
1630932121447,-0.1104736328125,0.24700927734375,1.00146484375
1630932121557,-0.1485595703125,0.22442626953125,0.99273681640625
1630932121557,-0.1309814453125,0.2398681640625,0.99481201171875
1630932121557,-0.1402587890625,0.2314453125,0.99432373046875
1630932121646,-0.1549072265625,0.227294921875,0.9912109375
1630932121649,-0.1634521484375,0.2308349609375,0.98638916015625
1630932121706,-0.16937255859375,0.22711181640625,0.97314453125
1630932121706,-0.17730712890625,0.2159423828125,0.94757080078125
1630932121706,-0.17449951171875,0.22381591796875,0.96136474609375
1630932121762,-0.20574951171875,0.18841552734375,0.9356689453125
1630932121762,-0.19195556640625,0.19915771484375,0.927734375
1630932121764,-0.18597412109375,0.20867919921875,0.93670654296875
1630932121800,-0.22418212890625,0.169921875,0.93310546875
1630932121802,-0.218017578125,0.179931640625,0.94720458984375
1630932121803,-0.22052001953125,0.17822265625,0.93414306640625
1630932121870,-0.267578125,0.13873291015625,0.945556640625
1630932121878,-0.23773193359375,0.155517578125,0.9207763671875
1630932121878,-0.231689453125,0.15869140625,0.9287109375
1630932121887,-0.26043701171875,0.141845703125,0.941162109375
1630932121890,-0.2542724609375,0.15069580078125,0.93426513671875
1630932121891,-0.2437744140625,0.1563720703125,0.925048828125
1630932121985,-0.29144287109375,0.12701416015625,0.998291015625
1630932121985,-0.2677001953125,0.138427734375,0.94415283203125
1630932121985,-0.28143310546875,0.13848876953125,0.9749755859375
1630932122156,-0.297607421875,0.111328125,1.00482177734375
1630932122157,-0.2869873046875,0.07073974609375,0.96405029296875
1630932122157,-0.29608154296875,0.08746337890625,0.9873046875
1630932122177,-0.283447265625,0.0296630859375,0.924072265625
1630932122177,-0.28582763671875,0.05145263671875,0.9405517578125
1630932122177,-0.2799072265625,0.02252197265625,0.8953857421875
1630932122200,-0.28033447265625,0.00799560546875,0.89129638671875
1630932122201,-0.29656982421875,-0.00909423828125,0.920654296875
1630932122206,-0.3017578125,-0.02630615234375,0.91192626953125
1630932122219,-0.3131103515625,-0.02093505859375,0.91778564453125
1630932122227,-0.33953857421875,-0.02716064453125,0.93695068359375
1630932122228,-0.3302001953125,-0.0240478515625,0.9320068359375
1630932122314,-0.3597412109375,-0.0250244140625,0.9010009765625
1630932122315,-0.35650634765625,-0.01629638671875,0.892578125
1630932122315,-0.35540771484375,-0.03094482421875,0.92431640625
1630932122315,-0.36065673828125,-0.0081787109375,0.90509033203125
1630932122315,-0.3582763671875,-0.03570556640625,0.91290283203125
1630932122316,-0.3536376953125,-0.02459716796875,0.9349365234375
1630932122363,-0.36236572265625,0.00738525390625,0.9112548828125
1630932122364,-0.35992431640625,-0.0023193359375,0.9136962890625
1630932122364,-0.35858154296875,0.00592041015625,0.91009521484375
1630932122427,-0.36328125,0.0074462890625,0.90032958984375
1630932122428,-0.35626220703125,0.00750732421875,0.89691162109375
1630932122428,-0.35870361328125,0.00091552734375,0.9105224609375
1630932122523,-0.38800048828125,0.03106689453125,0.95306396484375
1630932122523,-0.390625,0.0364990234375,0.94775390625
1630932122525,-0.37615966796875,0.0252685546875,0.92669677734375
1630932122565,-0.3909912109375,0.02764892578125,0.92120361328125
1630932122566,-0.39111328125,0.01861572265625,0.9013671875
1630932122566,-0.39453125,0.01568603515625,0.8955078125
1630932122634,-0.40179443359375,0.021484375,0.892822265625
1630932122634,-0.41009521484375,0.0164794921875,0.89654541015625
1630932122635,-0.407958984375,0.00091552734375,0.8984375
1630932122695,-0.40509033203125,-0.00994873046875,0.87890625
1630932122708,-0.4017333984375,-0.012939453125,0.86773681640625
1630932122718,-0.4046630859375,-0.00872802734375,0.892822265625
1630932122729,-0.3958740234375,-0.053955078125,0.866943359375
1630932122730,-0.39581298828125,-0.0673828125,0.88323974609375
1630932122734,-0.39971923828125,-0.02825927734375,0.86175537109375
1630932122764,-0.36846923828125,-0.05181884765625,0.90301513671875
1630932122764,-0.38720703125,-0.058349609375,0.887451171875
1630932122764,-0.37799072265625,-0.0533447265625,0.89892578125
1630932122784,-0.35504150390625,-0.0750732421875,0.92864990234375
1630932122784,-0.36376953125,-0.0611572265625,0.9114990234375
1630932122784,-0.3577880859375,-0.0701904296875,0.92047119140625
1630932122951,-0.33306884765625,-0.04913330078125,0.937744140625
1630932122962,-0.3260498046875,-0.0396728515625,0.93670654296875
1630932122963,-0.34967041015625,-0.0699462890625,0.93145751953125
1630932122963,-0.33172607421875,-0.05224609375,0.92779541015625
1630932122963,-0.34112548828125,-0.055419921875,0.920166015625
1630932122976,-0.334228515625,-0.05328369140625,0.925537109375
1630932123008,-0.32244873046875,-0.038330078125,0.9666748046875
1630932123008,-0.3236083984375,-0.0384521484375,0.94287109375
1630932123008,-0.32568359375,-0.03826904296875,0.95794677734375
1630932123038,-0.307373046875,-0.03411865234375,0.96221923828125
1630932123039,-0.3173828125,-0.0384521484375,0.97265625
1630932123039,-0.3143310546875,-0.041259765625,0.969482421875
1630932123095,-0.28997802734375,0.01318359375,0.96710205078125
1630932123095,-0.304931640625,-0.0240478515625,0.95465087890625
1630932123103,-0.29388427734375,-0.00457763671875,0.95904541015625
1630932123209,-0.28643798828125,0.04534912109375,0.96673583984375
1630932123209,-0.2861328125,0.02471923828125,0.96990966796875
1630932123212,-0.28570556640625,0.037841796875,0.97308349609375
1630932123272,-0.28656005859375,0.07098388671875,0.9423828125
1630932123272,-0.28778076171875,0.055908203125,0.95367431640625
1630932123272,-0.28662109375,0.05206298828125,0.95819091796875
1630932123332,-0.28045654296875,0.0787353515625,0.93701171875
1630932123333,-0.2764892578125,0.08447265625,0.9403076171875
1630932123340,-0.27972412109375,0.087890625,0.94921875
1630932123479,-0.28582763671875,0.0919189453125,0.9443359375
1630932123479,-0.27764892578125,0.08868408203125,0.941162109375
1630932123479,-0.274658203125,0.0941162109375,0.93896484375
1630932123498,-0.2784423828125,0.0767822265625,0.94610595703125
1630932123498,-0.2781982421875,0.0841064453125,0.9453125
1630932123499,-0.2734375,0.07562255859375,0.947265625
1630932123524,-0.26849365234375,0.056396484375,0.963134765625
1630932123524,-0.27752685546875,0.07244873046875,0.9530029296875
1630932123525,-0.27276611328125,0.06121826171875,0.96392822265625
1630932123526,-0.269287109375,0.05950927734375,0.96478271484375
1630932123527,-0.27490234375,0.06195068359375,0.96209716796875
1630932123528,-0.278076171875,0.0648193359375,0.95855712890625
1630932123637,-0.26483154296875,0.04840087890625,0.9569091796875
1630932123653,-0.2647705078125,0.043701171875,0.95806884765625
1630932123655,-0.261474609375,0.04150390625,0.9588623046875
1630932123703,-0.26080322265625,0.0352783203125,0.9627685546875
1630932123704,-0.263671875,0.0357666015625,0.961181640625
1630932123704,-0.26397705078125,0.03057861328125,0.9593505859375
1630932123750,-0.26141357421875,0.0213623046875,0.95654296875
1630932123752,-0.26043701171875,0.0218505859375,0.95745849609375
1630932123753,-0.26446533203125,0.025146484375,0.95550537109375
1630932123781,-0.25048828125,0.029052734375,0.9644775390625
1630932123783,-0.25244140625,0.03460693359375,0.97357177734375
1630932123785,-0.2559814453125,0.02288818359375,0.96337890625
1630932123807,-0.256103515625,0.0394287109375,0.9747314453125
1630932123807,-0.25274658203125,0.0458984375,0.96923828125
1630932123807,-0.2574462890625,0.0528564453125,0.96893310546875
1630932123933,-0.2623291015625,0.057373046875,0.96514892578125
1630932123933,-0.2642822265625,0.06103515625,0.97210693359375
1630932123933,-0.2696533203125,0.05596923828125,0.96142578125
1630932124014,-0.27520751953125,0.0560302734375,0.9566650390625
1630932124014,-0.2744140625,0.05023193359375,0.9517822265625
1630932124015,-0.27227783203125,0.0450439453125,0.9451904296875
1630932124031,-0.273681640625,0.0450439453125,0.93341064453125
1630932124033,-0.2659912109375,0.0455322265625,0.9393310546875
1630932124043,-0.275390625,0.04010009765625,0.94049072265625
1630932124146,-0.247314453125,0.0374755859375,0.9737548828125
1630932124146,-0.24920654296875,0.04083251953125,0.9658203125
1630932124148,-0.249267578125,0.04364013671875,0.9674072265625
1630932124153,-0.26190185546875,0.04754638671875,0.9456787109375
1630932124166,-0.2552490234375,0.044677734375,0.94940185546875
1630932124166,-0.25213623046875,0.0482177734375,0.95892333984375
1630932124213,-0.24993896484375,0.02874755859375,0.976318359375
1630932124214,-0.24359130859375,0.03057861328125,0.97161865234375
1630932124215,-0.24334716796875,0.0274658203125,0.97760009765625
1630932124247,-0.25323486328125,0.0283203125,0.97613525390625
1630932124247,-0.25347900390625,0.02508544921875,0.974365234375
1630932124247,-0.2564697265625,0.02630615234375,0.9654541015625
1630932124345,-0.2579345703125,0.0264892578125,0.9481201171875
1630932124345,-0.25579833984375,0.0242919921875,0.9451904296875
1630932124346,-0.25592041015625,0.024169921875,0.95703125
1630932124440,-0.25335693359375,0.0423583984375,0.9693603515625
1630932124443,-0.25958251953125,0.03814697265625,0.95703125
1630932124443,-0.25927734375,0.0289306640625,0.9453125
1630932124452,-0.26080322265625,0.03594970703125,0.95074462890625
1630932124455,-0.25799560546875,0.04266357421875,0.96075439453125
1630932124457,-0.259033203125,0.02801513671875,0.9425048828125
1630932124487,-0.254638671875,0.04412841796875,0.97454833984375
1630932124487,-0.2559814453125,0.0499267578125,0.980224609375
1630932124487,-0.2591552734375,0.04962158203125,0.98187255859375
1630932124569,-0.25341796875,0.05389404296875,0.967529296875
1630932124569,-0.25567626953125,0.0516357421875,0.9803466796875
1630932124667,-0.25677490234375,0.0496826171875,0.95269775390625
1630932124667,-0.2608642578125,0.04925537109375,0.94775390625
1630932124671,-0.260498046875,0.0533447265625,0.95013427734375
1630932124758,-0.264892578125,0.0390625,0.96563720703125
1630932124759,-0.26513671875,0.043701171875,0.9658203125
1630932124759,-0.26153564453125,0.051025390625,0.95556640625
1630932124759,-0.2579345703125,0.0506591796875,0.94775390625
1630932124759,-0.2579345703125,0.05364990234375,0.94732666015625
1630932124760,-0.26165771484375,0.04766845703125,0.9521484375
1630932124793,-0.261474609375,0.03033447265625,0.95440673828125
1630932124793,-0.2630615234375,0.02734375,0.95660400390625
1630932124804,-0.26153564453125,0.0343017578125,0.9508056640625
1630932124811,-0.2581787109375,0.034912109375,0.95721435546875
1630932124811,-0.26220703125,0.02978515625,0.95684814453125
1630932124817,-0.262939453125,0.0284423828125,0.9625244140625
1630932124873,-0.2659912109375,0.02740478515625,0.96063232421875
1630932124876,-0.2640380859375,0.0291748046875,0.9622802734375
1630932124876,-0.267822265625,0.02679443359375,0.9591064453125
1630932124919,-0.27154541015625,0.02288818359375,0.9637451171875
1630932124920,-0.271484375,0.024658203125,0.96441650390625
1630932124921,-0.2763671875,0.02813720703125,0.95477294921875
1630932125002,-0.27362060546875,0.02801513671875,0.95654296875
1630932125004,-0.28369140625,0.02301025390625,0.949462890625
1630932125004,-0.27838134765625,0.02484130859375,0.956787109375
1630932125052,-0.28472900390625,0.0277099609375,0.93792724609375
1630932125052,-0.28125,0.02423095703125,0.94146728515625
1630932125052,-0.2841796875,0.02679443359375,0.9371337890625
1630932125115,-0.28057861328125,0.03192138671875,0.94580078125
1630932125115,-0.28326416015625,0.02484130859375,0.94110107421875
1630932125117,-0.2835693359375,0.02490234375,0.9383544921875
1630932125232,-0.2838134765625,0.04266357421875,0.9678955078125
1630932125232,-0.2860107421875,0.035888671875,0.95513916015625
1630932125232,-0.284423828125,0.040283203125,0.96051025390625
1630932125325,-0.28570556640625,0.04205322265625,0.974853515625
1630932125325,-0.28125,0.037841796875,0.963134765625
1630932125326,-0.28424072265625,0.03875732421875,0.969970703125
1630932125341,-0.290283203125,0.03399658203125,0.94097900390625
1630932125341,-0.28656005859375,0.036865234375,0.9581298828125
1630932125341,-0.29034423828125,0.0325927734375,0.9503173828125
1630932125387,-0.28997802734375,0.03521728515625,0.9415283203125
1630932125387,-0.28912353515625,0.0386962890625,0.9356689453125
1630932125387,-0.294189453125,0.0390625,0.9346923828125
1630932125439,-0.2894287109375,0.04095458984375,0.94354248046875
1630932125439,-0.2938232421875,0.0396728515625,0.9490966796875
1630932125452,-0.29034423828125,0.0413818359375,0.9427490234375
1630932125480,-0.29541015625,0.0235595703125,0.9442138671875
1630932125480,-0.29583740234375,0.03265380859375,0.9559326171875
1630932125480,-0.2947998046875,0.028076171875,0.947265625
1630932125497,-0.2930908203125,0.0323486328125,0.9378662109375
1630932125501,-0.2884521484375,0.0252685546875,0.9490966796875
1630932125503,-0.29400634765625,0.0274658203125,0.94091796875
1630932125542,-0.29241943359375,0.02655029296875,0.95562744140625
1630932125544,-0.29339599609375,0.02056884765625,0.94781494140625
1630932125545,-0.295654296875,0.02734375,0.95111083984375
1630932125624,-0.2945556640625,0.029052734375,0.95782470703125
1630932125624,-0.29827880859375,0.028564453125,0.9564208984375
1630932125625,-0.30072021484375,0.02947998046875,0.9593505859375
1630932125771,-0.30377197265625,0.03436279296875,0.94683837890625
1630932125772,-0.3101806640625,0.03369140625,0.95098876953125
1630932125773,-0.30706787109375,0.03961181640625,0.95501708984375
1630932125815,-0.3114013671875,0.03582763671875,0.95355224609375
1630932125826,-0.31610107421875,0.03558349609375,0.962158203125
1630932125830,-0.3134765625,0.02783203125,0.924560546875
1630932125831,-0.307861328125,0.03460693359375,0.926513671875
1630932125832,-0.31365966796875,0.03363037109375,0.956787109375
1630932125836,-0.31085205078125,0.0361328125,0.9371337890625
1630932125882,-0.3203125,0.02459716796875,0.93212890625
1630932125882,-0.32037353515625,0.0240478515625,0.93377685546875
1630932125883,-0.324462890625,0.022705078125,0.929931640625
1630932126060,-0.324951171875,0.02203369140625,0.92303466796875
1630932126060,-0.32843017578125,0.01953125,0.927734375
1630932126061,-0.3218994140625,0.02191162109375,0.925048828125
1630932126108,-0.3253173828125,0.0155029296875,0.92041015625
1630932126109,-0.32598876953125,0.0185546875,0.9222412109375
1630932126109,-0.32293701171875,0.0126953125,0.92999267578125
1630932126126,-0.326416015625,0.01531982421875,0.93572998046875
1630932126126,-0.32891845703125,0.01129150390625,0.9456787109375
1630932126127,-0.32672119140625,0.01275634765625,0.9459228515625
1630932126266,-0.3267822265625,0.0064697265625,0.9541015625
1630932126274,-0.3284912109375,0.002685546875,0.95318603515625
1630932126277,-0.33038330078125,-0.00128173828125,0.9466552734375
1630932126301,-0.34228515625,-0.00164794921875,0.924072265625
1630932126302,-0.333984375,0.00384521484375,0.93072509765625
1630932126302,-0.33502197265625,0.0029296875,0.94189453125
1630932126310,-0.34112548828125,0.00457763671875,0.91766357421875
1630932126312,-0.33648681640625,0.00238037109375,0.9261474609375
1630932126319,-0.33184814453125,-0.00311279296875,0.93914794921875
1630932126350,-0.35009765625,-0.0006103515625,0.9354248046875
1630932126350,-0.346923828125,0.001953125,0.92401123046875
1630932126351,-0.34613037109375,0.0059814453125,0.919189453125
1630932126369,-0.34869384765625,-0.0015869140625,0.92279052734375
1630932126370,-0.34820556640625,-0.000244140625,0.93121337890625
1630932126379,-0.3443603515625,0.00054931640625,0.9295654296875
1630932126392,-0.349853515625,-0.01055908203125,0.91815185546875
1630932126398,-0.3468017578125,-0.01385498046875,0.91314697265625
1630932126398,-0.34649658203125,-0.01202392578125,0.91705322265625
1630932126668,-0.35174560546875,-0.00042724609375,0.93145751953125
1630932126668,-0.35064697265625,-0.00738525390625,0.9185791015625
1630932126668,-0.34576416015625,-0.007080078125,0.91094970703125
1630932126691,-0.35369873046875,0.00439453125,0.95086669921875
1630932126693,-0.35186767578125,0.00665283203125,0.946533203125
1630932126716,-0.3499755859375,0.00225830078125,0.9464111328125
1630932126732,-0.35040283203125,-0.0008544921875,0.9317626953125
1630932126733,-0.349853515625,-0.0023193359375,0.93194580078125
1630932126736,-0.3504638671875,0.00274658203125,0.94244384765625
1630932126765,-0.3521728515625,-0.00103759765625,0.9296875
1630932126765,-0.35687255859375,-0.00048828125,0.9176025390625
1630932126765,-0.35498046875,-0.00152587890625,0.9224853515625
1630932126766,-0.35345458984375,-0.00244140625,0.8931884765625
1630932126766,-0.3529052734375,-0.00146484375,0.8980712890625
1630932126767,-0.3558349609375,-0.0015869140625,0.91412353515625
1630932126767,-0.356201171875,-0.0023193359375,0.91339111328125
1630932126778,-0.35626220703125,-0.0030517578125,0.90869140625
1630932126780,-0.35235595703125,-0.002197265625,0.906982421875
1630932126852,-0.3524169921875,-0.01104736328125,0.92822265625
1630932126852,-0.34686279296875,-0.01568603515625,0.92901611328125
1630932126853,-0.3505859375,-0.0159912109375,0.925048828125
1630932126853,-0.34930419921875,-0.0125732421875,0.927490234375
1630932126854,-0.3494873046875,-0.00823974609375,0.92694091796875
1630932126855,-0.3543701171875,-0.0028076171875,0.9273681640625
1630932126908,-0.352783203125,-0.013916015625,0.9404296875
1630932126908,-0.35223388671875,-0.01397705078125,0.944091796875
1630932126917,-0.3526611328125,-0.01318359375,0.9337158203125
1630932127095,-0.3575439453125,-0.02239990234375,0.94024658203125
1630932127095,-0.357666015625,-0.02239990234375,0.94451904296875
1630932127095,-0.3546142578125,-0.015869140625,0.92779541015625
1630932127168,-0.35980224609375,-0.0010986328125,0.91619873046875
1630932127169,-0.35797119140625,-0.00103759765625,0.916015625
1630932127171,-0.35491943359375,-0.006591796875,0.92333984375
1630932127179,-0.357177734375,-0.00860595703125,0.91607666015625
1630932127182,-0.35516357421875,0.0010986328125,0.91473388671875
1630932127182,-0.355712890625,-0.00433349609375,0.9129638671875
1630932127224,-0.36334228515625,-0.01373291015625,0.923828125
1630932127224,-0.360595703125,-0.00701904296875,0.91851806640625
1630932127225,-0.3583984375,-0.01007080078125,0.92236328125
1630932127259,-0.36175537109375,-0.0101318359375,0.9188232421875
1630932127266,-0.35693359375,-0.0142822265625,0.91741943359375
1630932127367,-0.35858154296875,-0.00994873046875,0.9161376953125
1630932127368,-0.35943603515625,-0.0135498046875,0.91845703125
1630932127369,-0.35748291015625,-0.0125732421875,0.91827392578125
1630932127381,-0.35595703125,-0.0103759765625,0.9150390625
1630932127383,-0.35186767578125,-0.01123046875,0.9210205078125
1630932127383,-0.35382080078125,-0.01336669921875,0.9290771484375
1630932127388,-0.3497314453125,-0.0079345703125,0.93603515625
1630932127398,-0.34686279296875,-0.00701904296875,0.94512939453125
1630932127399,-0.3443603515625,-0.0048828125,0.94183349609375
1630932127447,-0.34832763671875,-0.0018310546875,0.95025634765625
1630932127447,-0.34814453125,-0.0064697265625,0.94464111328125
1630932127448,-0.35302734375,-0.0037841796875,0.9500732421875
1630932127552,-0.35601806640625,-0.007568359375,0.91827392578125
1630932127552,-0.35162353515625,-0.00128173828125,0.93682861328125
1630932127552,-0.353515625,-0.0047607421875,0.92291259765625
1630932127602,-0.3621826171875,-0.00750732421875,0.90771484375
1630932127602,-0.361572265625,-0.00799560546875,0.91229248046875
1630932127603,-0.362060546875,-0.00921630859375,0.90771484375
1630932127694,-0.36181640625,-0.0040283203125,0.90399169921875
1630932127694,-0.3631591796875,-0.00225830078125,0.9061279296875
1630932127694,-0.35986328125,-0.00323486328125,0.90692138671875
1630932127740,-0.364501953125,-0.00494384765625,0.91241455078125
1630932127742,-0.35650634765625,-0.00653076171875,0.92254638671875
1630932127744,-0.35546875,-0.01068115234375,0.92706298828125
1630932127820,-0.34808349609375,-0.0179443359375,0.93353271484375
1630932127822,-0.35211181640625,-0.0089111328125,0.93646240234375
1630932127822,-0.3519287109375,-0.01397705078125,0.93450927734375
1630932127850,-0.34735107421875,-0.00616455078125,0.93585205078125
1630932127856,-0.3416748046875,0.001708984375,0.93145751953125
1630932127857,-0.34173583984375,0.00018310546875,0.9345703125
1630932127873,-0.3421630859375,0.00628662109375,0.9354248046875
1630932127874,-0.33941650390625,0.0009765625,0.93695068359375
1630932127880,-0.33746337890625,0.00048828125,0.9326171875
1630932127960,-0.33697509765625,0.00616455078125,0.9400634765625
1630932127969,-0.3414306640625,0.006103515625,0.9420166015625
1630932127980,-0.349365234375,-0.003173828125,0.93475341796875
1630932127999,-0.35687255859375,-0.00018310546875,0.9215087890625
1630932128003,-0.3497314453125,0.00445556640625,0.931884765625
1630932128003,-0.35467529296875,0.0020751953125,0.92437744140625
1630932128029,-0.3583984375,-0.001953125,0.92266845703125
1630932128030,-0.36041259765625,0.0062255859375,0.9173583984375
1630932128030,-0.359375,0.0045166015625,0.91729736328125
1630932128090,-0.36187744140625,0.00555419921875,0.9234619140625
1630932128099,-0.35968017578125,0.00482177734375,0.91888427734375
1630932128099,-0.358154296875,0.005859375,0.92071533203125
1630932128254,-0.36724853515625,0.0001220703125,0.92437744140625
1630932128255,-0.36328125,-0.001708984375,0.9232177734375
1630932128257,-0.36138916015625,0.00128173828125,0.922607421875
1630932128257,-0.3607177734375,0.00384521484375,0.92279052734375
1630932128257,-0.36181640625,0.00439453125,0.92877197265625
1630932128275,-0.3636474609375,0.00335693359375,0.92755126953125
1630932128275,-0.36517333984375,-0.0052490234375,0.92327880859375
1630932128276,-0.36334228515625,0.0054931640625,0.92877197265625
1630932128276,-0.3658447265625,0.0003662109375,0.92510986328125
1630932128349,-0.36492919921875,-0.00811767578125,0.9122314453125
1630932128350,-0.36724853515625,-0.01153564453125,0.91162109375
1630932128351,-0.36944580078125,-0.00750732421875,0.91827392578125
1630932128409,-0.3675537109375,-0.0091552734375,0.9140625
1630932128409,-0.3675537109375,-0.01190185546875,0.91217041015625
1630932128409,-0.3682861328125,-0.01019287109375,0.91021728515625
1630932128480,-0.3662109375,-0.0159912109375,0.918212890625
1630932128480,-0.36566162109375,-0.0150146484375,0.9093017578125
1630932128481,-0.3702392578125,-0.015869140625,0.91595458984375
1630932128511,-0.36932373046875,-0.0133056640625,0.92535400390625
1630932128511,-0.36944580078125,-0.0101318359375,0.91961669921875
1630932128511,-0.36895751953125,-0.01422119140625,0.9283447265625
1630932128593,-0.3702392578125,-0.0084228515625,0.91748046875
1630932128593,-0.3709716796875,-0.02215576171875,0.91864013671875
1630932128594,-0.36822509765625,-0.0230712890625,0.9202880859375
1630932128667,-0.3658447265625,-0.013427734375,0.91827392578125
1630932128669,-0.36651611328125,-0.0059814453125,0.9151611328125
1630932128674,-0.36395263671875,-0.01165771484375,0.916015625
1630932128813,-0.36614990234375,-0.008544921875,0.92144775390625
1630932128814,-0.3643798828125,-0.01092529296875,0.92510986328125
1630932128814,-0.3621826171875,-0.01043701171875,0.92572021484375
1630932128845,-0.36578369140625,-0.01849365234375,0.92352294921875
1630932128846,-0.36199951171875,-0.0140380859375,0.91876220703125
1630932128847,-0.36700439453125,-0.01409912109375,0.91644287109375
1630932128848,-0.3712158203125,-0.014892578125,0.9232177734375
1630932128848,-0.37127685546875,-0.01702880859375,0.91925048828125
1630932128859,-0.36724853515625,-0.0147705078125,0.9169921875
1630932128928,-0.366455078125,-0.00750732421875,0.9205322265625
1630932128928,-0.36309814453125,-0.00860595703125,0.91546630859375
1630932128928,-0.36541748046875,-0.0074462890625,0.926025390625
1630932128939,-0.36614990234375,-0.0107421875,0.91748046875
1630932128941,-0.36785888671875,-0.00836181640625,0.92730712890625
1630932128942,-0.36956787109375,-0.0086669921875,0.9156494140625
1630932129007,-0.36676025390625,-0.0103759765625,0.9185791015625
1630932129009,-0.36383056640625,-0.0064697265625,0.9239501953125
1630932129010,-0.36187744140625,-0.00604248046875,0.9185791015625
1630932129038,-0.36798095703125,-0.00543212890625,0.910400390625
1630932129040,-0.366455078125,-0.0089111328125,0.9173583984375
1630932129041,-0.365478515625,-0.00958251953125,0.9119873046875
1630932129146,-0.37103271484375,0.00164794921875,0.934326171875
1630932129147,-0.3701171875,-0.004150390625,0.9302978515625
1630932129148,-0.3651123046875,-0.005126953125,0.91668701171875
1630932129155,-0.36456298828125,0.0010986328125,0.9320068359375
1630932129159,-0.368408203125,0.000732421875,0.92559814453125
1630932129159,-0.3675537109375,-0.00128173828125,0.91656494140625
1630932129257,-0.37060546875,-0.00982666015625,0.912841796875
1630932129258,-0.36932373046875,-0.00909423828125,0.92327880859375
1630932129258,-0.36859130859375,-0.008056640625,0.91265869140625
1630932129370,-0.37493896484375,-0.00634765625,0.90496826171875
1630932129371,-0.3740234375,-0.0135498046875,0.91339111328125
1630932129371,-0.37860107421875,-0.01153564453125,0.91156005859375
1630932129373,-0.3780517578125,-0.00494384765625,0.91522216796875
1630932129373,-0.3707275390625,-0.007568359375,0.910400390625
1630932129373,-0.37420654296875,-0.00738525390625,0.91339111328125
1630932129408,-0.37347412109375,-0.0059814453125,0.90435791015625
1630932129412,-0.3687744140625,-0.0093994140625,0.91363525390625
1630932129413,-0.369873046875,-0.00714111328125,0.90716552734375
1630932129502,-0.3677978515625,-0.00946044921875,0.91485595703125
1630932129502,-0.3662109375,-0.0125732421875,0.92010498046875
1630932129513,-0.366455078125,-0.0164794921875,0.92236328125
1630932129558,-0.3724365234375,-0.018310546875,0.93048095703125
1630932129559,-0.36676025390625,-0.02093505859375,0.923095703125
1630932129559,-0.367431640625,-0.0185546875,0.92327880859375
1630932129614,-0.3682861328125,-0.0208740234375,0.92559814453125
1630932129614,-0.36602783203125,-0.0186767578125,0.92559814453125
1630932129624,-0.36749267578125,-0.0126953125,0.91973876953125
1630932129628,-0.3697509765625,-0.0106201171875,0.918701171875
1630932129629,-0.36773681640625,-0.01129150390625,0.91455078125
1630932129636,-0.36956787109375,-0.0169677734375,0.92486572265625
1630932129689,-0.36895751953125,-0.00872802734375,0.9149169921875
1630932129691,-0.3690185546875,-0.012451171875,0.92169189453125
1630932129693,-0.36907958984375,-0.01190185546875,0.91986083984375
1630932129780,-0.37213134765625,-0.01055908203125,0.91766357421875
1630932129782,-0.37066650390625,-0.0115966796875,0.9176025390625
1630932129845,-0.36822509765625,-0.0106201171875,0.9132080078125
1630932129845,-0.36962890625,-0.01409912109375,0.91497802734375
1630932129937,-0.36944580078125,-0.0208740234375,0.91668701171875
1630932129937,-0.37115478515625,-0.01123046875,0.91424560546875
1630932129937,-0.3665771484375,-0.018798828125,0.91717529296875
1630932129937,-0.363525390625,-0.02484130859375,0.91339111328125
1630932129937,-0.36407470703125,-0.01715087890625,0.916259765625
1630932129937,-0.36346435546875,-0.013916015625,0.9169921875
1630932130040,-0.36370849609375,-0.01226806640625,0.9373779296875
1630932130042,-0.36798095703125,-0.01318359375,0.91790771484375
1630932130044,-0.364501953125,-0.00982666015625,0.930419921875
1630932130044,-0.36773681640625,-0.01202392578125,0.9180908203125
1630932130044,-0.3681640625,-0.00994873046875,0.9241943359375
1630932130044,-0.36602783203125,-0.00982666015625,0.92230224609375
1630932130158,-0.365966796875,-0.01025390625,0.92431640625
1630932130158,-0.368896484375,-0.0184326171875,0.92877197265625
1630932130158,-0.36602783203125,-0.0169677734375,0.93280029296875
1630932130199,-0.36492919921875,-0.00750732421875,0.91436767578125
1630932130204,-0.3682861328125,-0.0108642578125,0.9154052734375
1630932130214,-0.3662109375,-0.00592041015625,0.91754150390625
1630932130247,-0.3685302734375,-0.0125732421875,0.92138671875
1630932130247,-0.36639404296875,-0.0130615234375,0.9151611328125
1630932130247,-0.36602783203125,-0.009521484375,0.9161376953125
1630932130320,-0.3665771484375,-0.01348876953125,0.91998291015625
1630932130323,-0.368408203125,-0.018798828125,0.91424560546875
1630932130328,-0.37115478515625,-0.016357421875,0.91851806640625
1630932130352,-0.36962890625,-0.018310546875,0.917236328125
1630932130360,-0.3704833984375,-0.01812744140625,0.91802978515625
1630932130360,-0.36883544921875,-0.01458740234375,0.91705322265625
1630932130397,-0.36602783203125,-0.01556396484375,0.9276123046875
1630932130398,-0.36541748046875,-0.01220703125,0.92022705078125
1630932130399,-0.36566162109375,-0.018310546875,0.91973876953125
1630932130474,-0.36468505859375,-0.0159912109375,0.92315673828125
1630932130474,-0.36376953125,-0.01800537109375,0.9259033203125
1630932130474,-0.36248779296875,-0.01312255859375,0.9205322265625
1630932130604,-0.36126708984375,-0.02294921875,0.930419921875
1630932130604,-0.3662109375,-0.02203369140625,0.93157958984375
1630932130693,-0.36224365234375,-0.02410888671875,0.92950439453125
1630932130693,-0.36578369140625,-0.02166748046875,0.9298095703125
1630932130695,-0.36590576171875,-0.013427734375,0.9261474609375
1630932130726,-0.36956787109375,-0.015380859375,0.906494140625
1630932130733,-0.36956787109375,-0.01507568359375,0.91033935546875
1630932130734,-0.3653564453125,-0.0140380859375,0.9140625
1630932130747,-0.37042236328125,-0.02117919921875,0.8995361328125
1630932130750,-0.37420654296875,-0.02203369140625,0.900146484375
1630932130751,-0.37255859375,-0.02044677734375,0.9039306640625
1630932130801,-0.37066650390625,-0.02099609375,0.9122314453125
1630932130802,-0.3658447265625,-0.02032470703125,0.9058837890625
1630932130811,-0.3692626953125,-0.022216796875,0.90045166015625
1630932130839,-0.36944580078125,-0.02032470703125,0.91900634765625
1630932130839,-0.3665771484375,-0.02392578125,0.9254150390625
1630932130839,-0.3690185546875,-0.02386474609375,0.92718505859375
1630932130899,-0.3641357421875,-0.030517578125,0.9322509765625
1630932130900,-0.3653564453125,-0.03173828125,0.9271240234375
1630932130905,-0.36907958984375,-0.03912353515625,0.9271240234375
1630932131029,-0.37017822265625,-0.0228271484375,0.9161376953125
1630932131029,-0.37353515625,-0.02252197265625,0.91363525390625
1630932131029,-0.37615966796875,-0.03985595703125,0.92578125
1630932131029,-0.37249755859375,-0.02117919921875,0.91473388671875
1630932131030,-0.37109375,-0.03045654296875,0.92218017578125
1630932131032,-0.3712158203125,-0.03924560546875,0.9281005859375
1630932131097,-0.3709716796875,-0.02587890625,0.9161376953125
1630932131097,-0.37249755859375,-0.0255126953125,0.91424560546875
1630932131097,-0.37066650390625,-0.02911376953125,0.90875244140625
1630932131127,-0.367431640625,-0.03741455078125,0.90777587890625
1630932131128,-0.3702392578125,-0.0361328125,0.91558837890625
1630932131139,-0.36627197265625,-0.0340576171875,0.90087890625
1630932131190,-0.3668212890625,-0.02886962890625,0.9183349609375
1630932131190,-0.368408203125,-0.03302001953125,0.9073486328125
1630932131190,-0.36865234375,-0.03070068359375,0.91119384765625
1630932131251,-0.36334228515625,-0.0164794921875,0.93255615234375
1630932131251,-0.36614990234375,-0.0205078125,0.929931640625
1630932131254,-0.36114501953125,-0.0146484375,0.9407958984375
1630932131298,-0.36126708984375,-0.013427734375,0.94775390625
1630932131298,-0.36090087890625,-0.02801513671875,0.94537353515625
1630932131298,-0.35906982421875,-0.019287109375,0.945068359375
1630932131346,-0.365966796875,-0.0390625,0.943359375
1630932131346,-0.365966796875,-0.037841796875,0.94549560546875
1630932131346,-0.36810302734375,-0.033203125,0.9271240234375
1630932131437,-0.366455078125,-0.01422119140625,0.9034423828125
1630932131437,-0.36773681640625,-0.03167724609375,0.9176025390625
1630932131438,-0.37103271484375,-0.02197265625,0.91387939453125
1630932131473,-0.37005615234375,-0.0003662109375,0.89764404296875
1630932131473,-0.36993408203125,-0.01165771484375,0.8946533203125
1630932131587,-0.375244140625,0.01605224609375,0.90631103515625
1630932131587,-0.37518310546875,0.0068359375,0.90203857421875
1630932131600,-0.37786865234375,0.04229736328125,0.91229248046875
1630932131606,-0.38079833984375,0.0289306640625,0.92364501953125
1630932131606,-0.3819580078125,0.02691650390625,0.91827392578125
1630932131611,-0.3775634765625,0.04583740234375,0.90887451171875
1630932131655,-0.38751220703125,0.06201171875,0.916748046875
1630932131658,-0.38482666015625,0.05657958984375,0.91741943359375
1630932131662,-0.38079833984375,0.04949951171875,0.9146728515625
1630932131785,-0.38720703125,0.0604248046875,0.921630859375
1630932131786,-0.3863525390625,0.06231689453125,0.91949462890625
1630932131787,-0.38848876953125,0.0628662109375,0.91314697265625
1630932131888,-0.3970947265625,0.06768798828125,0.9205322265625
1630932131889,-0.39410400390625,0.06695556640625,0.91748046875
1630932131889,-0.39654541015625,0.063720703125,0.92034912109375
1630932131924,-0.3985595703125,0.07427978515625,0.90625
1630932131924,-0.39947509765625,0.06268310546875,0.91229248046875
1630932131924,-0.3968505859375,0.07171630859375,0.89892578125
1630932131934,-0.4014892578125,0.06951904296875,0.898193359375
1630932131957,-0.4085693359375,0.0592041015625,0.8968505859375
1630932131960,-0.40625,0.06353759765625,0.9010009765625
1630932132034,-0.40863037109375,0.0606689453125,0.89654541015625
1630932132034,-0.4112548828125,0.06072998046875,0.8978271484375
1630932132034,-0.40716552734375,0.05804443359375,0.89794921875
1630932132103,-0.4188232421875,0.0538330078125,0.88946533203125
1630932132114,-0.41754150390625,0.05987548828125,0.8931884765625
1630932132117,-0.416259765625,0.06158447265625,0.8983154296875
1630932132148,-0.43243408203125,0.052978515625,0.89068603515625
1630932132148,-0.42803955078125,0.04656982421875,0.888427734375
1630932132148,-0.43011474609375,0.049560546875,0.89007568359375
1630932132193,-0.4429931640625,0.0567626953125,0.8814697265625
1630932132197,-0.45416259765625,0.06256103515625,0.88092041015625
1630932132197,-0.44976806640625,0.05926513671875,0.8873291015625
1630932132199,-0.43170166015625,0.05853271484375,0.88336181640625
1630932132199,-0.45806884765625,0.0628662109375,0.87115478515625
1630932132199,-0.43133544921875,0.05267333984375,0.88360595703125
1630932132276,-0.4573974609375,0.055419921875,0.865966796875
1630932132282,-0.45623779296875,0.05413818359375,0.858642578125
1630932132286,-0.456787109375,0.05767822265625,0.86676025390625
1630932132415,-0.45965576171875,0.04779052734375,0.86175537109375
1630932132415,-0.45849609375,0.04876708984375,0.86749267578125
1630932132415,-0.46173095703125,0.0506591796875,0.8603515625
1630932132435,-0.450927734375,0.04559326171875,0.88470458984375
1630932132435,-0.45562744140625,0.04693603515625,0.8756103515625
1630932132436,-0.44598388671875,0.04486083984375,0.88427734375
1630932132438,-0.4581298828125,0.048095703125,0.87628173828125
1630932132438,-0.4595947265625,0.05072021484375,0.87408447265625
1630932132442,-0.4564208984375,0.0469970703125,0.8721923828125
1630932132505,-0.44854736328125,0.0550537109375,0.874267578125
1630932132505,-0.44537353515625,0.04779052734375,0.8765869140625
1630932132505,-0.4503173828125,0.0472412109375,0.88153076171875
1630932132528,-0.4488525390625,0.0572509765625,0.87969970703125
1630932132528,-0.44671630859375,0.05792236328125,0.86895751953125
1630932132529,-0.4464111328125,0.0562744140625,0.87542724609375
1630932132661,-0.4505615234375,0.05474853515625,0.8846435546875
1630932132661,-0.44927978515625,0.0606689453125,0.88275146484375
1630932132661,-0.45098876953125,0.06182861328125,0.8895263671875
1630932132761,-0.453125,0.06658935546875,0.87933349609375
1630932132762,-0.4453125,0.07135009765625,0.87066650390625
1630932132765,-0.449462890625,0.06781005859375,0.8702392578125
1630932132765,-0.449951171875,0.06866455078125,0.86871337890625
1630932132766,-0.45318603515625,0.05865478515625,0.87908935546875
1630932132772,-0.446044921875,0.06439208984375,0.87640380859375
1630932132836,-0.44256591796875,0.0670166015625,0.868408203125
1630932132836,-0.44482421875,0.06756591796875,0.8759765625
1630932132838,-0.44464111328125,0.06243896484375,0.8741455078125
1630932132846,-0.443603515625,0.05712890625,0.87249755859375
1630932132849,-0.4395751953125,0.05609130859375,0.879150390625
1630932132849,-0.43609619140625,0.0552978515625,0.8809814453125
1630932132867,-0.4395751953125,0.05914306640625,0.8848876953125
1630932132870,-0.4307861328125,0.064208984375,0.88970947265625
1630932132873,-0.436279296875,0.0628662109375,0.889404296875
1630932132958,-0.42578125,0.06781005859375,0.8935546875
1630932132958,-0.42254638671875,0.06475830078125,0.89471435546875
1630932132958,-0.43035888671875,0.06549072265625,0.89288330078125
1630932132993,-0.4171142578125,0.07427978515625,0.90087890625
1630932132993,-0.42144775390625,0.070068359375,0.89013671875
1630932132993,-0.4195556640625,0.07342529296875,0.89898681640625
1630932133064,-0.40704345703125,0.07623291015625,0.90252685546875
1630932133064,-0.4105224609375,0.07623291015625,0.8994140625
1630932133066,-0.40301513671875,0.0770263671875,0.9031982421875
1630932133151,-0.397216796875,0.0810546875,0.89971923828125
1630932133152,-0.4017333984375,0.080322265625,0.90167236328125
1630932133152,-0.39892578125,0.08343505859375,0.90228271484375
1630932133154,-0.394287109375,0.08062744140625,0.8997802734375
1630932133154,-0.39605712890625,0.08184814453125,0.9005126953125
1630932133158,-0.39013671875,0.079833984375,0.8985595703125
1630932133312,-0.3831787109375,0.07818603515625,0.89984130859375
1630932133313,-0.3822021484375,0.0767822265625,0.901611328125
1630932133313,-0.38916015625,0.078857421875,0.89794921875
1630932133347,-0.375732421875,0.076416015625,0.89984130859375
1630932133347,-0.37213134765625,0.08197021484375,0.9066162109375
1630932133392,-0.3582763671875,0.080810546875,0.927734375
1630932133392,-0.355712890625,0.0743408203125,0.92913818359375
1630932133393,-0.36431884765625,0.0899658203125,0.92169189453125
1630932133396,-0.36688232421875,0.08837890625,0.9139404296875
1630932133403,-0.35015869140625,0.0714111328125,0.92779541015625
1630932133404,-0.345947265625,0.0733642578125,0.9267578125
1630932133451,-0.33355712890625,0.06207275390625,0.92340087890625
1630932133451,-0.33807373046875,0.070068359375,0.9283447265625
1630932133459,-0.330810546875,0.05670166015625,0.9217529296875
1630932133603,-0.31500244140625,0.052734375,0.93548583984375
1630932133603,-0.3197021484375,0.05181884765625,0.926025390625
1630932133603,-0.31207275390625,0.05633544921875,0.94354248046875
1630932133630,-0.30255126953125,0.0556640625,0.955078125
1630932133630,-0.2979736328125,0.05902099609375,0.96173095703125
1630932133630,-0.299072265625,0.05816650390625,0.95654296875
1630932133664,-0.29241943359375,0.05633544921875,0.96380615234375
1630932133664,-0.284423828125,0.05584716796875,0.96075439453125
1630932133665,-0.2821044921875,0.05364990234375,0.9671630859375
1630932133692,-0.2730712890625,0.05767822265625,0.96673583984375
1630932133693,-0.2655029296875,0.0673828125,0.96075439453125
1630932133693,-0.27301025390625,0.0604248046875,0.96746826171875
1630932133852,-0.26287841796875,0.06854248046875,0.9541015625
1630932133853,-0.26214599609375,0.07037353515625,0.95599365234375
1630932133854,-0.2666015625,0.06744384765625,0.95867919921875
1630932133962,-0.260498046875,0.0679931640625,0.95513916015625
1630932133962,-0.25775146484375,0.07379150390625,0.94976806640625
1630932133962,-0.26251220703125,0.0692138671875,0.949462890625
1630932134022,-0.25396728515625,0.06890869140625,0.9617919921875
1630932134030,-0.2537841796875,0.07269287109375,0.95361328125
1630932134030,-0.25360107421875,0.07073974609375,0.95465087890625
1630932134116,-0.24188232421875,0.05718994140625,0.97259521484375
1630932134117,-0.24664306640625,0.0643310546875,0.978759765625
1630932134134,-0.2462158203125,0.07208251953125,0.9652099609375
1630932134136,-0.25152587890625,0.06982421875,0.96942138671875
1630932134137,-0.251708984375,0.0689697265625,0.9613037109375
1630932134138,-0.25006103515625,0.0589599609375,0.97601318359375
1630932134142,-0.24444580078125,0.06939697265625,0.97003173828125
1630932134142,-0.2528076171875,0.06390380859375,0.9583740234375
1630932134144,-0.24566650390625,0.0711669921875,0.97796630859375
1630932134252,-0.2392578125,0.04052734375,0.98492431640625
1630932134253,-0.2384033203125,0.047607421875,0.966552734375
1630932134257,-0.24493408203125,0.05078125,0.9727783203125
1630932134279,-0.2442626953125,0.0185546875,0.9822998046875
1630932134279,-0.2421875,0.025390625,0.97613525390625
1630932134280,-0.240966796875,0.03106689453125,0.98223876953125
1630932134311,-0.2410888671875,0.03875732421875,0.957275390625
1630932134311,-0.23834228515625,0.03466796875,0.96380615234375
1630932134316,-0.2440185546875,0.04254150390625,0.95941162109375
1630932134316,-0.24420166015625,0.04327392578125,0.96173095703125
1630932134317,-0.23876953125,0.03839111328125,0.96026611328125
1630932134318,-0.24481201171875,0.0467529296875,0.95770263671875
1630932134340,-0.24920654296875,0.03741455078125,0.95770263671875
1630932134342,-0.25286865234375,0.02972412109375,0.9559326171875
1630932134342,-0.25531005859375,0.0330810546875,0.95361328125
1630932134435,-0.26019287109375,0.0247802734375,0.953857421875
1630932134447,-0.2564697265625,0.03155517578125,0.9586181640625
1630932134447,-0.25250244140625,0.0311279296875,0.95526123046875
1630932134520,-0.2578125,0.02001953125,0.95452880859375
1630932134520,-0.2530517578125,0.018310546875,0.95330810546875
1630932134521,-0.251708984375,0.01690673828125,0.95379638671875
1630932134586,-0.25140380859375,0.00830078125,0.95989990234375
1630932134586,-0.2515869140625,0.0118408203125,0.95416259765625
1630932134586,-0.25164794921875,0.00970458984375,0.958740234375
1630932134653,-0.25421142578125,0.0142822265625,0.98406982421875
1630932134654,-0.25115966796875,0.01129150390625,0.9822998046875
1630932134654,-0.2476806640625,0.00738525390625,0.96954345703125
1630932134654,-0.25250244140625,0.00958251953125,0.97857666015625
1630932134657,-0.2493896484375,0.0106201171875,0.9761962890625
1630932134661,-0.24896240234375,0.00811767578125,0.96319580078125
1630932134745,-0.25518798828125,0.01544189453125,0.9781494140625
1630932134745,-0.2554931640625,0.016357421875,0.97027587890625
1630932134746,-0.25830078125,0.0162353515625,0.96087646484375
1630932134795,-0.26220703125,0.018310546875,0.95062255859375
1630932134795,-0.26507568359375,0.02081298828125,0.94744873046875
1630932134795,-0.26446533203125,0.02197265625,0.9437255859375
1630932134897,-0.25885009765625,0.02490234375,0.93994140625
1630932134897,-0.2625732421875,0.02496337890625,0.93927001953125
1630932134897,-0.25830078125,0.0264892578125,0.93670654296875
1630932134964,-0.25341796875,0.024658203125,0.9481201171875
1630932134964,-0.25579833984375,0.02001953125,0.95953369140625
1630932134964,-0.254150390625,0.0223388671875,0.95550537109375
1630932135143,-0.25140380859375,0.01788330078125,0.96270751953125
1630932135143,-0.25006103515625,0.018798828125,0.96173095703125
1630932135144,-0.24700927734375,0.0260009765625,0.96380615234375
1630932135231,-0.2471923828125,0.02508544921875,0.96649169921875
1630932135231,-0.24896240234375,0.02557373046875,0.96075439453125
1630932135232,-0.24346923828125,0.01605224609375,0.9705810546875
1630932135293,-0.24774169921875,0.01861572265625,0.9776611328125
1630932135302,-0.24468994140625,0.019287109375,0.97930908203125
1630932135302,-0.24432373046875,0.01678466796875,0.972900390625
1630932135412,-0.25146484375,0.0128173828125,0.9727783203125
1630932135413,-0.24908447265625,0.01287841796875,0.96649169921875
1630932135413,-0.24871826171875,0.0130615234375,0.977294921875
1630932135513,-0.25274658203125,0.01239013671875,0.96002197265625
1630932135513,-0.2520751953125,0.01727294921875,0.95697021484375
1630932135513,-0.25286865234375,0.0126953125,0.96026611328125
1630932135579,-0.25372314453125,0.018798828125,0.960693359375
1630932135580,-0.251953125,0.020751953125,0.96026611328125
1630932135580,-0.24932861328125,0.020263671875,0.958251953125
1630932135646,-0.251708984375,0.01971435546875,0.95953369140625
1630932135647,-0.25250244140625,0.01568603515625,0.9593505859375
1630932135647,-0.25469970703125,0.01568603515625,0.95941162109375
1630932135685,-0.25189208984375,0.01861572265625,0.9593505859375
1630932135685,-0.25311279296875,0.017822265625,0.96185302734375
1630932135688,-0.24786376953125,0.02001953125,0.95782470703125
1630932135795,-0.252197265625,0.0150146484375,0.95819091796875
1630932135795,-0.253173828125,0.0206298828125,0.95977783203125
1630932135795,-0.25592041015625,0.0174560546875,0.9576416015625
1630932136018,-0.257568359375,0.02130126953125,0.95947265625
1630932136018,-0.25531005859375,0.01904296875,0.9583740234375
1630932136019,-0.25152587890625,0.01898193359375,0.96148681640625
1630932136082,-0.2547607421875,0.01513671875,0.96435546875
1630932136082,-0.255859375,0.01239013671875,0.9642333984375
1630932136082,-0.256591796875,0.0185546875,0.96429443359375
1630932136137,-0.25653076171875,0.013427734375,0.96490478515625
1630932136138,-0.25531005859375,0.01104736328125,0.96563720703125
1630932136138,-0.25506591796875,0.01318359375,0.96771240234375
1630932136168,-0.26055908203125,0.0125732421875,0.96923828125
1630932136169,-0.26495361328125,0.00439453125,0.9605712890625
1630932136171,-0.26239013671875,0.011962890625,0.96575927734375
1630932136176,-0.26080322265625,0.016845703125,0.95245361328125
1630932136181,-0.26019287109375,0.0201416015625,0.95361328125
1630932136181,-0.259033203125,0.0189208984375,0.9468994140625
1630932136181,-0.265380859375,0.01806640625,0.951904296875
1630932136181,-0.2655029296875,0.00836181640625,0.95458984375
1630932136189,-0.26202392578125,0.0189208984375,0.947021484375
1630932136222,-0.25921630859375,0.0194091796875,0.96142578125
1630932136231,-0.263427734375,0.01568603515625,0.96173095703125
1630932136231,-0.26470947265625,0.00994873046875,0.96099853515625
1630932136259,-0.26507568359375,0.01678466796875,0.96026611328125
1630932136260,-0.263427734375,0.016845703125,0.95697021484375
1630932136268,-0.26092529296875,0.0142822265625,0.9639892578125
1630932136303,-0.26666259765625,0.0184326171875,0.95428466796875
1630932136303,-0.2667236328125,0.01641845703125,0.95623779296875
1630932136305,-0.263671875,0.01593017578125,0.955322265625
1630932136311,-0.2685546875,0.010498046875,0.95281982421875
1630932136311,-0.266357421875,0.01776123046875,0.95135498046875
1630932136314,-0.26708984375,0.01556396484375,0.9544677734375
1630932136352,-0.26385498046875,0.00994873046875,0.95294189453125
1630932136352,-0.26849365234375,0.01318359375,0.9541015625
1630932136352,-0.265869140625,0.00982666015625,0.95794677734375
1630932136370,-0.2652587890625,0.01055908203125,0.963134765625
1630932136370,-0.2672119140625,0.01007080078125,0.9583740234375
1630932136370,-0.267333984375,0.01123046875,0.95611572265625
1630932136460,-0.26898193359375,0.01025390625,0.96368408203125
1630932136460,-0.2694091796875,0.0050048828125,0.95947265625
1630932136460,-0.26727294921875,0.01025390625,0.960205078125
1630932136513,-0.266845703125,0.01361083984375,0.94976806640625
1630932136513,-0.26837158203125,0.0189208984375,0.95013427734375
1630932136513,-0.27069091796875,0.0076904296875,0.9559326171875
1630932136638,-0.268798828125,0.01287841796875,0.9573974609375
1630932136638,-0.2698974609375,0.02008056640625,0.953857421875
1630932136639,-0.26922607421875,0.0166015625,0.9573974609375
1630932136690,-0.26422119140625,0.0,0.956298828125
1630932136690,-0.27191162109375,0.01214599609375,0.95648193359375
1630932136690,-0.2724609375,0.00970458984375,0.9552001953125
1630932136788,-0.273193359375,0.0086669921875,0.95208740234375
1630932136788,-0.27392578125,0.00714111328125,0.95428466796875
1630932136790,-0.2713623046875,0.0103759765625,0.95025634765625
1630932136912,-0.2767333984375,0.004638671875,0.95062255859375
1630932136913,-0.27471923828125,0.006103515625,0.9508056640625
1630932136913,-0.2742919921875,0.00738525390625,0.9510498046875
1630932136957,-0.27252197265625,0.0128173828125,0.95263671875
1630932136957,-0.2685546875,0.01715087890625,0.95306396484375
1630932136958,-0.27276611328125,0.01177978515625,0.9512939453125
1630932137045,-0.272216796875,0.0137939453125,0.9625244140625
1630932137045,-0.27178955078125,0.0164794921875,0.9617919921875
1630932137045,-0.27337646484375,0.018310546875,0.95989990234375
1630932137068,-0.2724609375,0.00958251953125,0.9578857421875
1630932137069,-0.2772216796875,0.00830078125,0.95391845703125
1630932137071,-0.27423095703125,0.010986328125,0.95953369140625
1630932137100,-0.27777099609375,0.01318359375,0.95147705078125
1630932137100,-0.27886962890625,0.0113525390625,0.95452880859375
1630932137102,-0.2762451171875,0.01324462890625,0.95172119140625
1630932137102,-0.2740478515625,0.009765625,0.95184326171875
1630932137102,-0.27691650390625,0.01171875,0.95404052734375
1630932137104,-0.27764892578125,0.0126953125,0.95379638671875
1630932137228,-0.27764892578125,0.0103759765625,0.95306396484375
1630932137228,-0.2777099609375,0.0130615234375,0.95361328125
1630932137228,-0.27716064453125,0.00830078125,0.9508056640625
1630932137228,-0.27569580078125,0.011962890625,0.9556884765625
1630932137228,-0.279541015625,0.00909423828125,0.954833984375
1630932137228,-0.278564453125,0.00787353515625,0.95391845703125
1630932137271,-0.27935791015625,0.01226806640625,0.95709228515625
1630932137272,-0.2757568359375,0.0,0.95269775390625
1630932137273,-0.27685546875,0.013427734375,0.9609375
1630932137273,-0.275146484375,0.00250244140625,0.96441650390625
1630932137273,-0.27569580078125,0.0010986328125,0.957275390625
1630932137273,-0.27435302734375,0.0164794921875,0.95294189453125
1630932137313,-0.2716064453125,0.000732421875,0.94757080078125
1630932137314,-0.2725830078125,0.0048828125,0.95147705078125
1630932137314,-0.27685546875,-0.0006103515625,0.95452880859375
1630932137429,-0.2742919921875,-0.00286865234375,0.946044921875
1630932137429,-0.2718505859375,-0.0040283203125,0.94427490234375
1630932137429,-0.26959228515625,0.00030517578125,0.9498291015625
1630932137452,-0.27203369140625,-0.00048828125,0.96441650390625
1630932137455,-0.270263671875,0.0009765625,0.96026611328125
1630932137456,-0.2691650390625,0.001953125,0.95648193359375
1630932137488,-0.275146484375,-0.00323486328125,0.9627685546875
1630932137488,-0.27508544921875,-0.005126953125,0.95770263671875
1630932137496,-0.2745361328125,-0.00323486328125,0.961181640625
1630932137597,-0.27972412109375,-0.00701904296875,0.95159912109375
1630932137605,-0.27679443359375,-0.00933837890625,0.95428466796875
1630932137605,-0.2803955078125,-0.00909423828125,0.952392578125
1630932137763,-0.28448486328125,0.01324462890625,0.95343017578125
1630932137764,-0.2845458984375,0.0087890625,0.948486328125
1630932137764,-0.2841796875,0.0079345703125,0.94891357421875
1630932137765,-0.28326416015625,0.01043701171875,0.954833984375
1630932137765,-0.28143310546875,0.00714111328125,0.95281982421875
1630932137765,-0.281494140625,0.00030517578125,0.9517822265625
1630932137765,-0.283203125,0.010986328125,0.95623779296875
1630932137765,-0.28021240234375,0.002197265625,0.9522705078125
1630932137765,-0.2791748046875,-0.0052490234375,0.95220947265625
1630932137804,-0.28271484375,0.01025390625,0.9456787109375
1630932137806,-0.28582763671875,0.0089111328125,0.94439697265625
1630932137809,-0.2843017578125,0.01300048828125,0.94451904296875
1630932137874,-0.28375244140625,0.01171875,0.94732666015625
1630932137874,-0.2791748046875,0.01080322265625,0.94891357421875
1630932137874,-0.2823486328125,0.01177978515625,0.9466552734375
1630932137966,-0.27923583984375,0.011474609375,0.9525146484375
1630932137966,-0.27777099609375,0.00537109375,0.9549560546875
1630932137966,-0.27484130859375,0.01025390625,0.95660400390625
1630932137989,-0.27557373046875,0.00445556640625,0.95660400390625
1630932137989,-0.27362060546875,0.00091552734375,0.95233154296875
1630932137989,-0.27484130859375,-0.0001220703125,0.954833984375
1630932138052,-0.27679443359375,-0.00146484375,0.95562744140625
1630932138052,-0.2757568359375,-0.00274658203125,0.95526123046875
1630932138053,-0.27313232421875,-0.0015869140625,0.9571533203125
1630932138072,-0.27545166015625,-0.00030517578125,0.9617919921875
1630932138072,-0.2757568359375,-0.00128173828125,0.95953369140625
1630932138079,-0.2742919921875,-0.00091552734375,0.96722412109375
1630932138153,-0.2762451171875,-0.005615234375,0.95263671875
1630932138153,-0.27471923828125,-0.00592041015625,0.95587158203125
1630932138153,-0.278076171875,0.00177001953125,0.950927734375
1630932138211,-0.2752685546875,0.00726318359375,0.95037841796875
1630932138211,-0.27593994140625,0.0084228515625,0.94830322265625
1630932138211,-0.27947998046875,0.00726318359375,0.9454345703125
1630932138233,-0.27850341796875,0.00921630859375,0.95404052734375
1630932138244,-0.27764892578125,0.01025390625,0.95355224609375
1630932138244,-0.27581787109375,0.01116943359375,0.9547119140625
1630932138302,-0.272705078125,0.0020751953125,0.95452880859375
1630932138305,-0.27398681640625,-0.0009765625,0.95648193359375
1630932138306,-0.27777099609375,-0.000732421875,0.95208740234375
1630932138364,-0.28204345703125,-0.00103759765625,0.95318603515625
1630932138364,-0.27978515625,0.0009765625,0.9512939453125
1630932138364,-0.2757568359375,-0.001953125,0.952880859375
1630932138564,-0.27923583984375,0.0093994140625,0.9591064453125
1630932138564,-0.28033447265625,0.00238037109375,0.95233154296875
1630932138564,-0.2781982421875,0.00341796875,0.95709228515625
1630932138602,-0.27557373046875,0.00848388671875,0.95654296875
1630932138611,-0.28277587890625,0.0032958984375,0.952392578125
1630932138611,-0.28466796875,0.00531005859375,0.94952392578125
1630932138626,-0.2806396484375,0.00640869140625,0.95458984375
1630932138627,-0.28076171875,0.00640869140625,0.95458984375
1630932138628,-0.27783203125,0.00396728515625,0.95562744140625
1630932138712,-0.28070068359375,0.00439453125,0.9505615234375
1630932138712,-0.28277587890625,0.00213623046875,0.95361328125
1630932138712,-0.28424072265625,0.005615234375,0.94830322265625
1630932138741,-0.27728271484375,0.00506591796875,0.94146728515625
1630932138741,-0.2833251953125,0.0086669921875,0.943603515625
1630932138753,-0.2802734375,-0.0013427734375,0.95318603515625
1630932138755,-0.2791748046875,-0.00238037109375,0.95086669921875
1630932138777,-0.2799072265625,0.00738525390625,0.9459228515625
1630932138780,-0.28021240234375,0.00054931640625,0.94781494140625
1630932138787,-0.2816162109375,-0.000244140625,0.95599365234375
1630932138792,-0.2791748046875,-0.00341796875,0.9559326171875
1630932138793,-0.27716064453125,-0.00054931640625,0.9561767578125
1630932138852,-0.281494140625,0.0029296875,0.95330810546875
1630932138853,-0.279296875,0.00537109375,0.95697021484375
1630932138855,-0.28314208984375,0.0076904296875,0.9599609375
1630932138880,-0.28021240234375,0.00262451171875,0.95794677734375
1630932138880,-0.279052734375,0.0048828125,0.95587158203125
1630932138880,-0.27996826171875,0.00286865234375,0.95068359375
1630932139080,-0.28167724609375,0.00152587890625,0.95440673828125
1630932139081,-0.281005859375,0.0015869140625,0.95367431640625
1630932139081,-0.28070068359375,0.00323486328125,0.95111083984375
1630932139134,-0.27996826171875,0.0048828125,0.9520263671875
1630932139134,-0.2838134765625,0.00079345703125,0.9510498046875
1630932139134,-0.28228759765625,0.000244140625,0.9571533203125
1630932139234,-0.28466796875,-0.00238037109375,0.943115234375
1630932139234,-0.2830810546875,-0.0006103515625,0.9588623046875
1630932139234,-0.283447265625,-0.00482177734375,0.953369140625
1630932139352,-0.28167724609375,0.0079345703125,0.94415283203125
1630932139352,-0.27520751953125,0.00555419921875,0.94573974609375
1630932139352,-0.27972412109375,0.0107421875,0.941650390625
1630932139398,-0.275146484375,0.00787353515625,0.95965576171875
1630932139401,-0.27484130859375,0.00640869140625,0.95526123046875
1630932139402,-0.27532958984375,0.00982666015625,0.9554443359375
1630932139405,-0.27557373046875,0.0057373046875,0.96038818359375
1630932139405,-0.27813720703125,0.00299072265625,0.9566650390625
1630932139409,-0.27410888671875,0.00213623046875,0.9599609375
1630932139545,-0.27850341796875,0.00701904296875,0.956787109375
1630932139545,-0.2794189453125,0.00225830078125,0.95269775390625
1630932139545,-0.280517578125,-0.00140380859375,0.95318603515625
1630932139599,-0.2794189453125,0.0093994140625,0.9512939453125
1630932139599,-0.27764892578125,0.010498046875,0.95355224609375
1630932139599,-0.276611328125,0.01385498046875,0.9544677734375
1630932139603,-0.28326416015625,0.00872802734375,0.9569091796875
1630932139604,-0.2803955078125,0.009033203125,0.9534912109375
1630932139604,-0.28192138671875,0.01470947265625,0.953125
1630932139610,-0.27899169921875,0.0133056640625,0.95208740234375
1630932139610,-0.280029296875,0.01434326171875,0.9503173828125
1630932139610,-0.279296875,0.01434326171875,0.95361328125
1630932144102,-0.268310546875,-0.024658203125,0.958740234375
1630932144103,-0.27374267578125,-0.02484130859375,0.957763671875
1630932144103,-0.3695068359375,-0.01226806640625,0.899169921875
1630932144200,-0.26806640625,-0.02984619140625,0.9599609375
1630932144202,-0.2685546875,-0.029541015625,0.95538330078125
1630932144202,-0.2669677734375,-0.0250244140625,0.9564208984375
1630932144229,-0.26763916015625,-0.03033447265625,0.96026611328125
1630932144229,-0.27398681640625,-0.02569580078125,0.96173095703125
1630932144229,-0.26953125,-0.02294921875,0.96173095703125
1630932144276,-0.2767333984375,-0.03515625,0.9573974609375
1630932144276,-0.27362060546875,-0.0341796875,0.9620361328125
1630932144285,-0.27655029296875,-0.02569580078125,0.9495849609375
1630932144326,-0.2772216796875,-0.02239990234375,0.94427490234375
1630932144334,-0.27313232421875,-0.0250244140625,0.9473876953125
1630932144334,-0.27569580078125,-0.02197265625,0.9451904296875
1630932144395,-0.26959228515625,-0.02874755859375,0.949951171875
1630932144395,-0.269775390625,-0.02593994140625,0.960205078125
1630932144395,-0.27557373046875,-0.0277099609375,0.95745849609375
1630932144475,-0.27276611328125,-0.02691650390625,0.95257568359375
1630932144485,-0.27215576171875,-0.025390625,0.9559326171875
1630932144485,-0.2724609375,-0.0313720703125,0.9559326171875
1630932144503,-0.28009033203125,-0.0296630859375,0.95562744140625
1630932144504,-0.2734375,-0.03204345703125,0.952392578125
1630932144504,-0.27764892578125,-0.027587890625,0.95465087890625
1630932144573,-0.27496337890625,-0.0264892578125,0.95355224609375
1630932144574,-0.280029296875,-0.02264404296875,0.95440673828125
1630932144574,-0.27734375,-0.02276611328125,0.95404052734375
1630932144645,-0.27789306640625,-0.0189208984375,0.95025634765625
1630932144645,-0.27471923828125,-0.02117919921875,0.95635986328125
1630932144645,-0.2767333984375,-0.0220947265625,0.95465087890625
1630932144686,-0.2808837890625,-0.0216064453125,0.95806884765625
1630932144686,-0.2794189453125,-0.01763916015625,0.9599609375
1630932144686,-0.2784423828125,-0.0166015625,0.95916748046875
1630932144755,-0.28167724609375,-0.01971435546875,0.95050048828125
1630932144755,-0.27838134765625,-0.01898193359375,0.95281982421875
1630932144863,-0.28179931640625,-0.01873779296875,0.9493408203125
1630932144863,-0.284912109375,-0.018310546875,0.94775390625
1630932144863,-0.2818603515625,-0.01971435546875,0.9495849609375
1630932144890,-0.2803955078125,-0.0152587890625,0.94635009765625
1630932144890,-0.28118896484375,-0.01873779296875,0.94873046875
1630932144891,-0.2828369140625,-0.0198974609375,0.947998046875
1630932144910,-0.28009033203125,-0.02105712890625,0.946533203125
1630932144910,-0.2843017578125,-0.02215576171875,0.9505615234375
1630932144910,-0.2813720703125,-0.020263671875,0.94970703125
1630932145002,-0.28350830078125,-0.025390625,0.94964599609375
1630932145002,-0.28131103515625,-0.02545166015625,0.9481201171875
1630932145002,-0.281005859375,-0.0263671875,0.94793701171875
1630932145052,-0.28021240234375,-0.02276611328125,0.945556640625
1630932145052,-0.2802734375,-0.0198974609375,0.95306396484375
1630932145052,-0.28302001953125,-0.02667236328125,0.9593505859375
1630932145114,-0.284423828125,-0.02508544921875,0.96502685546875
1630932145114,-0.2801513671875,-0.02685546875,0.95050048828125
1630932145115,-0.281005859375,-0.02880859375,0.9552001953125
1630932145179,-0.27532958984375,-0.0096435546875,0.95172119140625
1630932145181,-0.27288818359375,-0.01336669921875,0.951416015625
1630932145181,-0.27264404296875,-0.014892578125,0.95001220703125
1630932145223,-0.27618408203125,-0.020263671875,0.95404052734375
1630932145223,-0.27569580078125,-0.01922607421875,0.94903564453125
1630932145223,-0.27520751953125,-0.0234375,0.9566650390625
1630932145289,-0.2752685546875,-0.02008056640625,0.95465087890625
1630932145289,-0.281005859375,-0.02801513671875,0.949951171875
1630932145290,-0.27484130859375,-0.0224609375,0.95526123046875
1630932145354,-0.280029296875,-0.0306396484375,0.95172119140625
1630932145354,-0.27740478515625,-0.02838134765625,0.94927978515625
1630932145354,-0.27618408203125,-0.02392578125,0.949951171875
1630932145433,-0.2813720703125,-0.03057861328125,0.95245361328125
1630932145433,-0.28167724609375,-0.0255126953125,0.94927978515625
1630932145433,-0.27557373046875,-0.0225830078125,0.951904296875
1630932145467,-0.27496337890625,-0.02288818359375,0.95477294921875
1630932145467,-0.2796630859375,-0.0223388671875,0.95703125
1630932145467,-0.27764892578125,-0.02001953125,0.9561767578125
1630932145534,-0.2757568359375,-0.0255126953125,0.95745849609375
1630932145534,-0.27642822265625,-0.0230712890625,0.9591064453125
1630932145534,-0.27557373046875,-0.023193359375,0.9571533203125
1630932145597,-0.277099609375,-0.02239990234375,0.955810546875
1630932145597,-0.2774658203125,-0.022216796875,0.9559326171875
1630932145597,-0.28192138671875,-0.02069091796875,0.9476318359375
1630932145655,-0.27978515625,-0.02020263671875,0.94403076171875
1630932145655,-0.27911376953125,-0.0196533203125,0.94482421875
1630932145655,-0.2801513671875,-0.02386474609375,0.94818115234375
1630932145697,-0.280029296875,-0.03082275390625,0.9490966796875
1630932145697,-0.28155517578125,-0.0269775390625,0.94573974609375
1630932145697,-0.28070068359375,-0.02655029296875,0.9486083984375
1630932145755,-0.27880859375,-0.028564453125,0.953857421875
1630932145755,-0.275390625,-0.02777099609375,0.95416259765625
1630932145763,-0.27471923828125,-0.0318603515625,0.9501953125
1630932145811,-0.27398681640625,-0.02490234375,0.95526123046875
1630932145811,-0.27362060546875,-0.02581787109375,0.956298828125
1630932145811,-0.27447509765625,-0.02581787109375,0.95849609375
1630932145870,-0.27215576171875,-0.0234375,0.95574951171875
1630932145871,-0.2730712890625,-0.0218505859375,0.95751953125
1630932145878,-0.2718505859375,-0.0234375,0.9561767578125
1630932145935,-0.272216796875,-0.0208740234375,0.95770263671875
1630932145935,-0.27105712890625,-0.02020263671875,0.960205078125
1630932145937,-0.273681640625,-0.02044677734375,0.96197509765625
1630932145988,-0.27276611328125,-0.02752685546875,0.9552001953125
1630932145990,-0.27618408203125,-0.02105712890625,0.96502685546875
1630932145997,-0.27423095703125,-0.0301513671875,0.9564208984375
1630932146053,-0.27520751953125,-0.0179443359375,0.95098876953125
1630932146053,-0.2740478515625,-0.017578125,0.943603515625
1630932146056,-0.27313232421875,-0.0128173828125,0.94549560546875
1630932146136,-0.26910400390625,-0.01885986328125,0.951904296875
1630932146136,-0.269287109375,-0.0225830078125,0.948486328125
1630932146136,-0.267822265625,-0.01849365234375,0.95611572265625
1630932146157,-0.26739501953125,-0.0184326171875,0.9609375
1630932146157,-0.2735595703125,-0.02252197265625,0.96197509765625
1630932146157,-0.271728515625,-0.02606201171875,0.958740234375
1630932146238,-0.27178955078125,-0.02337646484375,0.9498291015625
1630932146238,-0.27227783203125,-0.02398681640625,0.954345703125
1630932146238,-0.27044677734375,-0.02471923828125,0.9542236328125
1630932146296,-0.271240234375,-0.0201416015625,0.9554443359375
1630932146296,-0.27001953125,-0.02606201171875,0.95452880859375
1630932146297,-0.26971435546875,-0.0216064453125,0.95489501953125
1630932146353,-0.27362060546875,-0.01416015625,0.95635986328125
1630932146355,-0.27447509765625,-0.01513671875,0.9578857421875
1630932146355,-0.27130126953125,-0.01824951171875,0.95477294921875
1630932146413,-0.2740478515625,-0.01800537109375,0.958740234375
1630932146413,-0.27142333984375,-0.0169677734375,0.95611572265625
1630932146413,-0.2728271484375,-0.017333984375,0.95574951171875
1630932146454,-0.27716064453125,-0.0186767578125,0.948486328125
1630932146454,-0.2730712890625,-0.01849365234375,0.9532470703125
1630932146460,-0.27166748046875,-0.01953125,0.94915771484375
1630932146495,-0.27410888671875,-0.0208740234375,0.9490966796875
1630932146496,-0.2720947265625,-0.01898193359375,0.9501953125
1630932146497,-0.2752685546875,-0.01715087890625,0.94873046875
1630932146583,-0.271240234375,-0.02362060546875,0.95513916015625
1630932146583,-0.2725830078125,-0.0238037109375,0.95098876953125
1630932146591,-0.2705078125,-0.02008056640625,0.9493408203125
1630932146652,-0.2694091796875,-0.02587890625,0.95611572265625
1630932146653,-0.265380859375,-0.02276611328125,0.95794677734375
1630932146654,-0.26715087890625,-0.02783203125,0.95733642578125
1630932146701,-0.2677001953125,-0.02410888671875,0.9576416015625
1630932146702,-0.26312255859375,-0.02020263671875,0.958251953125
1630932146718,-0.26153564453125,-0.02288818359375,0.9588623046875
1630932146764,-0.265869140625,-0.02178955078125,0.960693359375
1630932146764,-0.265869140625,-0.02197265625,0.96221923828125
1630932146814,-0.26690673828125,-0.01715087890625,0.9566650390625
1630932146814,-0.26513671875,-0.0150146484375,0.95684814453125
1630932146814,-0.26885986328125,-0.01617431640625,0.95697021484375
1630932146883,-0.26641845703125,-0.014892578125,0.9566650390625
1630932146883,-0.2689208984375,-0.016845703125,0.9517822265625
1630932146950,-0.2728271484375,-0.02276611328125,0.9573974609375
1630932146950,-0.2691650390625,-0.02410888671875,0.95166015625
1630932146950,-0.2728271484375,-0.02215576171875,0.96240234375
1630932146991,-0.27142333984375,-0.0146484375,0.95220947265625
1630932146991,-0.27069091796875,-0.0140380859375,0.94976806640625
1630932146991,-0.26409912109375,-0.01708984375,0.95013427734375
1630932147099,-0.26214599609375,-0.02593994140625,0.961669921875
1630932147099,-0.263427734375,-0.02703857421875,0.95672607421875
1630932147101,-0.26708984375,-0.02496337890625,0.95709228515625
1630932147142,-0.26947021484375,-0.0281982421875,0.95745849609375
1630932147142,-0.264404296875,-0.02716064453125,0.96136474609375
1630932147143,-0.26495361328125,-0.02978515625,0.960693359375
1630932147185,-0.2698974609375,-0.025390625,0.95001220703125
1630932147185,-0.27093505859375,-0.02935791015625,0.95452880859375
1630932147185,-0.27093505859375,-0.02593994140625,0.955322265625
1630932147252,-0.27130126953125,-0.02337646484375,0.95294189453125
1630932147252,-0.267578125,-0.0313720703125,0.95098876953125
1630932147252,-0.26953125,-0.02923583984375,0.95245361328125
1630932147302,-0.269287109375,-0.01934814453125,0.9547119140625
1630932147302,-0.26947021484375,-0.01690673828125,0.95703125
1630932147304,-0.26556396484375,-0.02105712890625,0.955810546875
1630932147371,-0.26904296875,-0.020263671875,0.95697021484375
1630932147371,-0.2657470703125,-0.01971435546875,0.95770263671875
1630932147371,-0.26751708984375,-0.019775390625,0.95672607421875
1630932147393,-0.26690673828125,-0.01953125,0.9610595703125
1630932147393,-0.2691650390625,-0.0198974609375,0.95672607421875
1630932147393,-0.26617431640625,-0.02081298828125,0.95855712890625
1630932147466,-0.2669677734375,-0.0172119140625,0.9544677734375
1630932147466,-0.2664794921875,-0.01995849609375,0.95477294921875
1630932147466,-0.2667236328125,-0.0172119140625,0.9488525390625
1630932147534,-0.263427734375,-0.03033447265625,0.954345703125
1630932147535,-0.26806640625,-0.02471923828125,0.948486328125
1630932147536,-0.2677001953125,-0.017822265625,0.94439697265625
1630932147595,-0.26177978515625,-0.03045654296875,0.96563720703125
1630932147595,-0.2677001953125,-0.03240966796875,0.96063232421875
1630932147595,-0.2630615234375,-0.0333251953125,0.96539306640625
1630932147638,-0.2652587890625,-0.02471923828125,0.96502685546875
1630932147638,-0.2657470703125,-0.0206298828125,0.95513916015625
1630932147638,-0.26593017578125,-0.02288818359375,0.96197509765625
1630932147682,-0.26678466796875,-0.01885986328125,0.95697021484375
1630932147682,-0.26507568359375,-0.0203857421875,0.9520263671875
1630932147682,-0.266357421875,-0.020263671875,0.95782470703125
1630932147795,-0.2686767578125,-0.02166748046875,0.94781494140625
1630932147795,-0.26666259765625,-0.025390625,0.95166015625
1630932147795,-0.267578125,-0.0303955078125,0.95184326171875
1630932147822,-0.26806640625,-0.03277587890625,0.959716796875
1630932147822,-0.26837158203125,-0.032470703125,0.9656982421875
1630932147823,-0.27117919921875,-0.0281982421875,0.9639892578125
1630932147882,-0.27392578125,-0.0296630859375,0.9698486328125
1630932147890,-0.2698974609375,-0.03240966796875,0.95001220703125
1630932147890,-0.269775390625,-0.03497314453125,0.95880126953125
1630932147937,-0.26788330078125,-0.018798828125,0.9464111328125
1630932147937,-0.26605224609375,-0.02056884765625,0.94512939453125
1630932147937,-0.272705078125,-0.0238037109375,0.94818115234375
1630932147999,-0.2657470703125,-0.02996826171875,0.95184326171875
1630932147999,-0.267333984375,-0.02874755859375,0.94659423828125
1630932147999,-0.26800537109375,-0.0286865234375,0.952880859375
1630932148045,-0.2677001953125,-0.0294189453125,0.9547119140625
1630932148045,-0.27069091796875,-0.03125,0.9610595703125
1630932148046,-0.26934814453125,-0.03033447265625,0.96124267578125
1630932148103,-0.26947021484375,-0.02984619140625,0.958251953125
1630932148103,-0.26837158203125,-0.0306396484375,0.95355224609375
1630932148113,-0.27056884765625,-0.03082275390625,0.96112060546875
1630932148158,-0.27008056640625,-0.02630615234375,0.9542236328125
1630932148158,-0.27142333984375,-0.02435302734375,0.952392578125
1630932148158,-0.26995849609375,-0.02886962890625,0.95245361328125
1630932148251,-0.27105712890625,-0.02349853515625,0.9580078125
1630932148252,-0.27484130859375,-0.0255126953125,0.9581298828125
1630932148261,-0.2681884765625,-0.02374267578125,0.95635986328125
1630932148282,-0.27264404296875,-0.02032470703125,0.95831298828125
1630932148290,-0.273193359375,-0.01031494140625,0.9537353515625
1630932148290,-0.27044677734375,-0.01641845703125,0.9561767578125
1630932148345,-0.27471923828125,-0.01220703125,0.9521484375
1630932148345,-0.27496337890625,-0.00994873046875,0.95281982421875
1630932148345,-0.2724609375,-0.005126953125,0.95452880859375
1630932148423,-0.272705078125,-0.01959228515625,0.95111083984375
1630932148423,-0.27276611328125,-0.01861572265625,0.95135498046875
1630932148423,-0.2744140625,-0.02215576171875,0.94769287109375
1630932148488,-0.27197265625,-0.02197265625,0.94732666015625
1630932148489,-0.266845703125,-0.02587890625,0.9541015625
1630932148489,-0.27166748046875,-0.0240478515625,0.95184326171875
1630932148534,-0.26495361328125,-0.02423095703125,0.95916748046875
1630932148534,-0.2706298828125,-0.02386474609375,0.96624755859375
1630932148535,-0.269287109375,-0.0234375,0.96240234375
1630932148600,-0.267333984375,-0.0286865234375,0.95770263671875
1630932148601,-0.2691650390625,-0.02520751953125,0.96588134765625
1630932148601,-0.26763916015625,-0.02911376953125,0.96392822265625
1630932148664,-0.27099609375,-0.02410888671875,0.9532470703125
1630932148664,-0.27130126953125,-0.022216796875,0.95172119140625
1630932148664,-0.271484375,-0.02294921875,0.94915771484375
1630932148712,-0.2698974609375,-0.02301025390625,0.9539794921875
1630932148713,-0.270263671875,-0.0245361328125,0.95684814453125
1630932148714,-0.2696533203125,-0.02154541015625,0.955078125
1630932148785,-0.2762451171875,-0.02337646484375,0.9591064453125
1630932148786,-0.270751953125,-0.02716064453125,0.96026611328125
1630932148786,-0.2755126953125,-0.0228271484375,0.9578857421875
1630932148830,-0.2757568359375,-0.02960205078125,0.95391845703125
1630932148830,-0.27691650390625,-0.02227783203125,0.9503173828125
1630932148831,-0.2818603515625,-0.01495361328125,0.94775390625
1630932148887,-0.2764892578125,-0.01007080078125,0.94482421875
1630932148888,-0.27874755859375,-0.0118408203125,0.94317626953125
1630932148889,-0.2760009765625,-0.016845703125,0.94378662109375
1630932148916,-0.26776123046875,-0.0306396484375,0.9583740234375
1630932148916,-0.2706298828125,-0.02301025390625,0.951904296875
1630932148917,-0.2705078125,-0.01898193359375,0.9461669921875
1630932149003,-0.274169921875,-0.0272216796875,0.96282958984375
1630932149004,-0.2769775390625,-0.029296875,0.96044921875
1630932149004,-0.2738037109375,-0.03155517578125,0.96282958984375
1630932149061,-0.27838134765625,-0.02911376953125,0.950927734375
1630932149061,-0.27581787109375,-0.0250244140625,0.95452880859375
1630932149160,-0.275146484375,-0.0263671875,0.94757080078125
1630932149160,-0.27691650390625,-0.02703857421875,0.95050048828125
1630932149160,-0.27484130859375,-0.027587890625,0.94647216796875
1630932149160,-0.275634765625,-0.026123046875,0.94647216796875
1630932149167,-0.278076171875,-0.026611328125,0.95654296875
1630932149167,-0.2779541015625,-0.02777099609375,0.95379638671875
1630932149227,-0.27777099609375,-0.019775390625,0.9599609375
1630932149228,-0.2747802734375,-0.014892578125,0.95343017578125
1630932149229,-0.27532958984375,-0.01580810546875,0.9603271484375
1630932149295,-0.27447509765625,-0.01422119140625,0.954345703125
1630932149295,-0.27642822265625,-0.0164794921875,0.94757080078125
1630932149295,-0.27740478515625,-0.01605224609375,0.94940185546875
1630932149367,-0.276611328125,-0.02197265625,0.94879150390625
1630932149368,-0.2760009765625,-0.017822265625,0.95013427734375
1630932149368,-0.27398681640625,-0.02276611328125,0.94891357421875
1630932149431,-0.2723388671875,-0.01959228515625,0.95361328125
1630932149431,-0.27471923828125,-0.02197265625,0.94879150390625
1630932149431,-0.271484375,-0.0240478515625,0.951904296875
1630932149482,-0.26922607421875,-0.02154541015625,0.95953369140625
1630932149483,-0.2677001953125,-0.01873779296875,0.9615478515625
1630932149483,-0.26934814453125,-0.02044677734375,0.9632568359375
1630932149547,-0.26739501953125,-0.0213623046875,0.96343994140625
1630932149547,-0.2713623046875,-0.0216064453125,0.96014404296875
1630932149549,-0.272216796875,-0.024658203125,0.962158203125
1630932149604,-0.270263671875,-0.0179443359375,0.950927734375
1630932149604,-0.26983642578125,-0.01800537109375,0.952880859375
1630932149605,-0.2718505859375,-0.020751953125,0.9542236328125
1630932149630,-0.2716064453125,-0.0196533203125,0.956787109375
1630932149630,-0.2703857421875,-0.0186767578125,0.953125
1630932149630,-0.2689208984375,-0.01983642578125,0.95562744140625
1630932149721,-0.27337646484375,-0.02398681640625,0.95263671875
1630932149722,-0.2734375,-0.01702880859375,0.9630126953125
1630932149722,-0.2723388671875,-0.02313232421875,0.95751953125
1630932149782,-0.2784423828125,-0.017333984375,0.94891357421875
1630932149783,-0.274169921875,-0.0086669921875,0.9483642578125
1630932149783,-0.2723388671875,-0.015380859375,0.9454345703125
1630932149809,-0.271728515625,-0.02056884765625,0.94940185546875
1630932149809,-0.26806640625,-0.02264404296875,0.95391845703125
1630932149810,-0.27459716796875,-0.0203857421875,0.9462890625
1630932149879,-0.269775390625,-0.02191162109375,0.96099853515625
1630932149880,-0.27032470703125,-0.0164794921875,0.9580078125
1630932149883,-0.27398681640625,-0.0242919921875,0.9620361328125
1630932149941,-0.27276611328125,-0.02337646484375,0.95294189453125
1630932149944,-0.2703857421875,-0.02252197265625,0.95843505859375
1630932149944,-0.2708740234375,-0.02288818359375,0.95599365234375
1630932150008,-0.2720947265625,-0.02679443359375,0.953857421875
1630932150009,-0.27423095703125,-0.02093505859375,0.95159912109375
1630932150010,-0.27655029296875,-0.02508544921875,0.95306396484375
1630932150054,-0.27532958984375,-0.0205078125,0.95343017578125
1630932150054,-0.280517578125,-0.02239990234375,0.95172119140625
1630932150054,-0.276123046875,-0.02252197265625,0.9530029296875
1630932150118,-0.272705078125,-0.02056884765625,0.94921875
1630932150118,-0.27508544921875,-0.02374267578125,0.9532470703125
1630932150119,-0.2757568359375,-0.0260009765625,0.957275390625
1630932150177,-0.276611328125,-0.01953125,0.955322265625
1630932150178,-0.27288818359375,-0.02398681640625,0.95965576171875
1630932150178,-0.2750244140625,-0.02142333984375,0.955810546875
1630932150233,-0.27264404296875,-0.01806640625,0.9486083984375
1630932150233,-0.2735595703125,-0.015625,0.94793701171875
1630932150233,-0.27691650390625,-0.01800537109375,0.9530029296875
1630932150323,-0.27117919921875,-0.01953125,0.9443359375
1630932150323,-0.27264404296875,-0.0240478515625,0.9486083984375
1630932150325,-0.27349853515625,-0.01922607421875,0.94842529296875
1630932150342,-0.266845703125,-0.02386474609375,0.9586181640625
1630932150342,-0.2730712890625,-0.02484130859375,0.963134765625
1630932150342,-0.2718505859375,-0.0269775390625,0.9532470703125
1630932150419,-0.26922607421875,-0.02130126953125,0.96197509765625
1630932150419,-0.26953125,-0.0255126953125,0.96630859375
1630932150419,-0.26702880859375,-0.02508544921875,0.96044921875
1630932150455,-0.265380859375,-0.02313232421875,0.95404052734375
1630932150455,-0.271240234375,-0.02191162109375,0.9498291015625
1630932150455,-0.2705078125,-0.0233154296875,0.9537353515625
1630932150517,-0.2716064453125,-0.02215576171875,0.9561767578125
1630932150517,-0.26953125,-0.02215576171875,0.95654296875
1630932150517,-0.2694091796875,-0.02447509765625,0.95635986328125
1630932150576,-0.273193359375,-0.01654052734375,0.96368408203125
1630932150580,-0.26806640625,-0.01715087890625,0.9591064453125
1630932150587,-0.27044677734375,-0.02313232421875,0.9615478515625
1630932150630,-0.2774658203125,-0.01568603515625,0.94696044921875
1630932150630,-0.27227783203125,-0.01934814453125,0.95343017578125
1630932150630,-0.27392578125,-0.0233154296875,0.95013427734375
1630932150726,-0.27081298828125,-0.01824951171875,0.948974609375
1630932150726,-0.272705078125,-0.02337646484375,0.94512939453125
1630932150727,-0.26849365234375,-0.02117919921875,0.94952392578125
1630932150767,-0.27362060546875,-0.02215576171875,0.96282958984375
1630932150772,-0.273193359375,-0.02178955078125,0.95770263671875
1630932150774,-0.274169921875,-0.01934814453125,0.951904296875
1630932150812,-0.2769775390625,-0.0230712890625,0.95989990234375
1630932150812,-0.2757568359375,-0.02471923828125,0.95257568359375
1630932150812,-0.2772216796875,-0.0234375,0.95654296875
1630932150889,-0.27557373046875,-0.0225830078125,0.952880859375
1630932150889,-0.27496337890625,-0.028564453125,0.95233154296875
1630932150889,-0.27215576171875,-0.0262451171875,0.9486083984375
1630932150953,-0.27569580078125,-0.02117919921875,0.95501708984375
1630932150975,-0.2791748046875,-0.02117919921875,0.9554443359375
1630932150975,-0.276123046875,-0.02459716796875,0.95440673828125
1630932151009,-0.2752685546875,-0.01470947265625,0.955322265625
1630932151009,-0.2745361328125,-0.0191650390625,0.9534912109375
1630932151018,-0.27581787109375,-0.021240234375,0.95465087890625
1630932151068,-0.27703857421875,-0.0155029296875,0.9520263671875
1630932151068,-0.27490234375,-0.0211181640625,0.95648193359375
1630932151068,-0.27606201171875,-0.02197265625,0.95477294921875
1630932151136,-0.269775390625,-0.0198974609375,0.9541015625
1630932151137,-0.2740478515625,-0.017333984375,0.95233154296875
1630932151137,-0.2744140625,-0.01806640625,0.95208740234375
1630932151199,-0.27044677734375,-0.01800537109375,0.95196533203125
1630932151200,-0.2750244140625,-0.019287109375,0.95367431640625
1630932151200,-0.27301025390625,-0.0177001953125,0.9532470703125
1630932151231,-0.2716064453125,-0.0213623046875,0.9522705078125
1630932151233,-0.267333984375,-0.024169921875,0.95770263671875
1630932151233,-0.26904296875,-0.02587890625,0.9554443359375
1630932151284,-0.26812744140625,-0.0306396484375,0.9598388671875
1630932151284,-0.2674560546875,-0.0250244140625,0.9564208984375
1630932151285,-0.2703857421875,-0.02850341796875,0.957275390625
1630932151353,-0.269287109375,-0.02685546875,0.96044921875
1630932151354,-0.26739501953125,-0.025146484375,0.95611572265625
1630932151356,-0.2706298828125,-0.02447509765625,0.95941162109375
1630932151419,-0.27001953125,-0.02496337890625,0.9564208984375
1630932151419,-0.26861572265625,-0.02215576171875,0.95843505859375
1630932151464,-0.272705078125,-0.02569580078125,0.9541015625
1630932151465,-0.271728515625,-0.02374267578125,0.955322265625
1630932151482,-0.27178955078125,-0.02264404296875,0.95611572265625
1630932151533,-0.27386474609375,-0.018798828125,0.9564208984375
1630932151533,-0.27532958984375,-0.02471923828125,0.96099853515625
1630932151533,-0.272216796875,-0.0174560546875,0.9522705078125
1630932151577,-0.27447509765625,-0.02911376953125,0.95013427734375
1630932151578,-0.27532958984375,-0.01959228515625,0.9503173828125
1630932151578,-0.2752685546875,-0.02459716796875,0.94854736328125
1630932151637,-0.2662353515625,-0.02166748046875,0.9527587890625
1630932151637,-0.27545166015625,-0.01544189453125,0.94927978515625
1630932151638,-0.27154541015625,-0.01849365234375,0.9461669921875
1630932151723,-0.2713623046875,-0.0185546875,0.95684814453125
1630932151723,-0.27044677734375,-0.02105712890625,0.957275390625
1630932151723,-0.26959228515625,-0.0196533203125,0.95849609375
1630932151777,-0.2764892578125,-0.02752685546875,0.95196533203125
1630932151777,-0.273681640625,-0.0296630859375,0.95697021484375
1630932151778,-0.274169921875,-0.02569580078125,0.95745849609375
1630932151832,-0.27716064453125,-0.0289306640625,0.95684814453125
1630932151832,-0.27520751953125,-0.0301513671875,0.95037841796875
1630932151833,-0.28106689453125,-0.0284423828125,0.95281982421875
1630932151889,-0.27825927734375,-0.02374267578125,0.95538330078125
1630932151889,-0.27593994140625,-0.0257568359375,0.9573974609375
1630932151890,-0.27520751953125,-0.01953125,0.95245361328125
1630932151952,-0.2755126953125,-0.02056884765625,0.94940185546875
1630932151952,-0.2762451171875,-0.01959228515625,0.9505615234375
1630932151963,-0.27490234375,-0.018798828125,0.94683837890625
1630932152006,-0.27703857421875,-0.02545166015625,0.95184326171875
1630932152006,-0.27227783203125,-0.025634765625,0.9534912109375
1630932152006,-0.272216796875,-0.0264892578125,0.95208740234375
1630932152073,-0.272216796875,-0.02398681640625,0.9527587890625
1630932152073,-0.27191162109375,-0.0206298828125,0.95245361328125
1630932152073,-0.2762451171875,-0.0252685546875,0.95269775390625
1630932152134,-0.2723388671875,-0.0205078125,0.95294189453125
1630932152134,-0.271484375,-0.01898193359375,0.9532470703125
1630932152135,-0.27081298828125,-0.01763916015625,0.95635986328125
1630932152198,-0.26959228515625,-0.02349853515625,0.9569091796875
1630932152198,-0.2696533203125,-0.01904296875,0.9569091796875
1630932152198,-0.2685546875,-0.0238037109375,0.95556640625
1630932152229,-0.269775390625,-0.0263671875,0.95928955078125
1630932152229,-0.2696533203125,-0.0294189453125,0.95843505859375
1630932152230,-0.27313232421875,-0.0255126953125,0.95526123046875
1630932152288,-0.26708984375,-0.02978515625,0.9549560546875
1630932152288,-0.266845703125,-0.0262451171875,0.95721435546875
1630932152288,-0.2685546875,-0.0244140625,0.95806884765625
1630932152361,-0.2747802734375,-0.02069091796875,0.9564208984375
1630932152361,-0.26654052734375,-0.024658203125,0.96038818359375
1630932152361,-0.27313232421875,-0.02239990234375,0.954345703125
1630932152417,-0.271240234375,-0.01971435546875,0.95220947265625
1630932152417,-0.27239990234375,-0.0185546875,0.9532470703125
1630932152417,-0.2745361328125,-0.022216796875,0.95330810546875
1630932152485,-0.2740478515625,-0.02264404296875,0.951904296875
1630932152486,-0.2720947265625,-0.02105712890625,0.96002197265625
1630932152487,-0.2723388671875,-0.021728515625,0.95330810546875
1630932152560,-0.27764892578125,-0.02392578125,0.95208740234375
1630932152560,-0.27374267578125,-0.029296875,0.9552001953125
1630932152560,-0.27117919921875,-0.02532958984375,0.95849609375
1630932152628,-0.27105712890625,-0.0224609375,0.94525146484375
1630932152628,-0.273193359375,-0.0206298828125,0.9495849609375
1630932152654,-0.2696533203125,-0.0218505859375,0.96044921875
1630932152654,-0.26824951171875,-0.0245361328125,0.95660400390625
1630932152656,-0.27081298828125,-0.0252685546875,0.94769287109375
1630932152658,-0.271484375,-0.02374267578125,0.9537353515625
1630932152707,-0.2724609375,-0.02471923828125,0.958251953125
1630932152707,-0.2703857421875,-0.0234375,0.9598388671875
1630932152707,-0.2735595703125,-0.0302734375,0.95367431640625
1630932152781,-0.27435302734375,-0.0322265625,0.94708251953125
1630932152782,-0.2762451171875,-0.02972412109375,0.95074462890625
1630932152782,-0.27520751953125,-0.02899169921875,0.95379638671875
1630932152850,-0.2718505859375,-0.0333251953125,0.94818115234375
1630932152850,-0.2777099609375,-0.02459716796875,0.95556640625
1630932152850,-0.2762451171875,-0.02606201171875,0.95123291015625
1630932152881,-0.2750244140625,-0.0255126953125,0.955322265625
1630932152881,-0.27532958984375,-0.02508544921875,0.95257568359375
1630932152881,-0.27923583984375,-0.02410888671875,0.9527587890625
1630932152966,-0.2769775390625,-0.024169921875,0.95294189453125
1630932152980,-0.2734375,-0.0244140625,0.9522705078125
1630932152980,-0.27606201171875,-0.02130126953125,0.95391845703125
1630932153004,-0.2750244140625,-0.02752685546875,0.95257568359375
1630932153004,-0.27520751953125,-0.02191162109375,0.9539794921875
1630932153004,-0.2752685546875,-0.023681640625,0.9517822265625
1630932153076,-0.270263671875,-0.01904296875,0.95208740234375
1630932153076,-0.27362060546875,-0.01708984375,0.9534912109375
1630932153076,-0.2734375,-0.0191650390625,0.9527587890625
1630932153094,-0.27288818359375,-0.02301025390625,0.9503173828125
1630932153095,-0.27655029296875,-0.022705078125,0.95220947265625
1630932153099,-0.27264404296875,-0.030517578125,0.94873046875
1630932153185,-0.2706298828125,-0.030517578125,0.95623779296875
1630932153185,-0.27392578125,-0.027099609375,0.95819091796875
1630932153185,-0.273193359375,-0.029052734375,0.9521484375
1630932153265,-0.27117919921875,-0.02642822265625,0.9609375
1630932153265,-0.27508544921875,-0.0283203125,0.958251953125
1630932153265,-0.27203369140625,-0.0238037109375,0.9552001953125
1630932153330,-0.27001953125,-0.02667236328125,0.95208740234375
1630932153330,-0.27154541015625,-0.0230712890625,0.951904296875
1630932153330,-0.27008056640625,-0.0255126953125,0.95220947265625
1630932153355,-0.27032470703125,-0.025634765625,0.95391845703125
1630932153355,-0.274169921875,-0.02801513671875,0.95721435546875
1630932153355,-0.27398681640625,-0.02557373046875,0.955322265625
1630932153431,-0.27386474609375,-0.0225830078125,0.95928955078125
1630932153431,-0.27081298828125,-0.02655029296875,0.95709228515625
1630932153431,-0.271728515625,-0.025634765625,0.95733642578125
1630932153525,-0.27691650390625,-0.021240234375,0.95440673828125
1630932153525,-0.27886962890625,-0.0194091796875,0.95196533203125
1630932153526,-0.27508544921875,-0.02203369140625,0.9512939453125
1630932153527,-0.27581787109375,-0.02960205078125,0.94671630859375
1630932153527,-0.27545166015625,-0.0235595703125,0.95245361328125
1630932153527,-0.27569580078125,-0.02490234375,0.9505615234375
1630932153592,-0.27166748046875,-0.02392578125,0.95318603515625
1630932153592,-0.27972412109375,-0.018310546875,0.94879150390625
1630932153592,-0.27001953125,-0.02294921875,0.954345703125
1630932153652,-0.27685546875,-0.02447509765625,0.9537353515625
1630932153652,-0.27630615234375,-0.02667236328125,0.9559326171875
1630932153652,-0.278564453125,-0.0272216796875,0.95843505859375
1630932153699,-0.27960205078125,-0.026611328125,0.95452880859375
1630932153699,-0.27642822265625,-0.0316162109375,0.951171875
1630932153725,-0.2783203125,-0.028076171875,0.95062255859375
1630932153791,-0.27606201171875,-0.02764892578125,0.9520263671875
1630932153791,-0.27618408203125,-0.02569580078125,0.95458984375
1630932153806,-0.2801513671875,-0.02911376953125,0.95037841796875
1630932153834,-0.2781982421875,-0.0203857421875,0.9534912109375
1630932153834,-0.277099609375,-0.02239990234375,0.955322265625
1630932153834,-0.27740478515625,-0.02264404296875,0.95220947265625
1630932153900,-0.27703857421875,-0.0234375,0.95416259765625
1630932153900,-0.2786865234375,-0.026123046875,0.95184326171875
1630932153900,-0.27545166015625,-0.02435302734375,0.951171875
1630932153934,-0.27423095703125,-0.02593994140625,0.95074462890625
1630932153936,-0.27215576171875,-0.02386474609375,0.95037841796875
1630932153942,-0.27459716796875,-0.02294921875,0.954345703125
1630932154010,-0.2779541015625,-0.023193359375,0.95843505859375
1630932154016,-0.2747802734375,-0.02178955078125,0.95587158203125
1630932154016,-0.27203369140625,-0.0189208984375,0.95452880859375
1630932154055,-0.2723388671875,-0.02557373046875,0.951904296875
1630932154055,-0.273681640625,-0.031982421875,0.95196533203125
1630932154118,-0.27020263671875,-0.0335693359375,0.9530029296875
1630932154118,-0.27044677734375,-0.0325927734375,0.95477294921875
1630932154118,-0.27001953125,-0.02978515625,0.9583740234375
1630932154219,-0.2723388671875,-0.03009033203125,0.95867919921875
1630932154221,-0.2679443359375,-0.022216796875,0.961181640625
1630932154221,-0.26763916015625,-0.02398681640625,0.9617919921875
1630932154242,-0.27252197265625,-0.02557373046875,0.95172119140625
1630932154243,-0.272216796875,-0.024169921875,0.9552001953125
1630932154245,-0.2738037109375,-0.025634765625,0.955078125
1630932154298,-0.2762451171875,-0.02752685546875,0.95355224609375
1630932154298,-0.2740478515625,-0.029296875,0.95489501953125
1630932154307,-0.27191162109375,-0.0281982421875,0.9510498046875
1630932154346,-0.2733154296875,-0.0198974609375,0.9569091796875
1630932154346,-0.27581787109375,-0.0194091796875,0.95977783203125
1630932154346,-0.274658203125,-0.0250244140625,0.9554443359375
1630932154437,-0.280029296875,-0.0296630859375,0.94927978515625
1630932154437,-0.277099609375,-0.02447509765625,0.948974609375
1630932154452,-0.27728271484375,-0.02557373046875,0.9560546875
1630932154476,-0.27386474609375,-0.02301025390625,0.94732666015625
1630932154476,-0.277587890625,-0.01922607421875,0.94561767578125
1630932154476,-0.27606201171875,-0.0277099609375,0.95068359375
1630932154528,-0.27447509765625,-0.0216064453125,0.95562744140625
1630932154529,-0.2774658203125,-0.02545166015625,0.95635986328125
1630932154531,-0.27191162109375,-0.02642822265625,0.94964599609375
1630932154614,-0.2724609375,-0.0244140625,0.95782470703125
1630932154614,-0.2713623046875,-0.03363037109375,0.95501708984375
1630932154614,-0.272216796875,-0.03271484375,0.95831298828125
1630932154664,-0.2752685546875,-0.02960205078125,0.9500732421875
1630932154664,-0.27899169921875,-0.0308837890625,0.948486328125
1630932154667,-0.2760009765625,-0.0272216796875,0.95440673828125
1630932154706,-0.2777099609375,-0.02581787109375,0.952880859375
1630932154706,-0.2774658203125,-0.029052734375,0.948974609375
1630932154706,-0.27484130859375,-0.02789306640625,0.952392578125
1630932154761,-0.2760009765625,-0.01983642578125,0.95404052734375
1630932154761,-0.276611328125,-0.0181884765625,0.95703125
1630932154761,-0.27685546875,-0.0216064453125,0.95257568359375
1630932154819,-0.276611328125,-0.023193359375,0.9549560546875
1630932154819,-0.27325439453125,-0.02197265625,0.95379638671875
1630932154819,-0.276611328125,-0.02032470703125,0.95623779296875
1630932154912,-0.27154541015625,-0.02569580078125,0.95709228515625
1630932154912,-0.27423095703125,-0.02239990234375,0.9500732421875
1630932154912,-0.27593994140625,-0.021484375,0.95428466796875
1630932154968,-0.27215576171875,-0.02362060546875,0.9493408203125
1630932154968,-0.2747802734375,-0.0211181640625,0.9534912109375
1630932154968,-0.2738037109375,-0.02154541015625,0.95428466796875
1630932155036,-0.27532958984375,-0.03070068359375,0.95001220703125
1630932155045,-0.27020263671875,-0.0274658203125,0.9539794921875
1630932155090,-0.27325439453125,-0.0325927734375,0.956298828125
1630932155090,-0.27081298828125,-0.0313720703125,0.9591064453125
1630932155090,-0.27178955078125,-0.03125,0.9610595703125
1630932155112,-0.2711181640625,-0.02545166015625,0.95489501953125
1630932155112,-0.26922607421875,-0.0286865234375,0.95745849609375
1630932155115,-0.27008056640625,-0.0286865234375,0.9561767578125
1630932155203,-0.27337646484375,-0.02301025390625,0.95501708984375
1630932155203,-0.271728515625,-0.02532958984375,0.95489501953125
1630932155203,-0.27203369140625,-0.0263671875,0.9541015625
1630932155247,-0.2691650390625,-0.026123046875,0.9598388671875
1630932155248,-0.2738037109375,-0.0205078125,0.955810546875
1630932155248,-0.273193359375,-0.02325439453125,0.95452880859375
1630932155329,-0.279541015625,-0.021484375,0.95111083984375
1630932155329,-0.274658203125,-0.02154541015625,0.95404052734375
1630932155341,-0.2738037109375,-0.02191162109375,0.94891357421875
1630932155375,-0.27630615234375,-0.02496337890625,0.95513916015625
1630932155375,-0.27899169921875,-0.02996826171875,0.94970703125
1630932155395,-0.2783203125,-0.02581787109375,0.951416015625
1630932155404,-0.27587890625,-0.02142333984375,0.9544677734375
1630932155404,-0.27777099609375,-0.02459716796875,0.9473876953125
1630932155404,-0.27825927734375,-0.02056884765625,0.94879150390625
1630932155472,-0.27703857421875,-0.02496337890625,0.951171875
1630932155472,-0.27459716796875,-0.02618408203125,0.94903564453125
1630932155472,-0.27020263671875,-0.02593994140625,0.9554443359375
