timestamp,ax,ay,az
1629376330007,-0.42767099999999997,-0.149694,0.871263
1629376330017,-0.428647,-0.149572,0.874618
1629376330027,-0.42919599999999997,-0.150731,0.8754109999999999
1629376330036,-0.429684,-0.150792,0.8763259999999999
1629376330046,-0.429623,-0.152012,0.877302
1629376330055,-0.42980599999999997,-0.15268299999999999,0.876692
1629376330065,-0.429867,-0.15329299999999998,0.876387
1629376330075,-0.42944,-0.15433,0.876265
1629376330084,-0.429135,-0.154086,0.876204
1629376330094,-0.429989,-0.155733,0.876265
1629376330103,-0.430294,-0.155672,0.87535
1629376330113,-0.430172,-0.15420799999999998,0.874069
1629376330123,-0.430599,-0.153964,0.8723609999999999
1629376330132,-0.431453,-0.152927,0.872483
1629376330142,-0.431209,-0.152134,0.871629
1629376330151,-0.43194099999999996,-0.151097,0.871995
1629376330161,-0.434015,-0.151036,0.87291
1629376330171,-0.43493,-0.149511,0.873642
1629376330180,-0.435296,-0.148596,0.873947
1629376330190,-0.437126,-0.148108,0.87352
1629376330199,-0.438041,-0.14762,0.873398
1629376330209,-0.43907799999999997,-0.146156,0.871934
1629376330219,-0.44029799999999997,-0.14396,0.871995
1629376330228,-0.440359,-0.141398,0.871568
1629376330238,-0.441396,-0.140727,0.871629
1629376330247,-0.44151799999999997,-0.139995,0.870897
1629376330257,-0.440725,-0.138958,0.870287
1629376330267,-0.440054,-0.13908,0.86925
1629376330276,-0.440237,-0.139629,0.868579
1629376330286,-0.440176,-0.138287,0.86742
1629376330295,-0.4392,-0.138104,0.865224
1629376330305,-0.43798,-0.138287,0.8638819999999999
1629376330315,-0.438651,-0.138653,0.8629669999999999
1629376330324,-0.43694299999999997,-0.139202,0.862845
1629376330334,-0.43676,-0.1403,0.8644919999999999
1629376330343,-0.436089,-0.142557,0.863821
1629376330353,-0.434442,-0.14518,0.863394
1629376330363,-0.434625,-0.147254,0.865529
1629376330372,-0.432307,-0.149023,0.86742
1629376330382,-0.43072099999999997,-0.151829,0.86864
1629376330391,-0.430294,-0.15298799999999999,0.869677
1629376330401,-0.429318,-0.15494,0.871202
1629376330411,-0.429013,-0.157136,0.871263
1629376330420,-0.428037,-0.158661,0.871385
1629376330430,-0.42706099999999997,-0.16006399999999998,0.8705309999999999
1629376330439,-0.427305,-0.160918,0.869738
1629376330449,-0.426573,-0.162016,0.870165
1629376330459,-0.426634,-0.162748,0.871202
1629376330468,-0.427854,-0.163114,0.872788
1629376330478,-0.427488,-0.162992,0.874679
1629376330487,-0.42822,-0.163602,0.8754109999999999
1629376330497,-0.427915,-0.162931,0.87596
1629376330507,-0.426634,-0.162504,0.8751059999999999
1629376330516,-0.427854,-0.161772,0.874862
1629376330526,-0.42767099999999997,-0.161833,0.87535
1629376330535,-0.427488,-0.161772,0.874313
1629376330545,-0.427793,-0.16226,0.87413
1629376330555,-0.427122,-0.161711,0.872117
1629376330564,-0.427,-0.16226,0.872178
1629376330574,-0.427915,-0.16165,0.870897
1629376330583,-0.428525,-0.159637,0.868457
1629376330593,-0.430233,-0.155977,0.865285
1629376330603,-0.431514,-0.152256,0.862418
1629376330612,-0.433588,-0.15067,0.86193
1629376330622,-0.434747,-0.148474,0.8605269999999999
1629376330631,-0.437675,-0.145607,0.862845
1629376330641,-0.43859,-0.143838,0.867786
1629376330651,-0.44090799999999997,-0.144387,0.870897
1629376330660,-0.442616,-0.146339,0.873764
1629376330670,-0.443226,-0.14945,0.873154
1629376330679,-0.445361,-0.151707,0.873093
1629376330689,-0.446032,-0.153659,0.872849
1629376330699,-0.446886,-0.153415,0.874435
1629376330708,-0.447252,-0.15433,0.87413
1629376330718,-0.447313,-0.154696,0.872483
1629376330727,-0.44743499999999997,-0.153964,0.872422
1629376330737,-0.446764,-0.153476,0.869616
1629376330747,-0.447496,-0.15311,0.86925
1629376330756,-0.447069,-0.151829,0.870104
1629376330766,-0.445727,-0.150792,0.869006
1629376330775,-0.444873,-0.150792,0.86986
1629376330785,-0.443104,-0.150548,0.870714
1629376330795,-0.443104,-0.151646,0.871324
1629376330804,-0.44060299999999997,-0.151341,0.870348
1629376330814,-0.439322,-0.151585,0.866749
1629376330823,-0.43737,-0.150182,0.865834
1629376330833,-0.435235,-0.15006,0.863699
1629376330843,-0.433405,-0.151158,0.8623569999999999
1629376330852,-0.43188,-0.152805,0.8626619999999999
1629376330862,-0.430355,-0.15512299999999998,0.863699
1629376330871,-0.430599,-0.156221,0.865468
1629376330881,-0.42944,-0.158417,0.866932
1629376330891,-0.428952,-0.159332,0.866871
1629376330900,-0.427915,-0.159637,0.866932
1629376330910,-0.428098,-0.16006399999999998,0.866505
1629376330919,-0.427854,-0.16043,0.867115
1629376330929,-0.429013,-0.15982,0.867786
1629376330939,-0.43005,-0.16067399999999998,0.868457
1629376330948,-0.430172,-0.160735,0.868518
1629376330958,-0.430294,-0.160857,0.868579
1629376330967,-0.430294,-0.161406,0.868518
1629376330977,-0.430904,-0.162809,0.868762
1629376330987,-0.429684,-0.162687,0.869616
1629376330996,-0.430599,-0.162687,0.869006
1629376331006,-0.430294,-0.16348,0.868396
1629376331015,-0.430904,-0.163236,0.868823
1629376331025,-0.43163599999999996,-0.163602,0.869372
1629376331035,-0.432734,-0.163114,0.869372
1629376331044,-0.434015,-0.162748,0.868884
1629376331054,-0.435845,-0.161894,0.868762
1629376331063,-0.436882,-0.162443,0.867969
1629376331073,-0.438834,-0.162077,0.867603
1629376331083,-0.440115,-0.16128399999999998,0.866505
1629376331092,-0.44103,-0.16128399999999998,0.867664
1629376331102,-0.441884,-0.16104,0.866261
1629376331111,-0.442799,-0.16006399999999998,0.867542
1629376331121,-0.444019,-0.15914899999999998,0.868274
1629376331131,-0.443714,-0.15738,0.868152
1629376331140,-0.44408,-0.156038,0.867908
1629376331150,-0.445422,-0.155367,0.867969
1629376331159,-0.445666,-0.154635,0.868396
1629376331169,-0.446337,-0.15481799999999998,0.868091
1629376331179,-0.446215,-0.155367,0.866505
1629376331188,-0.445727,-0.155794,0.866749
1629376331198,-0.444629,-0.15616,0.866383
1629376331207,-0.444629,-0.15420799999999998,0.866322
1629376331217,-0.444873,-0.152012,0.866322
1629376331227,-0.442799,-0.149816,0.865712
1629376331236,-0.443775,-0.147803,0.864553
1629376331246,-0.442799,-0.14804699999999998,0.86315
1629376331255,-0.441945,-0.148596,0.862723
1629376331265,-0.440786,-0.149572,0.863455
1629376331275,-0.440847,-0.151707,0.863211
1629376331284,-0.440786,-0.151463,0.86376
1629376331294,-0.440237,-0.1525,0.864309
1629376331303,-0.440176,-0.153659,0.86559
1629376331313,-0.44103,-0.154086,0.866993
1629376331323,-0.440115,-0.155245,0.868457
1629376331332,-0.439322,-0.155367,0.866261
1629376331342,-0.43938299999999997,-0.157624,0.865773
1629376331351,-0.437431,-0.157868,0.866139
1629376331361,-0.437126,-0.157746,0.866322
1629376331371,-0.43615,-0.15799,0.865285
1629376331380,-0.435784,-0.15799,0.865956
1629376331390,-0.43554,-0.15853899999999999,0.866505
1629376331399,-0.434869,-0.157746,0.867237
1629376331409,-0.434137,-0.157563,0.867908
1629376331419,-0.43371,-0.157136,0.86803
1629376331428,-0.433222,-0.157319,0.868274
1629376331438,-0.432734,-0.158417,0.869067
1629376331447,-0.43194099999999996,-0.15914899999999998,0.868579
1629376331457,-0.43224599999999996,-0.15945399999999998,0.867603
1629376331467,-0.432185,-0.161162,0.86864
1629376331476,-0.43066,-0.161711,0.870104
1629376331486,-0.43011099999999997,-0.163663,0.869738
1629376331495,-0.430172,-0.164578,0.870043
1629376331505,-0.42919599999999997,-0.164761,0.869738
1629376331515,-0.42822,-0.16408999999999999,0.868335
1629376331524,-0.428708,-0.162992,0.868823
1629376331534,-0.430172,-0.162443,0.868701
1629376331543,-0.429928,-0.16036899999999998,0.868762
1629376331553,-0.43011099999999997,-0.159881,0.868884
1629376331563,-0.430538,-0.160491,0.868396
1629376331572,-0.43102599999999996,-0.16128399999999998,0.870165
1629376331582,-0.431697,-0.162931,0.870348
1629376331591,-0.43102599999999996,-0.16408999999999999,0.870043
1629376331601,-0.431758,-0.16469999999999999,0.86986
1629376331611,-0.43194099999999996,-0.16469999999999999,0.8702259999999999
1629376331620,-0.43249,-0.165066,0.870165
1629376331630,-0.432429,-0.164212,0.869372
1629376331639,-0.432978,-0.163419,0.8702259999999999
1629376331649,-0.433893,-0.163541,0.870104
1629376331659,-0.432734,-0.163541,0.8705309999999999
1629376331668,-0.433832,-0.163297,0.870897
1629376331678,-0.434076,-0.163114,0.870714
1629376331687,-0.433222,-0.16226,0.871202
1629376331697,-0.433649,-0.162199,0.8711409999999999
1629376331707,-0.433954,-0.161528,0.870653
1629376331716,-0.432734,-0.16043,0.869799
1629376331726,-0.432368,-0.160308,0.868457
1629376331735,-0.432429,-0.161223,0.866993
1629376331745,-0.432612,-0.162504,0.867298
1629376331755,-0.432795,-0.163541,0.865834
1629376331764,-0.432978,-0.16561499999999998,0.8662
1629376331774,-0.432795,-0.166957,0.866505
1629376331783,-0.433588,-0.168238,0.867725
1629376331793,-0.432856,-0.168665,0.867054
1629376331803,-0.433954,-0.168604,0.866749
1629376331812,-0.434442,-0.166286,0.866932
1629376331822,-0.435296,-0.164578,0.866993
1629376331831,-0.436394,-0.16469999999999999,0.865712
1629376331841,-0.435662,-0.164456,0.866139
1629376331851,-0.43541799999999997,-0.164578,0.865041
1629376331860,-0.435296,-0.166408,0.865163
1629376331870,-0.43554,-0.167689,0.865468
1629376331879,-0.436394,-0.167689,0.867054
1629376331889,-0.437004,-0.167201,0.866871
1629376331899,-0.437736,-0.166957,0.864858
1629376331908,-0.43737,-0.166591,0.865224
1629376331918,-0.438041,-0.16683499999999998,0.86681
1629376331927,-0.437614,-0.167872,0.867054
1629376331937,-0.438834,-0.166896,0.8662
1629376331947,-0.43816299999999997,-0.167567,0.8662
1629376331956,-0.437797,-0.168177,0.865834
1629376331966,-0.438224,-0.168909,0.866871
1629376331975,-0.438346,-0.169519,0.8662
1629376331985,-0.438651,-0.169641,0.865895
1629376331995,-0.438041,-0.168848,0.865834
1629376332004,-0.43907799999999997,-0.168421,0.865712
1629376332014,-0.439505,-0.167323,0.8662
1629376332023,-0.439322,-0.166774,0.865895
1629376332033,-0.44042,-0.166042,0.865712
1629376332043,-0.440847,-0.165127,0.865834
1629376332052,-0.441091,-0.165188,0.8647969999999999
1629376332062,-0.44090799999999997,-0.164029,0.865163
1629376332071,-0.441274,-0.161589,0.863333
1629376332081,-0.441274,-0.158783,0.8614419999999999
1629376332091,-0.442799,-0.155001,0.860588
1629376332100,-0.443409,-0.150304,0.8629669999999999
1629376332110,-0.442799,-0.143045,0.861015
1629376332119,-0.445239,-0.136091,0.858026
1629376332129,-0.445544,-0.130906,0.855769
1629376332139,-0.448533,-0.126941,0.853329
1629376332148,-0.450302,-0.12364699999999999,0.85095
1629376332158,-0.451766,-0.118889,0.847534
1629376332167,-0.453474,-0.11345999999999999,0.843447
1629376332177,-0.456646,-0.11163,0.840946
1629376332187,-0.458171,-0.112728,0.837164
1629376332196,-0.461343,-0.11315499999999999,0.832162
1629376332206,-0.46341699999999997,-0.11468,0.830149
1629376332215,-0.468175,-0.119438,0.828807
1629376332225,-0.47092,-0.125477,0.831796
1629376332235,-0.47451899999999997,-0.129991,0.833016
1629376332244,-0.477325,-0.13419999999999999,0.8343579999999999
1629376332254,-0.4819,-0.13633499999999998,0.834846
1629376332263,-0.485194,-0.13908,0.83326
1629376332273,-0.489708,-0.14280099999999998,0.8296
1629376332283,-0.491965,-0.146705,0.828319
1629376332292,-0.494039,-0.152195,0.825391
1629376332302,-0.49611299999999997,-0.156587,0.821182
1629376332311,-0.49763799999999997,-0.160491,0.816973
1629376332321,-0.49794299999999997,-0.15914899999999998,0.808921
1629376332331,-0.502213,-0.156648,0.801296
1629376332340,-0.50569,-0.155611,0.80032
1629376332350,-0.512583,-0.15512299999999998,0.800808
1629376332359,-0.518317,-0.156404,0.804102
1629376332369,-0.5246,-0.159027,0.807213
1629376332379,-0.530395,-0.160918,0.808738
1629376332388,-0.534238,-0.160552,0.807945
1629376332398,-0.538874,-0.159942,0.805566
1629376332407,-0.5465599999999999,-0.163968,0.80581
1629376332417,-0.55205,-0.16744499999999998,0.8075789999999999
1629376332427,-0.557479,-0.169153,0.803431
1629376332436,-0.562176,-0.170495,0.80032
1629376332446,-0.565592,-0.17141,0.8008689999999999
1629376332455,-0.568398,-0.171227,0.801296
1629376332465,-0.573461,-0.170373,0.803187
1629376332475,-0.578951,-0.17147099999999998,0.8048339999999999
1629376332484,-0.583282,-0.170922,0.803187
1629376332494,-0.5873079999999999,-0.169458,0.799161
1629376332503,-0.5912729999999999,-0.170434,0.795257
1629376332513,-0.5949329999999999,-0.173484,0.792207
1629376332523,-0.596397,-0.175741,0.793122
1629376332532,-0.597556,-0.176534,0.794891
1629376332542,-0.598837,-0.176473,0.797514
1629376332551,-0.602863,-0.176534,0.798002
1629376332561,-0.605181,-0.17641199999999999,0.79788
1629376332571,-0.606279,-0.17763199999999998,0.797087
1629376332580,-0.604693,-0.17751,0.793854
1629376332590,-0.603717,-0.176839,0.7911699999999999
1629376332599,-0.603046,-0.174765,0.787937
1629376332609,-0.603778,-0.17238599999999998,0.783606
1629376332619,-0.603107,-0.16683499999999998,0.778482
1629376332628,-0.601521,-0.160552,0.77409
1629376332638,-0.600606,-0.154269,0.769942
1629376332647,-0.600728,-0.14762,0.767258
1629376332657,-0.599386,-0.143228,0.767563
1629376332667,-0.598654,-0.1403,0.767685
1629376332676,-0.598471,-0.138958,0.766587
1629376332686,-0.597251,-0.138409,0.7643909999999999
1629376332695,-0.59597,-0.138409,0.763537
1629376332705,-0.596092,-0.13969,0.761524
1629376332715,-0.596275,-0.139873,0.762134
1629376332724,-0.596641,-0.13969,0.763903
1629376332734,-0.595482,-0.140117,0.7656109999999999
1629376332743,-0.59536,-0.139324,0.767807
1629376332753,-0.594567,-0.138531,0.768905
1629376332763,-0.5943229999999999,-0.13694499999999998,0.768478
1629376332772,-0.593469,-0.135359,0.767258
1629376332782,-0.593774,-0.132492,0.765733
1629376332791,-0.5952379999999999,-0.13017399999999998,0.7662209999999999
1629376332801,-0.595421,-0.126392,0.7659159999999999
1629376332811,-0.59597,-0.125782,0.766099
1629376332820,-0.597129,-0.123708,0.766038
1629376332830,-0.597251,-0.12224399999999999,0.765977
1629376332839,-0.59719,-0.120963,0.7668309999999999
1629376332849,-0.596946,-0.119499,0.766404
1629376332859,-0.59719,-0.11773,0.7653059999999999
1629376332868,-0.597983,-0.116815,0.764879
1629376332878,-0.599203,-0.116754,0.767258
1629376332887,-0.59902,-0.11840099999999999,0.768844
1629376332897,-0.597922,-0.118523,0.76921
1629376332907,-0.597556,-0.11870599999999999,0.769759
1629376332916,-0.5964579999999999,-0.120353,0.770308
1629376332926,-0.5955429999999999,-0.121268,0.770064
1629376332935,-0.594811,-0.121268,0.770369
1629376332945,-0.59414,-0.121817,0.770979
1629376332955,-0.595665,-0.119133,0.772992
1629376332964,-0.5943229999999999,-0.118157,0.773297
1629376332974,-0.592676,-0.117425,0.775188
1629376332983,-0.592554,-0.116754,0.775371
1629376332993,-0.593042,-0.116144,0.776347
1629376333003,-0.5937129999999999,-0.117547,0.777079
1629376333012,-0.5927979999999999,-0.119804,0.7771399999999999
1629376333022,-0.5918829999999999,-0.122,0.776164
1629376333031,-0.591151,-0.12395199999999999,0.775432
1629376333041,-0.59048,-0.124318,0.776164
1629376333051,-0.591151,-0.123525,0.777689
1629376333060,-0.5897479999999999,-0.123464,0.779153
1629376333070,-0.5894429999999999,-0.122,0.780739
1629376333079,-0.589199,-0.121451,0.782508
1629376333089,-0.58926,-0.122183,0.783606
1629376333099,-0.588894,-0.121817,0.783423
1629376333108,-0.58865,-0.12139,0.782996
1629376333118,-0.587552,-0.121512,0.783484
1629376333127,-0.585966,-0.122915,0.783667
1629376333137,-0.585966,-0.121146,0.784216
1629376333147,-0.58438,-0.120109,0.783667
1629376333156,-0.583526,-0.11834,0.783606
1629376333166,-0.582123,-0.116327,0.7835449999999999
1629376333175,-0.581574,-0.11516799999999999,0.782996
1629376333185,-0.580537,-0.11516799999999999,0.782264
1629376333195,-0.580415,-0.114192,0.783179
1629376333204,-0.580354,-0.113887,0.784033
1629376333214,-0.578646,-0.113582,0.782996
1629376333223,-0.577975,-0.112972,0.783789
1629376333233,-0.577792,-0.112667,0.784216
1629376333243,-0.57706,-0.113704,0.784338
1629376333252,-0.575718,-0.11254499999999999,0.784643
1629376333262,-0.576389,-0.112301,0.784948
1629376333271,-0.576755,-0.110776,0.784704
1629376333281,-0.576511,-0.11053199999999999,0.785009
1629376333291,-0.576084,-0.10919,0.7838499999999999
1629376333300,-0.576877,-0.108824,0.783179
1629376333310,-0.576084,-0.108092,0.783179
1629376333319,-0.57706,-0.107665,0.782874
1629376333329,-0.576999,-0.106872,0.782569
1629376333339,-0.577548,-0.105896,0.782752
1629376333348,-0.577243,-0.104798,0.782386
1629376333358,-0.578036,-0.104249,0.782569
1629376333367,-0.579134,-0.103029,0.781288
1629376333377,-0.580293,-0.102419,0.7811049999999999
1629376333387,-0.580171,-0.101382,0.781349
1629376333396,-0.581452,-0.10004,0.782508
1629376333406,-0.583282,-0.100894,0.784277
1629376333415,-0.583709,-0.10004,0.785436
1629376333425,-0.583282,-0.100772,0.786168
1629376333435,-0.584624,-0.09991799999999999,0.785253
1629376333444,-0.583526,-0.098027,0.784277
1629376333454,-0.584746,-0.09729499999999999,0.7838499999999999
1629376333463,-0.584746,-0.096441,0.784216
1629376333473,-0.58499,-0.096746,0.783911
1629376333483,-0.584685,-0.096746,0.783789
1629376333492,-0.5842579999999999,-0.096075,0.784216
1629376333502,-0.584441,-0.09698999999999999,0.784094
1629376333511,-0.583892,-0.097478,0.784704
1629376333521,-0.5842579999999999,-0.09759999999999999,0.785924
1629376333531,-0.583892,-0.096868,0.786656
1629376333540,-0.58438,-0.095648,0.786473
1629376333550,-0.583648,-0.09589199999999999,0.785436
1629376333559,-0.5845629999999999,-0.09455,0.784216
1629376333569,-0.584197,-0.094428,0.785192
1629376333579,-0.584685,-0.094733,0.7841549999999999
1629376333588,-0.585356,-0.09558699999999999,0.784033
1629376333598,-0.585356,-0.095709,0.786107
1629376333607,-0.58499,-0.094794,0.7881199999999999
1629376333617,-0.585356,-0.093391,0.787449
1629376333627,-0.586332,-0.092598,0.787754
1629376333636,-0.586576,-0.090585,0.7872049999999999
1629376333646,-0.5870029999999999,-0.08942599999999999,0.786778
1629376333655,-0.585722,-0.089487,0.785436
1629376333665,-0.586027,-0.08845,0.785619
1629376333675,-0.585844,-0.086986,0.784582
1629376333684,-0.5851729999999999,-0.086132,0.783789
1629376333694,-0.585966,-0.08601,0.782447
1629376333703,-0.584746,-0.08479,0.781227
1629376333713,-0.5856,-0.084058,0.780678
1629376333723,-0.586454,-0.082228,0.7811049999999999
1629376333732,-0.585966,-0.08204499999999999,0.7807999999999999
1629376333742,-0.5860879999999999,-0.080276,0.781044
1629376333751,-0.586027,-0.079849,0.781959
1629376333761,-0.587186,-0.079544,0.781166
1629376333771,-0.5870029999999999,-0.079056,0.780983
1629376333780,-0.5870029999999999,-0.079361,0.781654
1629376333790,-0.587369,-0.080093,0.782264
1629376333799,-0.587552,-0.080581,0.7838499999999999
1629376333809,-0.5870029999999999,-0.079849,0.784277
1629376333819,-0.58804,-0.078507,0.783118
1629376333828,-0.58743,-0.077958,0.782081
1629376333838,-0.5879179999999999,-0.07679899999999999,0.780983
1629376333847,-0.587552,-0.07710399999999999,0.780617
1629376333857,-0.58865,-0.077348,0.7811049999999999
1629376333867,-0.5894429999999999,-0.076555,0.781898
1629376333876,-0.587369,-0.075091,0.7823249999999999
1629376333886,-0.587552,-0.073139,0.783484
1629376333895,-0.588894,-0.072956,0.782874
1629376333905,-0.589504,-0.071858,0.782691
1629376333915,-0.590236,-0.071797,0.781898
1629376333924,-0.5906629999999999,-0.071187,0.781044
1629376333934,-0.590236,-0.071126,0.779946
1629376333943,-0.589931,-0.07124799999999999,0.7786649999999999
1629376333953,-0.590541,-0.070455,0.778543
1629376333963,-0.5903579999999999,-0.071065,0.780556
1629376333972,-0.5903579999999999,-0.071797,0.780678
1629376333982,-0.5912729999999999,-0.071004,0.7820199999999999
1629376333991,-0.591944,-0.071858,0.782447
1629376334001,-0.593042,-0.072163,0.781288
1629376334011,-0.5934079999999999,-0.072102,0.779763
1629376334020,-0.5940179999999999,-0.070394,0.780068
1629376334030,-0.59475,-0.07002799999999999,0.780068
1629376334039,-0.5940179999999999,-0.068503,0.779397
1629376334049,-0.59353,-0.067039,0.778848
1629376334059,-0.59292,-0.065819,0.777323
1629376334068,-0.594201,-0.065575,0.778299
1629376334078,-0.5949329999999999,-0.066307,0.779519
1629376334087,-0.596275,-0.066551,0.779946
1629376334097,-0.5961529999999999,-0.066917,0.780739
1629376334107,-0.5955429999999999,-0.067649,0.781166
1629376334116,-0.595116,-0.067527,0.779641
1629376334126,-0.595604,-0.066673,0.779702
1629376334135,-0.5955429999999999,-0.066978,0.778604
1629376334145,-0.5961529999999999,-0.066612,0.7786649999999999
1629376334155,-0.595909,-0.067344,0.779336
1629376334164,-0.596519,-0.06831999999999999,0.779458
1629376334174,-0.597861,-0.066978,0.781959
1629376334183,-0.598532,-0.065941,0.7807999999999999
1629376334193,-0.59902,-0.065819,0.781776
1629376334203,-0.598532,-0.065148,0.7811049999999999
1629376334212,-0.59719,-0.064904,0.780434
1629376334222,-0.596641,-0.067039,0.7783599999999999
1629376334231,-0.5970679999999999,-0.068625,0.777872
1629376334241,-0.597373,-0.068808,0.778848
1629376334251,-0.5970679999999999,-0.07002799999999999,0.778421
1629376334260,-0.597556,-0.07155299999999999,0.778726
1629376334270,-0.597983,-0.072712,0.778726
1629376334279,-0.597556,-0.073444,0.777811
1629376334289,-0.597861,-0.072834,0.777262
1629376334299,-0.598471,-0.071187,0.778909
1629376334308,-0.599935,-0.066185,0.780678
1629376334318,-0.601338,-0.060756,0.783301
1629376334327,-0.60146,-0.056669,0.786351
1629376334337,-0.601216,-0.053801999999999996,0.786046
1629376334347,-0.601155,-0.052094,0.7859849999999999
1629376334356,-0.600423,-0.050203,0.782752
1629376334366,-0.598959,-0.048434,0.779702
1629376334375,-0.596824,-0.047335999999999996,0.7746999999999999
1629376334385,-0.596336,-0.046055,0.76921
1629376334395,-0.598471,-0.04392,0.767624
1629376334404,-0.599996,-0.041663,0.769271
1629376334414,-0.601582,-0.039284,0.772077
1629376334423,-0.602375,-0.037454,0.774822
1629376334433,-0.602497,-0.035563,0.778116
1629376334443,-0.601826,-0.034587,0.7807999999999999
1629376334452,-0.599996,-0.035563,0.780007
1629376334462,-0.599996,-0.035441,0.779946
1629376334471,-0.598959,-0.036051,0.779824
1629376334481,-0.596824,-0.036661,0.779641
1629376334491,-0.595909,-0.037576,0.777018
1629376334500,-0.596214,-0.03843,0.775249
1629376334510,-0.598288,-0.038308,0.775127
1629376334519,-0.599752,-0.037698,0.777323
1629376334529,-0.60024,-0.037698,0.778604
1629376334539,-0.601216,-0.037271,0.779092
1629376334548,-0.601277,-0.036112,0.780373
1629376334558,-0.603168,-0.034526,0.779946
1629376334567,-0.603534,-0.032635,0.7814099999999999
1629376334577,-0.604266,-0.030255999999999998,0.782386
1629376334587,-0.603473,-0.029646,0.782508
1629376334596,-0.602497,-0.02928,0.779336
1629376334606,-0.602985,-0.027206,0.779458
1629376334615,-0.603534,-0.025376,0.778726
1629376334625,-0.603412,-0.023667999999999998,0.778177
1629376334635,-0.603107,-0.021777,0.775798
1629376334644,-0.603534,-0.019275999999999998,0.776408
1629376334654,-0.603351,-0.018361,0.778421
1629376334663,-0.603168,-0.018056,0.7795799999999999
1629376334673,-0.603717,-0.018056,0.779458
1629376334683,-0.602741,-0.018605,0.7777499999999999
1629376334692,-0.602558,-0.017811999999999998,0.777506
1629376334702,-0.603046,-0.017568,0.7786649999999999
1629376334711,-0.603412,-0.017811999999999998,0.779336
1629376334721,-0.603351,-0.017568,0.780129
1629376334731,-0.603839,-0.018727,0.7814099999999999
1629376334740,-0.604388,-0.020374,0.782508
1629376334750,-0.605364,-0.023241,0.785131
1629376334759,-0.606279,-0.026047,0.787571
1629376334769,-0.606462,-0.02867,0.790072
1629376334779,-0.6082919999999999,-0.02928,0.788242
1629376334788,-0.6076819999999999,-0.030073,0.786046
1629376334798,-0.607804,-0.029096999999999998,0.782386
1629376334807,-0.607438,-0.029341,0.7807999999999999
1629376334817,-0.607499,-0.030134,0.780922
1629376334827,-0.608353,-0.031354,0.783057
1629376334836,-0.608048,-0.034709,0.782081
1629376334846,-0.606584,-0.041907,0.781471
1629376334855,-0.606096,-0.048068,0.7817149999999999
1629376334865,-0.604937,-0.050386,0.781898
1629376334875,-0.604266,-0.052094,0.7829349999999999
1629376334884,-0.604632,-0.052582,0.783728
1629376334894,-0.603778,-0.052643,0.785558
1629376334903,-0.600728,-0.052582,0.7853749999999999
1629376334913,-0.598471,-0.052399,0.783728
1629376334923,-0.59414,-0.053375,0.780556
1629376334932,-0.592066,-0.054595,0.775676
1629376334942,-0.59048,-0.0549,0.773785
1629376334951,-0.5897479999999999,-0.056669,0.774029
1629376334961,-0.586576,-0.057828,0.775737
1629376334971,-0.583282,-0.05856,0.777018
1629376334980,-0.579195,-0.059536,0.780678
1629376334990,-0.576145,-0.058316,0.7844599999999999
1629376334999,-0.573339,-0.057767,0.785924
1629376335009,-0.569008,-0.055937,0.788974
1629376335019,-0.568398,-0.054595,0.788791
1629376335028,-0.565348,-0.053375,0.7868999999999999
1629376335038,-0.5635789999999999,-0.052094,0.786778
1629376335047,-0.561932,-0.050142,0.790011
1629376335057,-0.5612,-0.050752,0.794037
1629376335067,-0.557052,-0.051911,0.796172
1629376335076,-0.55266,-0.053253,0.798185
1629376335086,-0.547963,-0.05185,0.800625
1629376335095,-0.544364,-0.051179,0.803492
1629376335105,-0.539118,-0.051179,0.807152
1629376335115,-0.535214,-0.051301,0.8115439999999999
1629376335124,-0.530822,-0.05307,0.817949
1629376335134,-0.527955,-0.054412,0.826245
1629376335143,-0.522282,-0.057218,0.826367
1629376335153,-0.517097,-0.060939,0.825452
1629376335163,-0.513315,-0.065209,0.827587
1629376335172,-0.51118,-0.06893,0.832772
1629376335182,-0.504104,-0.074725,0.834419
1629376335191,-0.494466,-0.076738,0.8288679999999999
1629376335201,-0.48867099999999997,-0.083387,0.828075
1629376335211,-0.487329,-0.086925,0.834785
1629376335220,-0.48739,-0.090158,0.846131
1629376335230,-0.488122,-0.09467199999999999,0.855159
1629376335239,-0.48617,-0.09851499999999999,0.860771
1629376335249,-0.484645,-0.102724,0.862784
1629376335259,-0.48312,-0.10607899999999999,0.862845
1629376335268,-0.480375,-0.11102,0.865285
1629376335278,-0.47787399999999997,-0.115107,0.866444
1629376335287,-0.475251,-0.118767,0.866078
1629376335297,-0.473482,-0.121451,0.866871
1629376335307,-0.471713,-0.123464,0.867115
1629376335316,-0.46799199999999996,-0.125843,0.866078
1629376335326,-0.467199,-0.128771,0.867725
1629376335335,-0.466589,-0.129808,0.868213
1629376335345,-0.465918,-0.13237,0.870104
1629376335355,-0.46646699999999996,-0.133468,0.871629
1629376335364,-0.465369,-0.135481,0.873825
1629376335374,-0.465979,-0.135908,0.875472
1629376335383,-0.464515,-0.134383,0.874862
1629376335393,-0.463234,-0.134871,0.872178
1629376335403,-0.461648,-0.133224,0.866993
1629376335412,-0.460428,-0.130906,0.864736
1629376335422,-0.46006199999999997,-0.127307,0.868335
1629376335431,-0.459269,-0.124745,0.87169
1629376335441,-0.458415,-0.121573,0.87291
1629376335451,-0.457439,-0.116205,0.872849
1629376335460,-0.45566999999999996,-0.112484,0.8729709999999999
1629376335470,-0.453291,-0.109861,0.873154
1629376335479,-0.450668,-0.11053199999999999,0.87352
1629376335489,-0.45139999999999997,-0.109983,0.8763259999999999
1629376335499,-0.453108,-0.108092,0.878888
1629376335508,-0.453413,-0.106628,0.881328
1629376335518,-0.452376,-0.106262,0.880779
1629376335527,-0.452376,-0.10638399999999999,0.878949
1629376335537,-0.453413,-0.104798,0.87962
1629376335547,-0.454511,-0.103334,0.879193
1629376335556,-0.454511,-0.10174799999999999,0.87901
1629376335566,-0.454877,-0.101199,0.876814
1629376335575,-0.458171,-0.100711,0.8751059999999999
1629376335585,-0.459391,-0.100589,0.875472
1629376335595,-0.461465,-0.098759,0.870714
1629376335604,-0.464759,-0.097783,0.866383
1629376335614,-0.46799199999999996,-0.097173,0.865346
1629376335623,-0.470188,-0.095831,0.858819
1629376335633,-0.475068,-0.091988,0.853756
1629376335643,-0.483364,-0.086742,0.856196
1629376335652,-0.491904,-0.081618,0.867603
1629376335662,-0.50142,-0.078995,0.878705
1629376335671,-0.50813,-0.077958,0.885598
1629376335681,-0.509472,-0.075884,0.8842559999999999
1629376335691,-0.50935,-0.067771,0.879254
1629376335700,-0.510387,-0.055449,0.877729
1629376335710,-0.5145959999999999,-0.042273,0.878522
1629376335719,-0.51728,-0.031354,0.877424
1629376335729,-0.51362,-0.022326,0.867664
1629376335739,-0.507825,-0.014884,0.853085
1629376335748,-0.505263,-0.005978,0.844423
1629376335758,-0.506056,0.0015249999999999999,0.8367979999999999
1629376335767,-0.506117,0.007991,0.829112
1629376335777,-0.504348,0.013176,0.818498
1629376335787,-0.502396,0.022143,0.80886
1629376335796,-0.501359,0.031049,0.8023939999999999
1629376335806,-0.501664,0.039345,0.796599
1629376335815,-0.499956,0.047702,0.783911
1629376335825,-0.498614,0.05734,0.775493
1629376335835,-0.503555,0.06508699999999999,0.778604
1629376335844,-0.508069,0.068076,0.785741
1629376335854,-0.512522,0.06588,0.793244
1629376335863,-0.515694,0.061975999999999996,0.797514
1629376335873,-0.519537,0.05368,0.80398
1629376335883,-0.5219159999999999,0.043066,0.81252
1629376335892,-0.52765,0.035136,0.820145
1629376335902,-0.533933,0.033611,0.824659
1629376335911,-0.538752,0.040015999999999996,0.826794
1629376335921,-0.546316,0.05002,0.828441
1629376335931,-0.556686,0.059536,0.830271
1629376335940,-0.561322,0.065575,0.826672
1629376335950,-0.563945,0.070394,0.820084
1629376335959,-0.569557,0.073749,0.814533
1629376335969,-0.573034,0.075884,0.809592
1629376335979,-0.573766,0.080215,0.8020889999999999
1629376335988,-0.574986,0.084912,0.797758
1629376335998,-0.576389,0.091805,0.8005639999999999
1629376336007,-0.578951,0.096136,0.803126
1629376336017,-0.582062,0.096868,0.8023939999999999
1629376336027,-0.58499,0.096197,0.799893
1629376336036,-0.5866979999999999,0.09455,0.797087
1629376336046,-0.586759,0.093879,0.790926
1629376336055,-0.587369,0.094001,0.783179
1629376336065,-0.5897479999999999,0.09638,0.782203
1629376336075,-0.5903579999999999,0.100711,0.783118
1629376336084,-0.588162,0.107665,0.7859849999999999
1629376336094,-0.580964,0.11901099999999999,0.7914749999999999
1629376336103,-0.575047,0.127429,0.794952
1629376336113,-0.571143,0.127429,0.793305
1629376336123,-0.569191,0.125599,0.788608
1629376336132,-0.570106,0.123586,0.787266
1629376336142,-0.5718139999999999,0.12285399999999999,0.7893399999999999
1629376336151,-0.572058,0.11840099999999999,0.787937
1629376336161,-0.5712039999999999,0.11223999999999999,0.785009
1629376336171,-0.5696789999999999,0.105713,0.781044
1629376336180,-0.569496,0.100284,0.781227
1629376336190,-0.565653,0.094916,0.781837
1629376336199,-0.562298,0.088938,0.7811049999999999
1629376336209,-0.560956,0.084729,0.781776
1629376336219,-0.562725,0.082533,0.7905599999999999
1629376336228,-0.5641889999999999,0.080215,0.79849
1629376336238,-0.564555,0.077348,0.804712
1629376336247,-0.563823,0.071004,0.805322
1629376336257,-0.5638839999999999,0.062647,0.8048339999999999
1629376336267,-0.5635789999999999,0.055144,0.801296
1629376336276,-0.562908,0.048678,0.798307
1629376336286,-0.561322,0.048434,0.8002589999999999
1629376336295,-0.560468,0.055693,0.820572
1629376336305,-0.553636,0.05856,0.835517
1629376336315,-0.545096,0.053436,0.8374079999999999
1629376336324,-0.5407649999999999,0.043554,0.830942
1629376336334,-0.542168,0.038246999999999996,0.82289
1629376336343,-0.543571,0.035318999999999996,0.815997
1629376336353,-0.5401549999999999,0.035075,0.80825
1629376336363,-0.537593,0.036844,0.801357
1629376336372,-0.536251,0.040320999999999996,0.801723
1629376336382,-0.539179,0.042578,0.81252
1629376336391,-0.540399,0.043798,0.821731
1629376336401,-0.541802,0.042456,0.831125
1629376336411,-0.539606,0.037087999999999996,0.83265
1629376336420,-0.5377149999999999,0.031232,0.828746
1629376336430,-0.534848,0.024217,0.824781
1629376336439,-0.531859,0.02013,0.8242929999999999
1629376336449,-0.52826,0.018788,0.825574
1629376336459,-0.526552,0.019032,0.826367
1629376336468,-0.525698,0.017811999999999998,0.8258179999999999
1629376336478,-0.526064,0.015677,0.826062
1629376336487,-0.526308,0.012017,0.825452
1629376336497,-0.526552,0.006588,0.82716
1629376336507,-0.526857,0.001647,0.829417
1629376336516,-0.528992,-0.002745,0.829051
1629376336526,-0.528687,-0.004697,0.828502
1629376336535,-0.527528,-0.006222,0.828197
1629376336545,-0.526613,-0.0070149999999999995,0.826184
1629376336555,-0.527223,-0.010614,0.8297829999999999
1629376336564,-0.526552,-0.01525,0.831735
1629376336574,-0.524539,-0.021471999999999998,0.834236
1629376336583,-0.524112,-0.026291,0.835822
1629376336593,-0.523319,-0.032390999999999996,0.83631
1629376336603,-0.522038,-0.036722,0.8358829999999999
1629376336612,-0.522587,-0.040138,0.832772
1629376336622,-0.52216,-0.042822,0.830332
1629376336631,-0.5231359999999999,-0.044164,0.831552
1629376336641,-0.524478,-0.043737,0.835151
1629376336651,-0.525332,-0.041297,0.839787
1629376336660,-0.526735,-0.039284,0.842044
1629376336670,-0.529602,-0.039528,0.845155
1629376336679,-0.529114,-0.03965,0.845643
1629376336689,-0.526979,-0.040565,0.842471
1629376336699,-0.525332,-0.04331,0.839055
1629376336708,-0.522709,-0.04575,0.835029
1629376336718,-0.521733,-0.048922,0.833199
1629376336727,-0.5213059999999999,-0.053924,0.834297
1629376336737,-0.521672,-0.057279,0.837652
1629376336747,-0.52216,-0.059841,0.8395429999999999
1629376336756,-0.521794,-0.061121999999999996,0.840519
1629376336766,-0.521794,-0.061549,0.841312
1629376336775,-0.5222209999999999,-0.061549,0.842776
1629376336785,-0.520025,-0.062464,0.839665
1629376336795,-0.5182559999999999,-0.063867,0.839665
1629376336804,-0.515999,-0.06539199999999999,0.839909
1629376336814,-0.5142909999999999,-0.06740499999999999,0.8404579999999999
1629376336823,-0.514474,-0.068869,0.842288
1629376336833,-0.5133759999999999,-0.07033299999999999,0.84424
1629376336843,-0.512583,-0.070699,0.845216
1629376336852,-0.511302,-0.069784,0.846558
1629376336862,-0.509594,-0.069906,0.845826
1629376336871,-0.508191,-0.068991,0.845887
1629376336881,-0.506422,-0.066063,0.846863
1629376336891,-0.506422,-0.062464,0.847656
1629376336900,-0.505995,-0.060207,0.849608
1629376336910,-0.504836,-0.060878,0.8492419999999999
1629376336919,-0.503494,-0.061366,0.8501569999999999
1629376336929,-0.499834,-0.062464,0.850584
1629376336939,-0.49794299999999997,-0.058804,0.849425
1629376336948,-0.497089,-0.054046,0.848449
1629376336958,-0.49550299999999997,-0.054107,0.8479
1629376336967,-0.495137,-0.054595,0.8479
1629376336977,-0.49349,-0.055876,0.847961
1629376336987,-0.493429,-0.055144,0.849791
1629376336996,-0.494405,-0.054717,0.852475
1629376337006,-0.493063,-0.055815,0.8529019999999999
1629376337015,-0.49263599999999996,-0.057523,0.850645
1629376337025,-0.491538,-0.058743,0.8510719999999999
1629376337035,-0.48958599999999997,-0.061061,0.8489369999999999
1629376337044,-0.489098,-0.061732,0.846863
1629376337054,-0.48739,-0.061426999999999995,0.846131
1629376337063,-0.488122,-0.05917,0.845338
1629376337073,-0.490135,-0.057462,0.8461919999999999
1629376337083,-0.490562,-0.056119999999999996,0.848449
1629376337092,-0.492209,-0.056913,0.848815
1629376337102,-0.49355099999999996,-0.058682,0.848571
1629376337111,-0.496906,-0.058255,0.850035
1629376337121,-0.497516,-0.058072,0.852536
1629376337131,-0.499407,-0.055754,0.853634
1629376337140,-0.500078,-0.055998,0.853695
1629376337150,-0.501176,-0.055998,0.85278
1629376337159,-0.501359,-0.055815,0.853146
1629376337169,-0.500932,-0.056059,0.85461
1629376337179,-0.5002,-0.053375,0.851133
1629376337188,-0.49855299999999997,-0.050142,0.8483269999999999
1629376337198,-0.498675,-0.047153,0.849486
1629376337207,-0.49824799999999997,-0.044835,0.851011
1629376337217,-0.497821,-0.042456,0.854366
1629376337227,-0.49715,-0.043859,0.855159
1629376337236,-0.494771,-0.044164,0.852719
1629376337246,-0.492819,-0.042943999999999996,0.848693
1629376337255,-0.492453,-0.039284,0.845582
1629376337265,-0.490013,-0.035623999999999996,0.84607
1629376337275,-0.488915,-0.032818,0.845155
1629376337284,-0.487817,-0.028426,0.842593
1629376337294,-0.48739,-0.024949,0.841861
1629376337303,-0.488549,-0.024888,0.842654
1629376337313,-0.488915,-0.024217,0.843081
1629376337323,-0.48922,-0.025376,0.8418
1629376337332,-0.48897599999999997,-0.027267,0.842532
1629376337342,-0.489403,-0.028487,0.842288
1629376337351,-0.491904,-0.029341,0.84363
1629376337361,-0.49105,-0.032574,0.84363
1629376337371,-0.493307,-0.033428,0.846009
1629376337380,-0.49532,-0.035258,0.846985
1629376337390,-0.497821,-0.036173,0.848266
1629376337399,-0.498797,-0.037087999999999996,0.849608
1629376337409,-0.49898,-0.039528,0.852048
1629376337419,-0.500444,-0.042334,0.852231
1629376337428,-0.502518,-0.0427,0.85461
1629376337438,-0.502213,-0.0427,0.854488
1629376337447,-0.503738,-0.042212,0.854976
1629376337457,-0.504714,-0.040992,0.854183
1629376337467,-0.506544,-0.03782,0.854793
1629376337476,-0.50813,-0.033977,0.85461
1629376337486,-0.508557,-0.031049,0.8513769999999999
1629376337495,-0.508435,-0.028426,0.849974
1629376337505,-0.507276,-0.027084,0.848388
1629376337515,-0.506666,-0.028791999999999998,0.845826
1629376337524,-0.504775,-0.02928,0.843752
1629376337534,-0.504653,-0.029646,0.841983
1629376337543,-0.504165,-0.027023,0.841129
1629376337553,-0.50264,-0.025131999999999998,0.840824
1629376337563,-0.502457,-0.021411,0.841922
1629376337572,-0.503921,-0.01952,0.843691
1629376337582,-0.503311,-0.018543999999999998,0.843142
1629376337591,-0.504165,-0.018422,0.842593
1629376337601,-0.503189,-0.019154,0.844118
1629376337611,-0.50264,-0.02196,0.844362
1629376337620,-0.503372,-0.022326,0.845399
1629376337630,-0.503494,-0.023972999999999998,0.848876
1629376337639,-0.501481,-0.025254,0.851194
1629376337649,-0.50142,-0.025863999999999998,0.853085
1629376337659,-0.500932,-0.026291,0.852353
1629376337668,-0.500505,-0.026291,0.852963
1629376337678,-0.49837,-0.028304,0.851804
1629376337687,-0.497089,-0.028426,0.849974
1629376337697,-0.49593,-0.029463,0.85156
1629376337707,-0.49489299999999997,-0.02928,0.851438
1629376337716,-0.49489299999999997,-0.02928,0.84973
1629376337726,-0.494466,-0.027755,0.851438
1629376337735,-0.49471,-0.026474,0.8516819999999999
1629376337745,-0.495015,-0.026291,0.8486319999999999
1629376337755,-0.493307,-0.026474,0.845826
1629376337764,-0.492819,-0.026779,0.843813
1629376337774,-0.493612,-0.026718,0.844606
1629376337783,-0.493429,-0.027694,0.845948
1629376337793,-0.49355099999999996,-0.030134,0.846558
1629376337803,-0.495076,-0.030134,0.847534
1629376337812,-0.49471,-0.0305,0.848693
1629376337822,-0.495686,-0.029828999999999998,0.848144
1629376337831,-0.494771,-0.030866,0.848571
1629376337841,-0.4941,-0.033489,0.849059
1629376337851,-0.4941,-0.033367,0.848144
1629376337860,-0.494344,-0.033489,0.85095
1629376337870,-0.495259,-0.031171,0.85034
1629376337879,-0.495686,-0.031842,0.849669
1629376337889,-0.496174,-0.032085999999999996,0.85034
1629376337899,-0.49580799999999997,-0.033977,0.852109
1629376337908,-0.49654,-0.035197,0.8525969999999999
1629376337918,-0.495564,-0.036661,0.8544269999999999
1629376337927,-0.495442,-0.037454,0.854244
1629376337937,-0.494466,-0.036356,0.855586
1629376337947,-0.494832,-0.035441,0.855464
1629376337956,-0.493612,-0.036112,0.854061
1629376337966,-0.491843,-0.035807,0.855159
1629376337975,-0.49050099999999996,-0.036173,0.854305
1629376337985,-0.490013,-0.036112,0.855464
1629376337995,-0.489403,-0.035746,0.858453
1629376338004,-0.49105,-0.037576,0.86193
1629376338014,-0.491965,-0.04087,0.8644919999999999
1629376338023,-0.494649,-0.042517,0.87108
1629376338033,-0.494039,-0.046238,0.873337
1629376338043,-0.494527,-0.047945999999999996,0.876448
1629376338052,-0.49227,-0.051179,0.879559
1629376338062,-0.488183,-0.052094,0.8754109999999999
1629376338071,-0.48348599999999997,-0.051179,0.868335
1629376338081,-0.479582,-0.04819,0.86193
1629376338091,-0.47451899999999997,-0.04819,0.85339
1629376338100,-0.47146899999999997,-0.047397,0.851316
1629376338110,-0.472506,-0.0427,0.852475
1629376338119,-0.469395,-0.045079,0.8483269999999999
1629376338129,-0.467443,-0.048922,0.84607
1629376338139,-0.46726,-0.049044,0.8471069999999999
1629376338148,-0.468724,-0.046665,0.846131
1629376338158,-0.470371,-0.043127,0.847534
1629376338167,-0.471591,-0.038369,0.847168
1629376338177,-0.472323,-0.034587,0.847961
1629376338187,-0.471652,-0.032635,0.844667
1629376338196,-0.472262,-0.028609,0.842044
1629376338206,-0.471591,-0.026352,0.842837
1629376338215,-0.471042,-0.026168999999999998,0.842166
1629376338225,-0.47238399999999997,-0.024888,0.847168
1629376338235,-0.472933,-0.022082,0.847656
1629376338244,-0.47458,-0.023363,0.849974
1629376338254,-0.47421399999999997,-0.025559,0.853146
1629376338263,-0.472506,-0.029646,0.854488
1629376338273,-0.474153,-0.030317,0.85888
1629376338283,-0.476593,-0.029096999999999998,0.860588
1629376338292,-0.476776,-0.030805,0.8614419999999999
1629376338302,-0.476471,-0.031476,0.8623569999999999
1629376338311,-0.475861,-0.033489,0.860893
1629376338321,-0.474031,-0.036905,0.86315
1629376338331,-0.47482399999999997,-0.039162,0.863394
1629376338340,-0.473177,-0.043554,0.864736
1629376338350,-0.472262,-0.048068,0.870104
1629376338359,-0.470554,-0.053009,0.872788
1629376338369,-0.470554,-0.053985,0.875289
1629376338379,-0.469578,-0.055570999999999995,0.875899
1629376338388,-0.467321,-0.058316,0.875472
1629376338398,-0.465186,-0.059719,0.8766309999999999
1629376338407,-0.464881,-0.06039,0.875655
1629376338417,-0.463905,-0.061549,0.876875
1629376338427,-0.46250199999999997,-0.06283,0.878278
1629376338436,-0.46250199999999997,-0.062098,0.8757159999999999
1629376338446,-0.463966,-0.059292,0.87596
1629376338455,-0.463295,-0.061549,0.8748009999999999
1629376338465,-0.461343,-0.063135,0.874374
1629376338475,-0.460001,-0.062647,0.87047
1629376338484,-0.459696,-0.061732,0.873032
1629376338494,-0.461038,-0.060268,0.872727
1629376338503,-0.46116,-0.05551,0.870287
1629376338513,-0.460489,-0.055205,0.8723
1629376338523,-0.46177,-0.051972,0.873093
1629376338532,-0.460794,-0.052765,0.871263
1629376338542,-0.457744,-0.055754,0.869189
1629376338551,-0.45597499999999996,-0.056486,0.86803
1629376338561,-0.456463,-0.055083,0.869067
1629376338571,-0.457622,-0.054778,0.869616
1629376338580,-0.458659,-0.053558,0.871324
1629376338590,-0.45933,-0.053558,0.873154
1629376338599,-0.458415,-0.053009,0.875594
1629376338609,-0.45945199999999997,-0.051422999999999996,0.8787659999999999
1629376338619,-0.46280699999999997,-0.050813,0.880962
1629376338628,-0.46219699999999997,-0.056852,0.885293
1629376338638,-0.463844,-0.055754,0.886147
1629376338647,-0.462014,-0.058193999999999996,0.884012
1629376338657,-0.461099,-0.062464,0.877302
1629376338667,-0.46158699999999997,-0.061305,0.87596
1629376338676,-0.462014,-0.06222,0.872727
1629376338686,-0.46158699999999997,-0.062464,0.872788
1629376338695,-0.460855,-0.062708,0.872849
1629376338705,-0.459513,-0.063745,0.8723609999999999
1629376338715,-0.45872,-0.064355,0.878278
1629376338724,-0.459391,-0.058255,0.878888
1629376338734,-0.459696,-0.053801999999999996,0.8778509999999999
1629376338743,-0.46116,-0.05307,0.881877
1629376338753,-0.456097,-0.052094,0.878278
1629376338763,-0.453901,-0.052948,0.872117
1629376338772,-0.453657,-0.047275,0.865224
1629376338782,-0.453108,-0.047824,0.862784
1629376338791,-0.44956999999999997,-0.05124,0.86132
1629376338801,-0.447069,-0.049532,0.862845
1629376338811,-0.447191,-0.035807,0.857294
1629376338820,-0.44773999999999997,-0.028426,0.853268
1629376338830,-0.442311,-0.030378,0.855159
1629376338839,-0.436882,-0.038125,0.853268
1629376338849,-0.431758,-0.044042,0.855403
1629376338859,-0.43005,-0.04819,0.860649
1629376338868,-0.43005,-0.044225,0.8601
1629376338878,-0.432795,-0.03843,0.858026
1629376338887,-0.43676,-0.038796,0.862235
1629376338897,-0.435845,-0.047824,0.862601
1629376338907,-0.44456799999999996,-0.046176999999999996,0.875228
1629376338916,-0.44652,-0.050142,0.874252
1629376338926,-0.446032,-0.046726,0.873154
1629376338935,-0.447984,-0.043371,0.875838
1629376338945,-0.44987499999999997,-0.03843,0.866627
1629376338955,-0.448472,-0.043493,0.86376
1629376338964,-0.450424,-0.047519,0.871202
1629376338974,-0.454877,-0.049349,0.8815109999999999
1629376338983,-0.452254,-0.05002,0.881633
1629376338993,-0.451217,-0.058498999999999995,0.88145
1629376339003,-0.45231499999999997,-0.061732,0.8845
1629376339012,-0.453291,-0.06222,0.885903
1629376339022,-0.45536499999999996,-0.060085,0.886818
1629376339031,-0.456829,-0.058438,0.88328
1629376339041,-0.45872,-0.053191999999999996,0.878278
1629376339051,-0.459086,-0.05246,0.871873
1629376339060,-0.460245,-0.052704,0.868884
1629376339070,-0.458964,-0.055022,0.868457
1629376339079,-0.461099,-0.055815,0.875289
1629376339089,-0.459086,-0.067527,0.880718
1629376339099,-0.455731,-0.072163,0.881938
1629376339108,-0.45414499999999997,-0.083936,0.883402
1629376339118,-0.448716,-0.08820599999999999,0.8842559999999999
1629376339127,-0.440786,-0.08418,0.87962
1629376339137,-0.429684,-0.07503,0.871568
1629376339147,-0.42950099999999997,-0.062098,0.864614
1629376339156,-0.437736,-0.055815,0.861991
1629376339166,-0.44164,-0.049349,0.866017
1629376339175,-0.437126,-0.053436,0.8544269999999999
1629376339185,-0.437614,-0.06161,0.847168
1629376339195,-0.446459,-0.053191999999999996,0.8568669999999999
1629376339204,-0.449204,-0.055205,0.869677
1629376339214,-0.449204,-0.059962999999999995,0.8757159999999999
1629376339223,-0.447923,-0.066185,0.880657
1629376339233,-0.4453,-0.07124799999999999,0.877607
1629376339243,-0.446703,-0.066307,0.882548
1629376339252,-0.44304299999999996,-0.06405,0.878217
1629376339262,-0.438224,-0.064355,0.864248
1629376339271,-0.43785799999999997,-0.064111,0.861991
1629376339281,-0.440664,-0.06539199999999999,0.868213
1629376339291,-0.444873,-0.068869,0.877668
1629376339300,-0.446337,-0.072773,0.8845
1629376339310,-0.446276,-0.075274,0.8882209999999999
1629376339319,-0.442982,-0.083021,0.887977
1629376339329,-0.438224,-0.08820599999999999,0.887489
1629376339339,-0.434564,-0.091622,0.887245
1629376339348,-0.430965,-0.096136,0.886635
1629376339358,-0.43011099999999997,-0.09638,0.886208
1629376339367,-0.427915,-0.096868,0.886269
1629376339377,-0.42523099999999997,-0.100284,0.887855
1629376339387,-0.424133,-0.09991799999999999,0.890295
1629376339396,-0.423279,-0.10187,0.893894
1629376339406,-0.421022,-0.102358,0.896822
1629376339415,-0.417667,-0.105042,0.898957
1629376339425,-0.416325,-0.102358,0.892857
1629376339435,-0.415715,-0.100467,0.893101
1629376339444,-0.416447,-0.099308,0.895663
1629376339454,-0.416508,-0.096441,0.897493
1629376339463,-0.417606,-0.094245,0.897737
1629376339473,-0.419131,-0.092293,0.8997499999999999
1629376339483,-0.421632,-0.089853,0.900177
1629376339492,-0.422608,-0.09028,0.901214
1629376339502,-0.42370599999999997,-0.08851099999999999,0.901824
1629376339511,-0.423035,-0.08820599999999999,0.898164
1629376339521,-0.422852,-0.089304,0.893772
1629376339531,-0.422242,-0.087962,0.890173
1629376339540,-0.421144,-0.083936,0.889258
1629376339550,-0.419253,-0.081252,0.889624
1629376339559,-0.41846,-0.077348,0.890295
1629376339569,-0.41907,-0.0732,0.8942599999999999
1629376339579,-0.418826,-0.06954,0.892918
1629376339588,-0.419131,-0.066856,0.889685
1629376339598,-0.418277,-0.064721,0.886208
1629376339607,-0.41626399999999997,-0.06447699999999999,0.879559
1629376339617,-0.416386,-0.061793,0.87962
1629376339627,-0.415715,-0.061671,0.878888
1629376339636,-0.415837,-0.058377,0.880169
1629376339646,-0.416813,-0.055022,0.883829
1629376339655,-0.415105,-0.053558,0.881633
1629376339665,-0.415227,-0.051179,0.88267
1629376339675,-0.415715,-0.052704,0.881999
1629376339684,-0.416081,-0.052337999999999996,0.883402
1629376339694,-0.42022899999999996,-0.051606,0.8866959999999999
1629376339703,-0.422852,-0.051911,0.889319
1629376339713,-0.424072,-0.053375,0.88938
1629376339723,-0.42645099999999997,-0.054534,0.890295
1629376339732,-0.428037,-0.0549,0.89182
1629376339742,-0.428525,-0.054960999999999996,0.890478
1629376339751,-0.429135,-0.054107,0.889014
1629376339761,-0.432124,-0.048617,0.888099
1629376339771,-0.433893,-0.04575,0.885903
1629376339780,-0.437065,-0.041297,0.885232
1629376339790,-0.440237,-0.038003,0.887428
1629376339799,-0.443836,-0.03538,0.894504
1629376339809,-0.4453,-0.034343,0.8963949999999999
1629376339819,-0.445605,-0.035258,0.893772
1629376339828,-0.445544,-0.034221,0.890722
1629376339838,-0.444507,-0.032269,0.888709
1629376339847,-0.443836,-0.032085999999999996,0.88572
1629376339857,-0.443714,-0.033733,0.88389
1629376339867,-0.443836,-0.034648,0.879742
1629376339876,-0.444995,-0.036051,0.87657
1629376339886,-0.443165,-0.037515,0.8735809999999999
1629376339895,-0.443714,-0.039710999999999996,0.872544
1629376339905,-0.44395799999999996,-0.041114,0.870348
1629376339915,-0.442799,-0.043066,0.86803
1629376339924,-0.442067,-0.043615,0.869555
1629376339934,-0.441274,-0.046116,0.868884
1629376339943,-0.441579,-0.047640999999999996,0.86925
1629376339953,-0.441701,-0.048068,0.867908
1629376339963,-0.440115,-0.04819,0.865224
1629376339972,-0.440481,-0.048068,0.86803
1629376339982,-0.442006,-0.045384,0.874923
1629376339991,-0.442799,-0.041602,0.878827
1629376340001,-0.443165,-0.0427,0.881999
1629376340011,-0.44164,-0.043432,0.88145
1629376340020,-0.438834,-0.045506,0.88023
1629376340030,-0.43798,-0.046238,0.880169
1629376340039,-0.43737,-0.045994,0.882609
1629376340049,-0.435967,-0.047030999999999996,0.88511
1629376340059,-0.433466,-0.050386,0.8830359999999999
1629376340068,-0.432734,-0.052032999999999996,0.882182
1629376340078,-0.430965,-0.052765,0.881389
1629376340087,-0.429379,-0.054412,0.8839509999999999
1629376340097,-0.429562,-0.054960999999999996,0.881877
1629376340107,-0.429135,-0.057157,0.8799859999999999
1629376340116,-0.428952,-0.057583999999999996,0.878827
1629376340126,-0.430477,-0.059352999999999996,0.8763259999999999
1629376340135,-0.430843,-0.061732,0.8781559999999999
1629376340145,-0.432002,-0.061366,0.8796809999999999
1629376340155,-0.431697,-0.060939,0.88145
1629376340164,-0.433222,-0.060695,0.884805
1629376340174,-0.434808,-0.060329,0.885842
1629376340183,-0.435967,-0.058193999999999996,0.8842559999999999
1629376340193,-0.43541799999999997,-0.056729999999999996,0.8845609999999999
1629376340203,-0.435601,-0.053741,0.883768
1629376340212,-0.436516,-0.053009,0.883402
1629376340222,-0.43615,-0.052948,0.880535
1629376340231,-0.435662,-0.049044,0.878827
1629376340241,-0.43724799999999997,-0.048007,0.883219
1629376340251,-0.438956,-0.04575,0.883463
1629376340260,-0.439566,-0.045323,0.884195
1629376340270,-0.437797,-0.044286,0.883402
1629376340279,-0.436882,-0.041236,0.880169
1629376340289,-0.43694299999999997,-0.038064,0.8793759999999999
1629376340299,-0.43663799999999997,-0.036722,0.8812059999999999
1629376340308,-0.435174,-0.035258,0.879193
1629376340318,-0.434076,-0.034526,0.876692
1629376340327,-0.433588,-0.033733,0.877302
1629376340337,-0.433771,-0.03538,0.878888
1629376340347,-0.433893,-0.034587,0.88084
1629376340356,-0.432795,-0.038125,0.882243
1629376340366,-0.432002,-0.040504,0.883402
1629376340375,-0.431697,-0.0427,0.8833409999999999
1629376340385,-0.43163599999999996,-0.042883,0.883707
1629376340395,-0.431209,-0.04392,0.886574
1629376340404,-0.430904,-0.042883,0.887062
1629376340414,-0.43005,-0.044407999999999996,0.88572
1629376340423,-0.429562,-0.045689,0.883768
1629376340433,-0.429684,-0.04697,0.881694
1629376340443,-0.430233,-0.047945999999999996,0.878339
1629376340452,-0.429074,-0.049409999999999996,0.876204
1629376340462,-0.42797599999999997,-0.049532,0.877729
1629376340471,-0.427427,-0.050263999999999996,0.8781559999999999
1629376340481,-0.42822,-0.046238,0.8799859999999999
1629376340491,-0.42919599999999997,-0.044042,0.884012
1629376340500,-0.429135,-0.042638999999999996,0.887123
1629376340510,-0.429745,-0.041663,0.888709
1629376340519,-0.430355,-0.043615,0.886147
1629376340529,-0.43224599999999996,-0.041236,0.883829
1629376340539,-0.433893,-0.041053,0.885598
1629376340548,-0.435052,-0.04453,0.88877
1629376340558,-0.43798,-0.045506,0.8876109999999999
1629376340567,-0.439566,-0.045689,0.8876109999999999
1629376340577,-0.440359,-0.044957,0.886025
1629376340587,-0.44182299999999997,-0.041663,0.885293
1629376340596,-0.443531,-0.039589,0.881999
1629376340606,-0.444812,-0.039528,0.879315
1629376340615,-0.4453,-0.040077,0.878278
1629376340625,-0.447679,-0.039528,0.877424
1629376340635,-0.447618,-0.041784999999999996,0.873703
1629376340644,-0.44804499999999997,-0.043554,0.8711409999999999
1629376340654,-0.44926499999999997,-0.045018,0.8699209999999999
1629376340663,-0.44956999999999997,-0.046482,0.867847
1629376340673,-0.45109499999999997,-0.047885,0.868091
1629376340683,-0.45200999999999997,-0.048861,0.866322
1629376340692,-0.452071,-0.05063,0.866322
1629376340702,-0.452498,-0.050568999999999996,0.862601
1629376340711,-0.453901,-0.051422999999999996,0.863394
1629376340721,-0.45658499999999996,-0.052704,0.86315
1629376340731,-0.458354,-0.051606,0.8647969999999999
1629376340740,-0.459635,-0.050568999999999996,0.867115
1629376340750,-0.46158699999999997,-0.050447,0.869616
1629376340759,-0.4636,-0.048799999999999996,0.870653
1629376340769,-0.464271,-0.048129,0.869128
1629376340779,-0.466345,-0.045628,0.871324
1629376340788,-0.467748,-0.044042,0.87352
1629376340798,-0.467443,-0.042517,0.873642
1629376340807,-0.468114,-0.043005,0.873032
1629376340817,-0.46829699999999996,-0.043737,0.871385
1629376340827,-0.468724,-0.043615,0.869128
1629376340836,-0.468358,-0.0427,0.865712
1629376340846,-0.468724,-0.041907,0.865773
1629376340855,-0.46860199999999996,-0.041358,0.866322
1629376340865,-0.469334,-0.040748,0.867786
1629376340875,-0.46829699999999996,-0.04026,0.867237
1629376340884,-0.46738199999999996,-0.040565,0.866383
1629376340894,-0.46799199999999996,-0.039528,0.865468
1629376340903,-0.467626,-0.040077,0.865529
1629376340913,-0.466894,-0.04087,0.865773
1629376340923,-0.46677199999999996,-0.041419,0.866993
1629376340932,-0.465369,-0.04331,0.864736
1629376340942,-0.46482,-0.044164,0.866078
1629376340951,-0.464576,-0.04514,0.867542
1629376340961,-0.464454,-0.04575,0.866078
1629376340971,-0.464576,-0.046176999999999996,0.866627
1629376340980,-0.46482,-0.046787,0.866688
1629376340990,-0.465369,-0.046726,0.868884
1629376340999,-0.465186,-0.04697,0.87169
1629376341009,-0.46585699999999997,-0.047824,0.873032
1629376341019,-0.46665,-0.049227,0.87291
1629376341028,-0.465674,-0.052337999999999996,0.872422
1629376341038,-0.465064,-0.053131,0.871812
1629376341047,-0.464576,-0.053619,0.86864
1629376341057,-0.46421,-0.054168,0.868396
1629376341067,-0.463356,-0.053191999999999996,0.86925
1629376341076,-0.461038,-0.052399,0.869555
1629376341086,-0.461099,-0.051789,0.870348
1629376341095,-0.46097699999999997,-0.051727999999999996,0.8708359999999999
1629376341105,-0.462014,-0.051972,0.873032
1629376341115,-0.46128199999999997,-0.051789,0.874008
1629376341124,-0.461404,-0.05307,0.873947
1629376341134,-0.461038,-0.054107,0.87535
1629376341143,-0.460245,-0.053985,0.8744959999999999
1629376341153,-0.459269,-0.052216,0.874252
1629376341163,-0.458659,-0.052399,0.875777
1629376341172,-0.45872,-0.049837,0.875838
1629376341182,-0.457378,-0.048556,0.875045
1629376341191,-0.457195,-0.047214,0.871873
1629376341201,-0.456646,-0.045994,0.87108
1629376341211,-0.455487,-0.045566999999999996,0.868457
1629376341220,-0.454938,-0.045323,0.866566
1629376341230,-0.453779,-0.046055,0.865651
1629376341239,-0.453596,-0.046421,0.864614
1629376341249,-0.452742,-0.04697,0.864675
1629376341259,-0.45261999999999997,-0.048678,0.863028
1629376341268,-0.45322999999999997,-0.050325,0.861564
1629376341278,-0.452742,-0.051972,0.863333
1629376341287,-0.453352,-0.05307,0.864614
1629376341297,-0.454511,-0.054655999999999996,0.865834
1629376341307,-0.454877,-0.056119999999999996,0.866017
1629376341316,-0.455853,-0.05734,0.865834
1629376341326,-0.456524,-0.057888999999999996,0.866078
1629376341335,-0.45811,-0.05795,0.866444
1629376341345,-0.459879,-0.058926,0.868457
1629376341355,-0.460001,-0.060085,0.867359
1629376341364,-0.461526,-0.059719,0.867847
1629376341374,-0.463173,-0.058316,0.870104
1629376341383,-0.46299,-0.057583999999999996,0.869738
1629376341393,-0.463783,-0.057523,0.869738
1629376341403,-0.465613,-0.056669,0.869799
1629376341412,-0.464454,-0.055937,0.8708359999999999
1629376341422,-0.464698,-0.056974,0.870043
1629376341431,-0.464881,-0.055937,0.869799
1629376341441,-0.464149,-0.056181,0.870043
1629376341451,-0.464088,-0.055632,0.870043
1629376341460,-0.46482,-0.053314,0.869799
1629376341470,-0.464759,-0.05368,0.869006
1629376341479,-0.464271,-0.055144,0.867786
1629376341489,-0.463905,-0.054351,0.868579
1629376341499,-0.464149,-0.05368,0.868396
1629376341508,-0.464454,-0.055022,0.868884
1629376341518,-0.463173,-0.055265999999999996,0.867969
1629376341527,-0.46372199999999997,-0.056608,0.86681
1629376341537,-0.46341699999999997,-0.057583999999999996,0.8651019999999999
1629376341547,-0.463661,-0.057645,0.8641869999999999
1629376341556,-0.46463699999999997,-0.057523,0.865285
1629376341566,-0.464698,-0.058926,0.866078
1629376341575,-0.46482,-0.05917,0.8651019999999999
1629376341585,-0.464393,-0.058743,0.865773
1629376341595,-0.46555199999999997,-0.056486,0.866322
1629376341604,-0.464393,-0.057279,0.866566
1629376341614,-0.465003,-0.055937,0.866322
1629376341623,-0.465613,-0.056486,0.866566
1629376341633,-0.46482,-0.055327,0.86681
1629376341643,-0.46433199999999997,-0.056059,0.864919
1629376341652,-0.464088,-0.054595,0.862906
1629376341662,-0.464454,-0.056303,0.860283
1629376341671,-0.463356,-0.057279,0.860283
1629376341681,-0.463966,-0.059841,0.861686
1629376341691,-0.464393,-0.059536,0.8632719999999999
1629376341700,-0.46555199999999997,-0.059962999999999995,0.8651019999999999
1629376341710,-0.46555199999999997,-0.060451,0.868152
1629376341719,-0.467138,-0.059109,0.868579
1629376341729,-0.466894,-0.058438,0.867237
1629376341739,-0.46707699999999996,-0.058316,0.867054
1629376341748,-0.466528,-0.057279,0.86864
1629376341758,-0.466223,-0.056424999999999996,0.86925
1629376341767,-0.466711,-0.056242,0.867542
1629376341777,-0.467138,-0.054412,0.866993
1629376341787,-0.46616199999999997,-0.056791,0.8647969999999999
1629376341796,-0.466223,-0.056486,0.864919
1629376341806,-0.466406,-0.056669,0.86376
1629376341815,-0.467016,-0.055570999999999995,0.86437
1629376341825,-0.46665,-0.053496999999999996,0.865346
1629376341835,-0.466833,-0.051789,0.864309
1629376341844,-0.467504,-0.050996,0.863821
1629376341854,-0.468114,-0.050386,0.862174
1629376341863,-0.46787,-0.051911,0.861686
1629376341873,-0.468358,-0.052032999999999996,0.860771
1629376341883,-0.467626,-0.054412,0.8602219999999999
1629376341892,-0.469395,-0.055754,0.860893
1629376341902,-0.46921199999999996,-0.056242,0.862784
1629376341911,-0.46909,-0.056059,0.865224
1629376341921,-0.469395,-0.056303,0.866993
1629376341931,-0.470432,-0.056119999999999996,0.867542
1629376341940,-0.469578,-0.058377,0.864431
1629376341950,-0.470127,-0.058804,0.86315
1629376341959,-0.470432,-0.058438,0.8626619999999999
1629376341969,-0.471408,-0.058621,0.8626619999999999
1629376341979,-0.47360399999999997,-0.057828,0.862296
1629376341988,-0.473482,-0.056424999999999996,0.861625
1629376341998,-0.47458,-0.054960999999999996,0.8632719999999999
1629376342007,-0.47458,-0.054595,0.861991
1629376342017,-0.474641,-0.053375,0.862784
1629376342027,-0.474397,-0.052277,0.8629669999999999
1629376342036,-0.474458,-0.053436,0.862906
1629376342046,-0.47512899999999997,-0.052826,0.86254
1629376342055,-0.47482399999999997,-0.05307,0.8620519999999999
1629376342065,-0.474397,-0.052948,0.861869
1629376342075,-0.47543399999999997,-0.053863,0.861198
1629376342084,-0.475068,-0.053741,0.860893
1629376342094,-0.47604399999999997,-0.054229,0.8608319999999999
1629376342103,-0.475007,-0.054778,0.859856
1629376342113,-0.47512899999999997,-0.053985,0.858514
1629376342123,-0.4758,-0.053009,0.859856
1629376342132,-0.477081,-0.051911,0.859673
1629376342142,-0.477081,-0.05002,0.860588
1629376342151,-0.476837,-0.049349,0.8608319999999999
1629376342161,-0.47702,-0.048861,0.861015
1629376342171,-0.476166,-0.048799999999999996,0.859856
1629376342180,-0.475983,-0.049593,0.858209
1629376342190,-0.475617,-0.048739,0.857416
1629376342199,-0.47604399999999997,-0.047763,0.857111
1629376342209,-0.477386,-0.048373,0.857843
1629376342219,-0.476898,-0.047824,0.8574769999999999
1629376342228,-0.476776,-0.048312,0.857416
1629376342238,-0.477142,-0.048434,0.857416
1629376342247,-0.47787399999999997,-0.048068,0.857904
1629376342257,-0.477752,-0.048678,0.8577819999999999
1629376342267,-0.47787399999999997,-0.050203,0.857355
1629376342276,-0.47695899999999997,-0.051789,0.8571719999999999
1629376342286,-0.476105,-0.053314,0.8562569999999999
1629376342295,-0.476166,-0.054534,0.858453
1629376342305,-0.475251,-0.05429,0.859856
1629376342315,-0.475312,-0.055022,0.861015
1629376342324,-0.475861,-0.055449,0.8626619999999999
1629376342334,-0.475983,-0.056486,0.861991
1629376342343,-0.476898,-0.057706,0.861686
1629376342353,-0.475678,-0.059231,0.8617469999999999
1629376342363,-0.476288,-0.058743,0.862235
1629376342372,-0.476532,-0.059414,0.860344
1629376342382,-0.477447,-0.059352999999999996,0.8599169999999999
1629376342391,-0.47756899999999997,-0.058438,0.85949
1629376342401,-0.47763,-0.057706,0.859246
1629376342411,-0.47946,-0.056424999999999996,0.859368
1629376342420,-0.479033,-0.055998,0.858758
1629376342430,-0.47909399999999996,-0.056119999999999996,0.858514
1629376342439,-0.479155,-0.055265999999999996,0.858636
1629376342449,-0.478667,-0.054717,0.85888
1629376342459,-0.479643,-0.053985,0.858758
1629376342468,-0.47909399999999996,-0.054168,0.858575
1629376342478,-0.480131,-0.054412,0.85888
1629376342487,-0.480192,-0.05368,0.85766
1629376342497,-0.481168,-0.053801999999999996,0.85644
1629376342507,-0.480497,-0.052826,0.8559519999999999
1629376342516,-0.480253,-0.052582,0.855769
1629376342526,-0.479582,-0.053863,0.855403
1629376342535,-0.479887,-0.0549,0.856135
1629376342545,-0.480497,-0.055754,0.857538
1629376342555,-0.48129,-0.055754,0.857111
1629376342564,-0.48122899999999996,-0.055449,0.857233
1629376342574,-0.481168,-0.055083,0.857538
1629376342583,-0.482083,-0.053801999999999996,0.8586969999999999
1629376342593,-0.482632,-0.052948,0.859185
1629376342603,-0.482083,-0.053191999999999996,0.859368
1629376342612,-0.482449,-0.052704,0.857965
1629376342622,-0.482815,-0.05246,0.857904
1629376342631,-0.48257099999999997,-0.052521,0.8577819999999999
1629376342641,-0.481595,-0.053558,0.856806
1629376342651,-0.482022,-0.053863,0.857294
1629376342660,-0.48129,-0.053741,0.857233
1629376342670,-0.48092399999999996,-0.052582,0.857965
1629376342679,-0.48129,-0.052826,0.858758
1629376342689,-0.481046,-0.051911,0.859063
1629376342699,-0.481595,-0.052155,0.859185
1629376342708,-0.48068,-0.052826,0.8586969999999999
1629376342718,-0.480497,-0.053314,0.857538
1629376342727,-0.480802,-0.053436,0.857904
1629376342737,-0.480375,-0.054412,0.857721
1629376342747,-0.479582,-0.055265999999999996,0.856806
1629376342756,-0.479887,-0.055388,0.858026
1629376342766,-0.479582,-0.055632,0.8608319999999999
1629376342775,-0.480192,-0.056242,0.862235
1629376342785,-0.479826,-0.058133,0.8638819999999999
1629376342795,-0.478423,-0.057645,0.863821
1629376342804,-0.47848399999999996,-0.05795,0.8623569999999999
1629376342814,-0.477996,-0.056791,0.86193
1629376342823,-0.47787399999999997,-0.056424999999999996,0.8605269999999999
1629376342833,-0.477142,-0.053924,0.86132
1629376342843,-0.477813,-0.052948,0.862235
1629376342852,-0.47763,-0.051179,0.862723
1629376342862,-0.47726399999999997,-0.048983,0.862784
1629376342871,-0.47763,-0.047945999999999996,0.862235
1629376342881,-0.477081,-0.045506,0.86071
1629376342891,-0.476776,-0.045323,0.859124
1629376342900,-0.475922,-0.045445,0.85766
1629376342910,-0.476532,-0.04697,0.855159
1629376342919,-0.477081,-0.047092,0.854488
1629376342929,-0.475495,-0.047640999999999996,0.854183
1629376342939,-0.475678,-0.048617,0.8538169999999999
1629376342948,-0.476288,-0.048861,0.854305
1629376342958,-0.476227,-0.049776,0.853146
1629376342967,-0.476532,-0.048556,0.8532069999999999
1629376342977,-0.477203,-0.048007,0.852536
1629376342987,-0.47787399999999997,-0.048312,0.853085
1629376342996,-0.47824,-0.049166,0.854
1629376343006,-0.478606,-0.051057,0.854305
1629376343015,-0.47909399999999996,-0.052032999999999996,0.855769
1629376343025,-0.47909399999999996,-0.052582,0.856135
1629376343035,-0.479277,-0.053253,0.856501
1629376343044,-0.479277,-0.054168,0.856196
1629376343054,-0.479643,-0.053558,0.85644
1629376343063,-0.480497,-0.054473,0.856684
1629376343073,-0.48129,-0.054534,0.858514
1629376343083,-0.48031399999999996,-0.055205,0.859429
1629376343092,-0.479948,-0.056364,0.8601
1629376343102,-0.48092399999999996,-0.057034999999999995,0.861198
1629376343111,-0.48122899999999996,-0.058682,0.86315
1629376343121,-0.481412,-0.060085,0.8635769999999999
1629376343131,-0.481351,-0.062098,0.864248
1629376343140,-0.481595,-0.063318,0.863516
1629376343150,-0.481534,-0.063928,0.86254
1629376343159,-0.48122899999999996,-0.06466,0.860893
1629376343169,-0.481717,-0.063562,0.8596119999999999
1629376343179,-0.481412,-0.063928,0.858758
1629376343188,-0.482022,-0.061732,0.856989
1629376343198,-0.482205,-0.061366,0.855403
1629376343207,-0.483059,-0.05978,0.85461
1629376343217,-0.48373,-0.057645,0.854854
1629376343227,-0.48501099999999997,-0.054839,0.853756
1629376343236,-0.485865,-0.051727999999999996,0.854183
1629376343246,-0.486292,-0.049471,0.855281
1629376343255,-0.48653599999999997,-0.045689,0.855525
1629376343265,-0.487695,-0.04392,0.85522
1629376343275,-0.487817,-0.042883,0.853939
1629376343284,-0.48739,-0.041724,0.8535119999999999
1629376343294,-0.48678,-0.041419,0.852719
1629376343303,-0.486414,-0.041784999999999996,0.852475
1629376343313,-0.487207,-0.042212,0.853085
1629376343323,-0.486048,-0.043493,0.854244
1629376343332,-0.485377,-0.044286,0.854976
1629376343342,-0.485438,-0.045079,0.8547319999999999
1629376343351,-0.485682,-0.047397,0.8556469999999999
1629376343361,-0.484462,-0.048678,0.855098
1629376343371,-0.483059,-0.049104999999999996,0.854305
1629376343380,-0.483303,-0.049715,0.854488
1629376343390,-0.482815,-0.049166,0.8550369999999999
1629376343399,-0.483242,-0.048007,0.855281
1629376343409,-0.482388,-0.047458,0.8550369999999999
1629376343419,-0.482327,-0.046482,0.855281
1629376343428,-0.481717,-0.046909,0.8541219999999999
1629376343438,-0.482327,-0.046726,0.855098
1629376343447,-0.481778,-0.04636,0.854915
1629376343457,-0.482632,-0.045445,0.856196
1629376343467,-0.4819,-0.04514,0.857111
1629376343476,-0.48068,-0.046604,0.857416
1629376343486,-0.480192,-0.048434,0.857965
1629376343495,-0.480375,-0.048922,0.856989
1629376343505,-0.479887,-0.05063,0.856684
1629376343515,-0.480436,-0.049593,0.85827
1629376343524,-0.479887,-0.050203,0.858331
1629376343534,-0.480375,-0.050447,0.858209
1629376343543,-0.481046,-0.051179,0.858331
1629376343553,-0.48000899999999996,-0.050203,0.859856
1629376343563,-0.47970399999999996,-0.049837,0.859795
1629376343572,-0.480802,-0.050447,0.859734
1629376343582,-0.480741,-0.049837,0.859551
1629376343591,-0.479948,-0.049837,0.856379
1629376343601,-0.479277,-0.049715,0.8550369999999999
1629376343611,-0.481168,-0.048251,0.85461
1629376343620,-0.481473,-0.045871999999999996,0.8553419999999999
1629376343630,-0.480985,-0.045384,0.856928
1629376343639,-0.480253,-0.04514,0.8565619999999999
1629376343649,-0.480375,-0.045323,0.855159
1629376343659,-0.48129,-0.045323,0.853695
1629376343668,-0.48068,-0.048494999999999996,0.853451
1629376343678,-0.481107,-0.050813,0.854061
1629376343687,-0.481473,-0.05368,0.85522
1629376343697,-0.482205,-0.054778,0.857904
1629376343707,-0.482266,-0.055754,0.86071
1629376343716,-0.483364,-0.056364,0.861808
1629376343726,-0.483364,-0.054717,0.861686
1629376343735,-0.482754,-0.0549,0.860344
1629376343745,-0.4819,-0.054412,0.859368
1629376343755,-0.481595,-0.05551,0.858026
1629376343764,-0.481351,-0.056424999999999996,0.856013
1629376343774,-0.479948,-0.056974,0.855098
1629376343783,-0.479948,-0.055693,0.855769
1629376343793,-0.480436,-0.05551,0.856989
1629376343803,-0.48007,-0.055265999999999996,0.85766
1629376343812,-0.480192,-0.054960999999999996,0.858026
1629376343822,-0.480436,-0.054717,0.857843
1629376343831,-0.479033,-0.054473,0.8568669999999999
1629376343841,-0.479765,-0.054168,0.856379
1629376343851,-0.478362,-0.053985,0.85583
1629376343860,-0.47885,-0.053924,0.855891
1629376343870,-0.479826,-0.054960999999999996,0.8571719999999999
1629376343879,-0.47946,-0.055022,0.857904
1629376343889,-0.480192,-0.056364,0.8583919999999999
1629376343899,-0.478423,-0.057034999999999995,0.857294
1629376343908,-0.478118,-0.056242,0.8568669999999999
1629376343918,-0.478667,-0.05429,0.857599
1629376343927,-0.479155,-0.052399,0.855769
1629376343937,-0.479155,-0.050873999999999996,0.85644
1629376343947,-0.48000899999999996,-0.049715,0.857294
1629376343956,-0.47970399999999996,-0.049044,0.856989
1629376343966,-0.479887,-0.049898,0.857416
1629376343975,-0.48031399999999996,-0.049471,0.8562569999999999
1629376343985,-0.480802,-0.049044,0.85583
1629376343995,-0.480558,-0.049409999999999996,0.85705
1629376344004,-0.481778,-0.048739,0.857538
1629376344014,-0.482815,-0.049471,0.8583919999999999
1629376344023,-0.48287599999999997,-0.049898,0.857904
1629376344033,-0.482632,-0.049898,0.857355
1629376344043,-0.483059,-0.050325,0.857599
1629376344052,-0.481839,-0.050873999999999996,0.858331
1629376344062,-0.482083,-0.050508,0.857904
1629376344071,-0.482449,-0.049837,0.8599169999999999
1629376344081,-0.482998,-0.05002,0.859368
1629376344091,-0.483059,-0.049166,0.859124
1629376344100,-0.482754,-0.050142,0.8590019999999999
1629376344110,-0.481961,-0.049288,0.8565619999999999
1629376344119,-0.482266,-0.04819,0.856196
1629376344129,-0.482388,-0.048068,0.855525
1629376344139,-0.48251,-0.047519,0.855891
1629376344148,-0.482815,-0.047275,0.856745
1629376344158,-0.481778,-0.047763,0.8562569999999999
1629376344167,-0.482083,-0.048007,0.856501
1629376344177,-0.481778,-0.047640999999999996,0.855769
1629376344187,-0.48129,-0.046604,0.854671
1629376344196,-0.4819,-0.045628,0.8553419999999999
1629376344206,-0.482937,-0.045933,0.8559519999999999
1629376344215,-0.48257099999999997,-0.04636,0.85522
1629376344225,-0.482144,-0.047153,0.855586
1629376344235,-0.482205,-0.04819,0.8553419999999999
1629376344244,-0.481961,-0.048494999999999996,0.855159
1629376344254,-0.483059,-0.048494999999999996,0.855708
1629376344263,-0.48257099999999997,-0.047945999999999996,0.855281
1629376344273,-0.48061899999999996,-0.04819,0.85522
1629376344283,-0.481107,-0.048251,0.8553419999999999
1629376344292,-0.48129,-0.047763,0.8553419999999999
1629376344302,-0.482083,-0.047824,0.8550369999999999
1629376344311,-0.48129,-0.049044,0.855281
1629376344321,-0.481778,-0.048983,0.854915
1629376344331,-0.481778,-0.049044,0.854488
1629376344340,-0.482327,-0.049166,0.857538
1629376344350,-0.482266,-0.05002,0.85705
1629376344359,-0.482205,-0.050691,0.858575
1629376344369,-0.482022,-0.051484,0.858148
1629376344379,-0.481595,-0.051911,0.858026
1629376344388,-0.480863,-0.052826,0.857843
1629376344398,-0.48068,-0.054046,0.857355
1629376344407,-0.480863,-0.053741,0.857599
1629376344417,-0.481168,-0.0549,0.85705
1629376344427,-0.48373,-0.056242,0.8583919999999999
1629376344436,-0.48409599999999997,-0.055815,0.859673
1629376344446,-0.48495,-0.056424999999999996,0.860039
1629376344455,-0.485987,-0.055754,0.859856
1629376344465,-0.48653599999999997,-0.0549,0.859246
1629376344475,-0.48617,-0.054046,0.8593069999999999
1629376344484,-0.485804,-0.053375,0.859551
1629376344494,-0.485743,-0.051911,0.858819
1629376344503,-0.485743,-0.051057,0.85705
1629376344513,-0.48617,-0.049288,0.856318
1629376344523,-0.48653599999999997,-0.048799999999999996,0.85583
1629376344532,-0.485743,-0.048739,0.855464
1629376344542,-0.486109,-0.049044,0.854305
1629376344551,-0.485499,-0.047458,0.85339
1629376344561,-0.48562099999999997,-0.044102999999999996,0.854366
1629376344571,-0.48556,-0.042334,0.854976
1629376344580,-0.484584,-0.040626,0.852719
1629376344590,-0.485072,-0.039284,0.852109
1629376344599,-0.486902,-0.039772,0.851316
1629376344609,-0.485804,-0.040565,0.850706
1629376344619,-0.486292,-0.042456,0.850096
1629376344628,-0.485743,-0.044712999999999996,0.850218
1629376344638,-0.48623099999999997,-0.04514,0.851438
1629376344647,-0.486475,-0.045384,0.852048
1629376344657,-0.486658,-0.047030999999999996,0.853329
1629376344667,-0.487207,-0.04636,0.853634
1629376344676,-0.487512,-0.046176999999999996,0.853756
1629376344686,-0.487939,-0.046665,0.852719
1629376344695,-0.488488,-0.047519,0.851926
1629376344705,-0.48867099999999997,-0.046909,0.850279
1629376344715,-0.48928099999999997,-0.047763,0.849669
1629376344724,-0.489769,-0.048556,0.85034
1629376344734,-0.490318,-0.051667,0.851743
1629376344743,-0.492148,-0.054473,0.853695
1629376344753,-0.491904,-0.059414,0.855098
1629376344763,-0.491599,-0.062586,0.8596119999999999
1629376344772,-0.491233,-0.064843,0.8602219999999999
1629376344782,-0.49166,-0.067161,0.86071
1629376344791,-0.491782,-0.067771,0.862113
1629376344801,-0.491843,-0.067649,0.862113
1629376344811,-0.490989,-0.068625,0.86376
1629376344820,-0.490013,-0.069906,0.8632719999999999
1629376344830,-0.488244,-0.069357,0.866749
1629376344839,-0.48836599999999997,-0.069479,0.870958
1629376344849,-0.486597,-0.067283,0.870104
1629376344859,-0.486658,-0.062342,0.870775
1629376344868,-0.488244,-0.055632,0.872544
1629376344878,-0.490318,-0.05002,0.870348
1629376344887,-0.491294,-0.046665,0.866749
1629376344897,-0.493124,-0.045506,0.862235
1629376344907,-0.493307,-0.049837,0.85644
1629376344916,-0.49202599999999996,-0.0549,0.852963
1629376344926,-0.487878,-0.060024,0.851011
1629376344935,-0.482937,-0.061488,0.852048
1629376344945,-0.48007,-0.059475,0.856135
1629376344955,-0.478667,-0.054595,0.858453
1629376344964,-0.475983,-0.048068,0.859551
1629376344974,-0.47421399999999997,-0.03965,0.862174
1629376344983,-0.47268899999999997,-0.032452,0.861686
1629376344993,-0.470432,-0.025131999999999998,0.860344
1629376345003,-0.468846,-0.019703,0.858636
1629376345012,-0.468968,-0.015067,0.857111
1629376345022,-0.46665,-0.013542,0.85522
1629376345031,-0.464088,-0.013786,0.8562569999999999
1629376345041,-0.461709,-0.013542,0.856745
1629376345051,-0.460245,-0.012322,0.858636
1629376345060,-0.458598,-0.012078,0.861503
1629376345070,-0.456463,-0.008784,0.865712
1629376345079,-0.454877,-0.008113,0.867054
1629376345089,-0.45231499999999997,-0.007503,0.867542
1629376345099,-0.450729,-0.008601,0.868152
1629376345108,-0.447496,-0.009271999999999999,0.868457
1629376345118,-0.445178,-0.01159,0.866871
1629376345127,-0.442677,-0.015493999999999999,0.866871
1629376345137,-0.44212799999999997,-0.020679,0.867725
1629376345147,-0.441152,-0.024766,0.869006
1629376345156,-0.440542,-0.029402,0.869494
1629376345166,-0.43907799999999997,-0.032879,0.868823
1629376345175,-0.43785799999999997,-0.035013999999999997,0.869006
1629376345185,-0.43615,-0.03599,0.86986
1629376345195,-0.436394,-0.037454,0.871934
1629376345204,-0.436882,-0.038918,0.873459
1629376345214,-0.437187,-0.043432,0.873703
1629376345223,-0.438102,-0.045689,0.874923
1629376345233,-0.438285,-0.04758,0.877363
1629376345243,-0.440481,-0.048312,0.88084
1629376345252,-0.441274,-0.048312,0.880474
1629376345262,-0.440847,-0.049409999999999996,0.878827
1629376345271,-0.44212799999999997,-0.051362,0.87962
1629376345281,-0.44365299999999996,-0.05307,0.879498
1629376345291,-0.443836,-0.053375,0.8787659999999999
1629376345300,-0.444934,-0.05368,0.8784
1629376345310,-0.445239,-0.055754,0.878949
1629376345319,-0.446093,-0.05734,0.8781559999999999
1629376345329,-0.446886,-0.058926,0.878339
1629376345339,-0.446947,-0.058438,0.8772409999999999
1629376345348,-0.448228,-0.058193999999999996,0.8766309999999999
1629376345358,-0.447923,-0.055632,0.876753
1629376345367,-0.44926499999999997,-0.052826,0.876082
1629376345377,-0.45017999999999997,-0.049532,0.8775459999999999
1629376345387,-0.450851,-0.045445,0.880779
1629376345396,-0.451827,-0.0427,0.881572
1629376345406,-0.452864,-0.045689,0.87962
1629376345415,-0.453962,-0.050386,0.877912
1629376345425,-0.454389,-0.055022,0.875472
1629376345435,-0.454389,-0.05917,0.873947
1629376345444,-0.455304,-0.061915,0.8760209999999999
1629376345454,-0.456219,-0.064294,0.875472
1629376345463,-0.455487,-0.064416,0.875167
1629376345473,-0.455731,-0.063013,0.873337
1629376345483,-0.455426,-0.059657999999999996,0.873032
1629376345492,-0.455304,-0.056913,0.87169
1629376345502,-0.454511,-0.055937,0.872239
1629376345511,-0.45414499999999997,-0.056059,0.871568
1629376345521,-0.454206,-0.0549,0.871507
1629376345531,-0.455182,-0.054412,0.8732759999999999
1629376345540,-0.455731,-0.053191999999999996,0.873032
1629376345550,-0.455487,-0.052155,0.8723
1629376345559,-0.455304,-0.050752,0.870592
1629376345569,-0.455304,-0.05063,0.869738
1629376345579,-0.45566999999999996,-0.051118,0.866932
1629376345588,-0.455426,-0.052032999999999996,0.865529
1629376345598,-0.456341,-0.052765,0.865346
1629376345607,-0.458598,-0.051727999999999996,0.865468
1629376345617,-0.45994,-0.050873999999999996,0.867542
1629376345627,-0.461953,-0.052582,0.869555
1629376345636,-0.461648,-0.055144,0.870897
1629376345646,-0.46219699999999997,-0.055632,0.873154
1629376345655,-0.462258,-0.057157,0.8738859999999999
1629376345665,-0.460916,-0.059352999999999996,0.873032
1629376345675,-0.46055,-0.060268,0.8714459999999999
1629376345684,-0.459391,-0.060878,0.8705309999999999
1629376345694,-0.458415,-0.060878,0.868152
1629376345703,-0.457012,-0.060451,0.867847
1629376345713,-0.456524,-0.059657999999999996,0.868274
1629376345723,-0.455792,-0.057157,0.868945
1629376345732,-0.454023,-0.055449,0.870043
1629376345742,-0.45322999999999997,-0.054412,0.869616
1629376345751,-0.453291,-0.051789,0.870775
1629376345761,-0.453169,-0.051484,0.870287
1629376345771,-0.453108,-0.052399,0.871019
1629376345780,-0.451644,-0.053191999999999996,0.872483
1629376345790,-0.450668,-0.054960999999999996,0.872849
1629376345799,-0.450363,-0.056729999999999996,0.8738859999999999
1629376345809,-0.450424,-0.05734,0.874984
1629376345819,-0.450302,-0.057523,0.875228
1629376345828,-0.451278,-0.058804,0.875655
1629376345838,-0.449997,-0.057462,0.8744959999999999
1629376345847,-0.449936,-0.055754,0.8720559999999999
1629376345857,-0.45109499999999997,-0.053496999999999996,0.87108
1629376345867,-0.45353499999999997,-0.051179,0.871202
1629376345876,-0.454084,-0.05002,0.872117
1629376345886,-0.454572,-0.050386,0.8720559999999999
1629376345895,-0.45475499999999996,-0.050142,0.872544
1629376345905,-0.454633,-0.050203,0.872483
1629376345915,-0.45566999999999996,-0.050386,0.8714459999999999
1629376345924,-0.455121,-0.05002,0.8723
1629376345934,-0.456036,-0.048007,0.8729709999999999
1629376345943,-0.45505999999999996,-0.047519,0.873642
1629376345953,-0.456768,-0.04636,0.8732759999999999
1629376345963,-0.456768,-0.04575,0.872727
1629376345972,-0.457256,-0.045262,0.873032
1629376345982,-0.45872,-0.046604,0.87291
1629376345991,-0.45884199999999997,-0.047519,0.8717509999999999
1629376346001,-0.458293,-0.049654,0.871385
1629376346011,-0.457561,-0.050081,0.871812
1629376346020,-0.457439,-0.051118,0.87169
1629376346030,-0.456768,-0.051911,0.8714459999999999
1629376346039,-0.457134,-0.051179,0.870592
1629376346049,-0.456646,-0.050935,0.87108
1629376346059,-0.456402,-0.050568999999999996,0.869982
1629376346068,-0.457073,-0.050386,0.869067
1629376346078,-0.457012,-0.049349,0.868396
1629376346087,-0.457256,-0.048678,0.868701
1629376346097,-0.457378,-0.05063,0.868091
1629376346107,-0.45872,-0.05002,0.869433
1629376346116,-0.45811,-0.05185,0.869433
1629376346126,-0.459025,-0.051422999999999996,0.86864
1629376346135,-0.459208,-0.050996,0.869067
1629376346145,-0.459513,-0.050325,0.869006
1629376346155,-0.46036699999999997,-0.050203,0.869982
1629376346164,-0.461465,-0.048494999999999996,0.869433
1629376346174,-0.460733,-0.047335999999999996,0.869189
1629376346183,-0.461038,-0.048312,0.868335
1629376346193,-0.460184,-0.049532,0.868213
1629376346203,-0.459208,-0.05002,0.868396
1629376346212,-0.458964,-0.051667,0.869311
1629376346222,-0.458903,-0.053375,0.869372
1629376346231,-0.45945199999999997,-0.054168,0.869372
1629376346241,-0.45933,-0.055265999999999996,0.869372
1629376346251,-0.458598,-0.054655999999999996,0.870348
1629376346260,-0.458964,-0.054778,0.870653
1629376346270,-0.459574,-0.054534,0.869982
1629376346279,-0.458903,-0.054412,0.869616
1629376346289,-0.459635,-0.054412,0.869799
1629376346299,-0.45994,-0.055205,0.870287
1629376346308,-0.45933,-0.054960999999999996,0.869311
1629376346318,-0.458903,-0.056364,0.869555
1629376346327,-0.459696,-0.056729999999999996,0.871019
1629376346337,-0.45933,-0.056791,0.871324
1629376346347,-0.45945199999999997,-0.055998,0.870958
1629376346356,-0.458232,-0.055693,0.871202
1629376346366,-0.458537,-0.053314,0.87108
1629376346375,-0.458598,-0.052337999999999996,0.8702259999999999
1629376346385,-0.458659,-0.051484,0.869616
1629376346395,-0.458659,-0.050447,0.868823
1629376346404,-0.458781,-0.049166,0.869494
1629376346414,-0.459696,-0.050447,0.871385
1629376346423,-0.459513,-0.051667,0.871019
1629376346433,-0.458964,-0.053436,0.871019
1629376346443,-0.457927,-0.055754,0.8705309999999999
1629376346452,-0.457683,-0.056852,0.870287
1629376346462,-0.45688999999999996,-0.057279,0.870165
1629376346471,-0.457134,-0.056364,0.8699209999999999
1629376346481,-0.456341,-0.055998,0.869982
1629376346491,-0.456341,-0.055388,0.869738
1629376346500,-0.456219,-0.055570999999999995,0.869982
1629376346510,-0.45566999999999996,-0.05551,0.8699209999999999
1629376346519,-0.455487,-0.056181,0.8699209999999999
1629376346529,-0.455914,-0.05551,0.868945
1629376346539,-0.45811,-0.053558,0.867725
1629376346548,-0.459513,-0.052155,0.870104
1629376346558,-0.458476,-0.050873999999999996,0.870348
1629376346567,-0.458293,-0.048312,0.870348
1629376346577,-0.458659,-0.048251,0.869738
1629376346587,-0.456951,-0.049166,0.86864
1629376346596,-0.457317,-0.050081,0.86864
1629376346606,-0.456341,-0.05185,0.868701
1629376346615,-0.45658499999999996,-0.053924,0.87047
1629376346625,-0.457195,-0.054839,0.871629
1629376346635,-0.457988,-0.056059,0.8723609999999999
1629376346644,-0.456951,-0.057401,0.872422
1629376346654,-0.456951,-0.057034999999999995,0.8726659999999999
1629376346663,-0.456768,-0.057279,0.87169
1629376346673,-0.456158,-0.055937,0.871324
1629376346683,-0.455853,-0.055327,0.8702259999999999
1629376346692,-0.455914,-0.055570999999999995,0.868701
1629376346702,-0.456158,-0.056852,0.868274
1629376346711,-0.456158,-0.057157,0.867786
1629376346721,-0.456097,-0.058133,0.868335
1629376346731,-0.456463,-0.058926,0.869677
1629376346740,-0.457073,-0.058438,0.869738
1629376346750,-0.45627999999999996,-0.057645,0.871629
1629376346759,-0.45627999999999996,-0.057828,0.872239
1629376346769,-0.45688999999999996,-0.057034999999999995,0.87108
1629376346779,-0.457988,-0.05551,0.870653
1629376346788,-0.457927,-0.055570999999999995,0.869677
1629376346798,-0.458171,-0.054534,0.869494
1629376346807,-0.457561,-0.054778,0.8702259999999999
1629376346817,-0.457561,-0.054473,0.869738
1629376346827,-0.457195,-0.055022,0.870287
1629376346836,-0.456463,-0.055144,0.870043
1629376346846,-0.455792,-0.054839,0.868396
1629376346855,-0.457134,-0.05368,0.868701
1629376346865,-0.45627999999999996,-0.053436,0.868213
1629376346875,-0.457195,-0.051484,0.869494
1629376346884,-0.456707,-0.05063,0.870775
1629376346894,-0.456646,-0.049044,0.872788
1629376346903,-0.456951,-0.049227,0.875472
1629376346913,-0.456768,-0.052337999999999996,0.873947
1629376346923,-0.457073,-0.055265999999999996,0.874557
1629376346932,-0.457073,-0.055754,0.874374
1629376346942,-0.458049,-0.056364,0.87535
1629376346951,-0.457012,-0.058072,0.876265
1629376346961,-0.456402,-0.058926,0.874679
1629376346971,-0.45627999999999996,-0.058438,0.873093
1629376346980,-0.45597499999999996,-0.059109,0.871812
1629376346990,-0.45536499999999996,-0.058621,0.8708359999999999
1629376346999,-0.456158,-0.057218,0.872239
1629376347009,-0.45597499999999996,-0.056364,0.872788
1629376347019,-0.454877,-0.055998,0.8723609999999999
1629376347028,-0.454816,-0.055815,0.870897
1629376347038,-0.45414499999999997,-0.055449,0.87047
1629376347047,-0.45383999999999997,-0.053924,0.868823
1629376347057,-0.453108,-0.054412,0.868274
1629376347067,-0.45322999999999997,-0.054351,0.868152
1629376347076,-0.452254,-0.053558,0.868213
1629376347086,-0.451766,-0.052886999999999997,0.868457
1629376347095,-0.451827,-0.05368,0.869006
1629376347105,-0.451644,-0.053191999999999996,0.86986
1629376347115,-0.450973,-0.053314,0.870775
1629376347124,-0.452132,-0.052582,0.87169
1629376347134,-0.452376,-0.052094,0.8714459999999999
1629376347143,-0.452254,-0.051911,0.8702259999999999
1629376347153,-0.452437,-0.050873999999999996,0.8705309999999999
1629376347163,-0.452864,-0.051118,0.8705309999999999
1629376347172,-0.453169,-0.050996,0.870592
1629376347182,-0.45414499999999997,-0.051179,0.870104
1629376347191,-0.453108,-0.051972,0.8702259999999999
1629376347201,-0.454267,-0.053131,0.8708359999999999
1629376347211,-0.45475499999999996,-0.054717,0.870287
1629376347220,-0.454328,-0.055693,0.870348
1629376347230,-0.45444999999999997,-0.056424999999999996,0.869555
1629376347239,-0.455609,-0.056669,0.869128
1629376347249,-0.455304,-0.056913,0.869677
1629376347259,-0.456524,-0.05734,0.868945
1629376347268,-0.456768,-0.057279,0.869494
1629376347278,-0.457988,-0.056181,0.869494
1629376347287,-0.458232,-0.056364,0.869372
1629376347297,-0.458476,-0.056364,0.869677
1629376347307,-0.458598,-0.056364,0.869738
1629376347316,-0.459025,-0.056791,0.869982
1629376347326,-0.459025,-0.057218,0.869677
1629376347335,-0.45994,-0.056913,0.868945
1629376347345,-0.460428,-0.056852,0.868213
1629376347355,-0.46055,-0.055876,0.868274
1629376347364,-0.461526,-0.056913,0.868701
1629376347374,-0.46177,-0.057462,0.8699209999999999
1629376347383,-0.462563,-0.058804,0.868823
1629376347393,-0.461953,-0.059047999999999996,0.8702259999999999
1629376347403,-0.462746,-0.058621,0.870348
1629376347412,-0.463844,-0.056791,0.868884
1629376347422,-0.463844,-0.055998,0.869494
1629376347431,-0.463478,-0.0549,0.869433
1629376347441,-0.463051,-0.05429,0.868945
1629376347451,-0.46341699999999997,-0.053375,0.867847
1629376347460,-0.463661,-0.052886999999999997,0.866627
1629376347470,-0.46463699999999997,-0.052704,0.867054
1629376347479,-0.46341699999999997,-0.054229,0.865468
1629376347489,-0.46311199999999997,-0.055327,0.8644919999999999
1629376347499,-0.463661,-0.05429,0.864858
1629376347508,-0.46543,-0.053314,0.865651
1629376347518,-0.465186,-0.051422999999999996,0.867542
1629376347527,-0.46433199999999997,-0.050081,0.867664
1629376347537,-0.465186,-0.047945999999999996,0.865895
1629376347547,-0.465186,-0.046909,0.864736
1629376347556,-0.46555199999999997,-0.047824,0.8638819999999999
1629376347566,-0.464454,-0.049471,0.864309
1629376347575,-0.46555199999999997,-0.050752,0.8647969999999999
1629376347585,-0.466528,-0.051789,0.8662
1629376347595,-0.465186,-0.053131,0.867359
1629376347604,-0.46524699999999997,-0.052399,0.869433
1629376347614,-0.466528,-0.051972,0.870592
1629376347623,-0.466345,-0.052337999999999996,0.870165
1629376347633,-0.465064,-0.051484,0.869311
1629376347643,-0.464515,-0.051545,0.867664
1629376347652,-0.46482,-0.051301,0.865712
1629376347662,-0.46421,-0.050873999999999996,0.865285
1629376347671,-0.464698,-0.051484,0.86437
1629376347681,-0.46482,-0.050873999999999996,0.8644919999999999
1629376347691,-0.464454,-0.050081,0.8641869999999999
1629376347700,-0.46585699999999997,-0.049044,0.865041
1629376347710,-0.46543,-0.048678,0.865163
1629376347719,-0.46604,-0.047030999999999996,0.864736
1629376347729,-0.465796,-0.045811,0.864004
1629376347739,-0.46604,-0.045628,0.8626619999999999
1629376347748,-0.467748,-0.045871999999999996,0.8629669999999999
1629376347758,-0.467565,-0.046665,0.863516
1629376347767,-0.467504,-0.04758,0.863638
1629376347777,-0.468175,-0.048556,0.864858
1629376347787,-0.46890699999999996,-0.050142,0.865529
1629376347796,-0.468114,-0.050325,0.865895
1629376347806,-0.467016,-0.050996,0.864065
1629376347815,-0.467809,-0.049654,0.865285
1629376347825,-0.46848,-0.049104999999999996,0.86376
1629376347835,-0.46848,-0.048251,0.864004
1629376347844,-0.467443,-0.048739,0.864248
1629376347854,-0.468846,-0.049288,0.864675
1629376347863,-0.46848,-0.049044,0.8635769999999999
1629376347873,-0.469578,-0.049227,0.8632719999999999
1629376347883,-0.467565,-0.049288,0.862601
1629376347892,-0.468724,-0.048678,0.863516
1629376347902,-0.468968,-0.048373,0.86315
1629376347911,-0.470554,-0.048129,0.864919
1629376347921,-0.470676,-0.049288,0.86498
1629376347931,-0.470371,-0.049288,0.86559
1629376347940,-0.470432,-0.049776,0.8651019999999999
1629376347950,-0.469334,-0.050568999999999996,0.865163
1629376347959,-0.469639,-0.052032999999999996,0.865285
1629376347969,-0.469334,-0.051789,0.865163
1629376347979,-0.469883,-0.052155,0.864614
1629376347988,-0.469822,-0.05185,0.863943
1629376347998,-0.469517,-0.05124,0.865346
1629376348007,-0.468541,-0.049898,0.863699
1629376348017,-0.469273,-0.049471,0.86254
1629376348027,-0.468724,-0.048922,0.862723
1629376348036,-0.46921199999999996,-0.048861,0.8623569999999999
1629376348046,-0.469578,-0.049898,0.8617469999999999
1629376348055,-0.468846,-0.050263999999999996,0.862296
1629376348065,-0.469456,-0.050813,0.8626619999999999
1629376348075,-0.46909,-0.05124,0.863028
1629376348084,-0.469822,-0.052216,0.864004
1629376348094,-0.469639,-0.052337999999999996,0.86498
1629376348103,-0.469822,-0.052155,0.865346
1629376348113,-0.470493,-0.05307,0.86498
1629376348123,-0.470676,-0.051972,0.863699
1629376348132,-0.470127,-0.051422999999999996,0.8641869999999999
1629376348142,-0.469944,-0.05063,0.863394
1629376348151,-0.469273,-0.051545,0.8626619999999999
1629376348161,-0.469395,-0.052032999999999996,0.862174
1629376348171,-0.469822,-0.053253,0.862418
1629376348180,-0.469029,-0.053496999999999996,0.862601
1629376348190,-0.46921199999999996,-0.05307,0.862601
1629376348199,-0.469639,-0.054717,0.8626619999999999
1629376348209,-0.468785,-0.055693,0.864248
1629376348219,-0.468053,-0.055022,0.8638819999999999
1629376348228,-0.469334,-0.056181,0.863455
1629376348238,-0.468541,-0.057034999999999995,0.864248
1629376348247,-0.46921199999999996,-0.055754,0.863028
1629376348257,-0.468663,-0.057583999999999996,0.863028
1629376348267,-0.4697,-0.05795,0.86437
1629376348276,-0.468053,-0.058804,0.864614
1629376348286,-0.468724,-0.059231,0.86437
1629376348295,-0.46799199999999996,-0.059475,0.865041
1629376348305,-0.468236,-0.059231,0.8662
1629376348315,-0.468724,-0.05795,0.865041
1629376348324,-0.468114,-0.05734,0.865468
1629376348334,-0.468358,-0.057096,0.864248
1629376348343,-0.468236,-0.055998,0.864126
1629376348353,-0.468053,-0.055815,0.864309
1629376348363,-0.468419,-0.055083,0.8632719999999999
1629376348372,-0.467809,-0.054839,0.86376
1629376348382,-0.468358,-0.055144,0.863821
1629376348391,-0.468175,-0.055693,0.86559
1629376348401,-0.468541,-0.056791,0.866688
1629376348411,-0.468175,-0.057157,0.866505
1629376348420,-0.468663,-0.057279,0.866078
1629376348430,-0.46787,-0.057034999999999995,0.864675
1629376348439,-0.468175,-0.057096,0.864858
1629376348449,-0.467931,-0.056608,0.864065
1629376348459,-0.46799199999999996,-0.058316,0.863943
1629376348468,-0.468114,-0.056974,0.86315
1629376348478,-0.468114,-0.056669,0.86376
1629376348487,-0.46848,-0.055265999999999996,0.863516
1629376348497,-0.467626,-0.054534,0.864431
1629376348507,-0.468236,-0.053985,0.863455
1629376348516,-0.468846,-0.054534,0.86376
1629376348526,-0.469151,-0.0549,0.863516
1629376348535,-0.467504,-0.057279,0.862845
1629376348545,-0.467565,-0.059475,0.863211
1629376348555,-0.467199,-0.061305,0.862418
1629376348564,-0.467565,-0.063196,0.863089
1629376348574,-0.467321,-0.064599,0.864736
1629376348583,-0.466345,-0.064355,0.866505
1629376348593,-0.466833,-0.063562,0.867603
1629376348603,-0.46665,-0.063867,0.868152
1629376348612,-0.466894,-0.06417199999999999,0.867908
1629376348622,-0.466406,-0.06508699999999999,0.865834
1629376348631,-0.46555199999999997,-0.065941,0.864431
1629376348641,-0.465735,-0.067344,0.863638
1629376348651,-0.465308,-0.067954,0.865346
1629376348660,-0.464881,-0.067527,0.865407
1629376348670,-0.464698,-0.06831999999999999,0.865346
1629376348679,-0.46433199999999997,-0.068137,0.867237
1629376348689,-0.464149,-0.067771,0.867115
1629376348699,-0.464576,-0.06588,0.865895
1629376348708,-0.463966,-0.064843,0.864553
1629376348718,-0.462746,-0.06405,0.864126
1629376348727,-0.462868,-0.062891,0.864431
1629376348737,-0.46311199999999997,-0.061732,0.8644919999999999
1629376348747,-0.46250199999999997,-0.060695,0.8638819999999999
1629376348756,-0.461221,-0.05978,0.863516
1629376348766,-0.46189199999999997,-0.059902,0.863211
1629376348775,-0.46158699999999997,-0.059414,0.864614
1629376348785,-0.46116,-0.060329,0.863943
1629376348795,-0.461404,-0.060878,0.863516
1629376348804,-0.462441,-0.062525,0.863943
1629376348814,-0.46177,-0.063318,0.865346
1629376348823,-0.462136,-0.064721,0.867176
1629376348833,-0.46341699999999997,-0.06478199999999999,0.867786
1629376348843,-0.462685,-0.065697,0.868823
1629376348852,-0.463356,-0.06478199999999999,0.867725
1629376348862,-0.462868,-0.064904,0.866932
1629376348871,-0.462563,-0.064294,0.866749
1629376348881,-0.463295,-0.06405,0.866017
1629376348891,-0.462624,-0.064416,0.866444
1629376348900,-0.462685,-0.064904,0.866505
1629376348910,-0.462136,-0.066368,0.867603
1629376348919,-0.462624,-0.066734,0.866505
1629376348929,-0.463173,-0.066612,0.86742
1629376348939,-0.46341699999999997,-0.066795,0.868091
1629376348948,-0.464088,-0.067222,0.868701
1629376348958,-0.46421,-0.066551,0.868762
1629376348967,-0.464698,-0.066063,0.867481
1629376348977,-0.46463699999999997,-0.065453,0.867115
1629376348987,-0.46463699999999997,-0.06466,0.866749
1629376348996,-0.464515,-0.06466,0.865041
1629376349006,-0.46494199999999997,-0.063867,0.865224
1629376349015,-0.464881,-0.063989,0.86498
1629376349025,-0.464698,-0.063501,0.864858
1629376349035,-0.465491,-0.063928,0.865651
1629376349044,-0.465369,-0.064538,0.865224
1629376349054,-0.46604,-0.06466,0.864736
1629376349063,-0.465796,-0.06588,0.865224
1629376349073,-0.465735,-0.066673,0.865163
1629376349083,-0.466589,-0.067466,0.865224
1629376349092,-0.46585699999999997,-0.067649,0.865895
1629376349102,-0.466894,-0.069052,0.868152
1629376349111,-0.466955,-0.069601,0.869128
1629376349121,-0.467565,-0.069296,0.867481
1629376349131,-0.467443,-0.069296,0.864736
1629376349140,-0.467199,-0.069357,0.86254
1629376349150,-0.467565,-0.070516,0.861503
1629376349159,-0.467504,-0.07155299999999999,0.861259
1629376349169,-0.467748,-0.07381,0.861259
1629376349179,-0.467809,-0.07326099999999999,0.86193
1629376349188,-0.468419,-0.074908,0.863333
1629376349198,-0.468114,-0.07625,0.863638
1629376349207,-0.468236,-0.07747,0.864248
1629376349217,-0.468053,-0.077836,0.864431
1629376349227,-0.467626,-0.077226,0.864736
1629376349236,-0.468846,-0.077165,0.865285
1629376349246,-0.467809,-0.076372,0.864248
1629376349255,-0.468541,-0.075457,0.86376
1629376349265,-0.46768699999999996,-0.07503,0.864004
1629376349275,-0.466833,-0.073993,0.864126
1629376349284,-0.46726,-0.072834,0.864126
1629376349294,-0.465979,-0.072041,0.864065
1629376349303,-0.46543,-0.07002799999999999,0.8638819999999999
1629376349313,-0.46585699999999997,-0.068869,0.863089
1629376349323,-0.463966,-0.067954,0.863028
1629376349332,-0.46299,-0.066429,0.863211
1629376349342,-0.46219699999999997,-0.065575,0.862784
1629376349351,-0.46116,-0.066795,0.863394
1629376349361,-0.46055,-0.067832,0.8644919999999999
1629376349371,-0.459391,-0.067588,0.864858
1629376349380,-0.458964,-0.069052,0.866566
1629376349390,-0.457744,-0.068991,0.86681
1629376349399,-0.45688999999999996,-0.068747,0.867359
1629376349409,-0.456097,-0.068564,0.869006
1629376349419,-0.455304,-0.068381,0.8708359999999999
1629376349428,-0.454206,-0.068686,0.870592
1629376349438,-0.453169,-0.06831999999999999,0.8708359999999999
1629376349447,-0.45322999999999997,-0.068442,0.871202
1629376349457,-0.452437,-0.069357,0.869555
1629376349467,-0.452193,-0.069174,0.868457
1629376349476,-0.453596,-0.068808,0.86803
1629376349486,-0.453352,-0.066978,0.869006
1629376349495,-0.453596,-0.06649,0.868701
1629376349505,-0.452742,-0.065575,0.868152
1629376349515,-0.453474,-0.066307,0.870043
1629376349524,-0.455243,-0.067039,0.8723
1629376349534,-0.456036,-0.06954,0.874252
1629376349543,-0.456341,-0.072834,0.875838
1629376349553,-0.456524,-0.076982,0.87596
1629376349563,-0.457378,-0.078629,0.876753
1629376349572,-0.457073,-0.079178,0.876692
1629376349582,-0.458354,-0.078141,0.877912
1629376349591,-0.458964,-0.075579,0.8778509999999999
1629376349601,-0.459879,-0.072712,0.876997
1629376349611,-0.460123,-0.068869,0.873398
1629376349620,-0.459208,-0.066856,0.870104
1629376349630,-0.458598,-0.065209,0.868274
1629376349639,-0.45975699999999997,-0.062280999999999996,0.866871
1629376349649,-0.46036699999999997,-0.060511999999999996,0.866505
1629376349659,-0.460733,-0.057462,0.867542
1629376349668,-0.46036699999999997,-0.056119999999999996,0.86742
1629376349678,-0.46006199999999997,-0.054534,0.866871
1629376349687,-0.459025,-0.054351,0.866078
1629376349697,-0.458964,-0.053801999999999996,0.865346
1629376349707,-0.458232,-0.053436,0.8641869999999999
1629376349716,-0.45884199999999997,-0.054046,0.863943
1629376349726,-0.46006199999999997,-0.054107,0.864675
1629376349735,-0.459574,-0.055265999999999996,0.866932
1629376349745,-0.460184,-0.055754,0.86742
1629376349755,-0.460916,-0.055998,0.866566
1629376349764,-0.460611,-0.056424999999999996,0.867054
1629376349774,-0.46067199999999997,-0.056608,0.86681
1629376349783,-0.459513,-0.056364,0.865041
1629376349793,-0.46036699999999997,-0.054534,0.864431
1629376349803,-0.45994,-0.053191999999999996,0.863211
1629376349812,-0.458659,-0.052155,0.863028
1629376349822,-0.458476,-0.051484,0.863394
1629376349831,-0.45945199999999997,-0.05124,0.864919
1629376349841,-0.457988,-0.052337999999999996,0.865834
1629376349851,-0.459208,-0.053131,0.867054
1629376349860,-0.458659,-0.054473,0.867908
1629376349870,-0.459208,-0.055449,0.869494
1629376349879,-0.458964,-0.055876,0.868945
1629376349889,-0.457744,-0.055876,0.868457
1629376349899,-0.456829,-0.056547,0.869677
1629376349908,-0.4575,-0.056119999999999996,0.8714459999999999
1629376349918,-0.458049,-0.056181,0.873398
1629376349927,-0.458293,-0.055388,0.874618
1629376349937,-0.45872,-0.054351,0.8751059999999999
1629376349947,-0.457988,-0.053924,0.874923
1629376349956,-0.457378,-0.053436,0.875777
1629376349966,-0.456768,-0.053741,0.875472
1629376349975,-0.456402,-0.056364,0.875289
1629376349985,-0.454572,-0.058926,0.875472
1629376349995,-0.45475499999999996,-0.061305,0.8744959999999999
1629376350004,-0.454389,-0.062952,0.8735809999999999
1629376350014,-0.453596,-0.064538,0.873154
1629376350023,-0.453657,-0.064538,0.873093
1629376350033,-0.454023,-0.066124,0.8720559999999999
1629376350043,-0.45475499999999996,-0.064904,0.87169
1629376350052,-0.455548,-0.063135,0.871202
1629376350062,-0.456158,-0.060939,0.870104
1629376350071,-0.456402,-0.05856,0.868579
1629376350081,-0.457378,-0.057767,0.868152
1629376350091,-0.457866,-0.056242,0.867664
1629376350100,-0.457683,-0.057157,0.866383
1629376350110,-0.458293,-0.058316,0.865895
1629376350119,-0.458476,-0.058011,0.8644919999999999
1629376350129,-0.458964,-0.058255,0.864248
1629376350139,-0.459818,-0.05917,0.864065
1629376350148,-0.45933,-0.058743,0.864309
1629376350158,-0.459391,-0.058255,0.864065
1629376350167,-0.459879,-0.05795,0.863028
1629376350177,-0.458964,-0.055632,0.863028
1629376350187,-0.458354,-0.056486,0.8635769999999999
1629376350196,-0.459086,-0.057279,0.863028
1629376350206,-0.459086,-0.057279,0.863821
1629376350215,-0.459696,-0.058255,0.865041
1629376350225,-0.46006199999999997,-0.060756,0.866139
1629376350235,-0.45945199999999997,-0.063013,0.867725
1629376350244,-0.45872,-0.065453,0.868762
1629376350254,-0.457866,-0.066185,0.868457
1629376350263,-0.45811,-0.066307,0.868762
1629376350273,-0.457134,-0.067222,0.868213
1629376350283,-0.4575,-0.067771,0.870348
1629376350292,-0.458659,-0.068076,0.870958
1629376350302,-0.457927,-0.069357,0.871568
1629376350311,-0.458049,-0.070699,0.869372
1629376350321,-0.457744,-0.07137,0.869982
1629376350331,-0.4575,-0.071309,0.870104
1629376350340,-0.458476,-0.070821,0.869677
1629376350350,-0.45933,-0.069662,0.870714
1629376350359,-0.459696,-0.068869,0.870775
1629376350369,-0.459208,-0.068625,0.870592
1629376350379,-0.46006199999999997,-0.067466,0.869555
1629376350388,-0.460916,-0.066368,0.86986
1629376350398,-0.45994,-0.06508699999999999,0.86986
1629376350407,-0.46036699999999997,-0.066063,0.869372
1629376350417,-0.460306,-0.065148,0.86803
1629376350427,-0.460916,-0.06283,0.868274
1629376350436,-0.460733,-0.060085,0.869006
1629376350446,-0.46097699999999997,-0.058621,0.8705309999999999
1629376350455,-0.459696,-0.057401,0.870043
1629376350465,-0.460733,-0.056608,0.868274
1629376350475,-0.45994,-0.058743,0.868274
1629376350484,-0.458964,-0.06039,0.86803
1629376350494,-0.45933,-0.062342,0.86803
1629376350503,-0.458232,-0.06447699999999999,0.869738
1629376350513,-0.458293,-0.065636,0.8705309999999999
1629376350523,-0.458049,-0.06588,0.871507
1629376350532,-0.458537,-0.06466,0.872788
1629376350542,-0.458415,-0.063196,0.872849
1629376350551,-0.458781,-0.061975999999999996,0.8708359999999999
1629376350561,-0.45872,-0.061,0.869555
1629376350571,-0.457866,-0.061121999999999996,0.867786
1629376350580,-0.457378,-0.061549,0.866444
1629376350590,-0.45688999999999996,-0.061426999999999995,0.864919
1629376350599,-0.457683,-0.061488,0.865834
1629376350609,-0.457378,-0.060878,0.866932
1629376350619,-0.456951,-0.060878,0.868396
1629376350628,-0.457256,-0.061305,0.86864
1629376350638,-0.457378,-0.060329,0.869616
1629376350647,-0.457683,-0.060511999999999996,0.869067
1629376350657,-0.457988,-0.059657999999999996,0.867176
1629376350667,-0.458293,-0.059292,0.867542
1629376350676,-0.458354,-0.060268,0.86742
1629376350686,-0.459696,-0.060329,0.867542
1629376350695,-0.460123,-0.060573,0.867908
1629376350705,-0.459696,-0.061854,0.869372
1629376350715,-0.460916,-0.062952,0.86986
1629376350724,-0.459513,-0.063806,0.87047
1629376350734,-0.45945199999999997,-0.064538,0.869555
1629376350743,-0.460245,-0.06283,0.869189
1629376350753,-0.460855,-0.061061,0.867542
1629376350763,-0.46097699999999997,-0.059719,0.867481
1629376350772,-0.460733,-0.059841,0.865285
1629376350782,-0.460855,-0.05917,0.866078
1629376350791,-0.461526,-0.05978,0.86742
1629376350801,-0.46177,-0.06039,0.868518
1629376350811,-0.46238,-0.060573,0.869494
1629376350820,-0.463234,-0.060451,0.870104
1629376350830,-0.463905,-0.060573,0.8699209999999999
1629376350839,-0.463295,-0.06039,0.870714
1629376350849,-0.46189199999999997,-0.059841,0.869616
1629376350859,-0.462624,-0.059962999999999995,0.868884
1629376350868,-0.462624,-0.06039,0.868884
1629376350878,-0.462746,-0.061061,0.869189
1629376350887,-0.462441,-0.061244,0.868579
1629376350897,-0.462868,-0.060695,0.869189
1629376350907,-0.463051,-0.060573,0.869006
1629376350916,-0.46189199999999997,-0.06039,0.86925
1629376350926,-0.46219699999999997,-0.060329,0.86742
1629376350935,-0.462929,-0.059536,0.866566
1629376350945,-0.462929,-0.059292,0.8662
1629376350955,-0.461648,-0.058498999999999995,0.865224
1629376350964,-0.461465,-0.058804,0.865041
1629376350974,-0.46158699999999997,-0.059231,0.864858
1629376350983,-0.461831,-0.058316,0.864736
1629376350993,-0.461709,-0.05856,0.8641869999999999
1629376351003,-0.46128199999999997,-0.059047999999999996,0.8644919999999999
1629376351012,-0.461038,-0.060511999999999996,0.865163
1629376351022,-0.460916,-0.061121999999999996,0.866444
1629376351031,-0.460245,-0.061305,0.865956
1629376351041,-0.461038,-0.060878,0.86559
1629376351051,-0.460489,-0.060878,0.865834
1629376351060,-0.45975699999999997,-0.060816999999999996,0.865773
1629376351070,-0.459696,-0.061671,0.8647969999999999
1629376351079,-0.459513,-0.061488,0.865346
1629376351089,-0.460245,-0.062769,0.8662
1629376351099,-0.458659,-0.062769,0.866017
1629376351108,-0.458781,-0.063013,0.866139
1629376351118,-0.45975699999999997,-0.062891,0.866627
1629376351127,-0.458903,-0.063989,0.867786
1629376351137,-0.459391,-0.06447699999999999,0.869189
1629376351147,-0.460001,-0.065697,0.869433
1629376351156,-0.45884199999999997,-0.066734,0.868884
1629376351166,-0.458659,-0.067283,0.86864
1629376351175,-0.45945199999999997,-0.067771,0.868762
1629376351185,-0.45914699999999997,-0.069052,0.868518
1629376351195,-0.459818,-0.069174,0.868457
1629376351204,-0.45884199999999997,-0.069662,0.868152
1629376351214,-0.459086,-0.069601,0.86925
1629376351223,-0.45914699999999997,-0.069235,0.868762
1629376351233,-0.459208,-0.068808,0.868823
1629376351243,-0.459574,-0.069113,0.867542
1629376351252,-0.45994,-0.068503,0.867176
1629376351262,-0.45872,-0.067893,0.868152
1629376351271,-0.460001,-0.066673,0.86925
1629376351281,-0.46036699999999997,-0.065697,0.869189
1629376351291,-0.460916,-0.066368,0.868762
1629376351300,-0.459635,-0.066185,0.869128
1629376351310,-0.460306,-0.06478199999999999,0.86864
1629376351319,-0.46055,-0.064538,0.868579
1629376351329,-0.461343,-0.063318,0.868274
1629376351339,-0.46067199999999997,-0.063684,0.86986
1629376351348,-0.46055,-0.06466,0.869067
1629376351358,-0.46128199999999997,-0.064538,0.869006
1629376351367,-0.460733,-0.065575,0.868457
1629376351377,-0.46067199999999997,-0.06588,0.867908
1629376351387,-0.46055,-0.066368,0.868457
1629376351396,-0.461404,-0.066673,0.867908
1629376351406,-0.462075,-0.066307,0.867359
1629376351415,-0.460916,-0.064538,0.867725
1629376351425,-0.461465,-0.062280999999999996,0.867298
1629376351435,-0.46116,-0.060329,0.867359
1629376351444,-0.46250199999999997,-0.060085,0.866017
1629376351454,-0.461953,-0.05978,0.865163
1629376351463,-0.461404,-0.061183,0.864614
1629376351473,-0.461099,-0.061732,0.86498
1629376351483,-0.462258,-0.062403,0.865224
1629376351492,-0.462929,-0.06222,0.866688
1629376351502,-0.463478,-0.061975999999999996,0.869433
1629376351511,-0.462868,-0.062159,0.870104
1629376351521,-0.463539,-0.061244,0.870897
1629376351531,-0.4636,-0.06222,0.8702259999999999
1629376351540,-0.463905,-0.062891,0.869006
1629376351550,-0.46311199999999997,-0.06417199999999999,0.867908
1629376351559,-0.46341699999999997,-0.064111,0.865651
1629376351569,-0.462563,-0.064599,0.866078
1629376351579,-0.462258,-0.063867,0.866444
1629376351588,-0.462441,-0.06405,0.866566
1629376351598,-0.461831,-0.063196,0.8662
1629376351607,-0.46097699999999997,-0.062342,0.866993
1629376351617,-0.460794,-0.06161,0.867237
1629376351627,-0.45945199999999997,-0.061793,0.8662
1629376351636,-0.459696,-0.061671,0.865895
1629376351646,-0.45975699999999997,-0.06344,0.866749
1629376351655,-0.459025,-0.063257,0.866383
1629376351665,-0.458659,-0.06405,0.866871
1629376351675,-0.459025,-0.063989,0.86803
1629376351684,-0.459025,-0.065636,0.867664
1629376351694,-0.458964,-0.06649,0.868579
1629376351703,-0.458903,-0.068076,0.868335
1629376351713,-0.457805,-0.068564,0.866932
1629376351723,-0.458049,-0.066917,0.867298
1629376351732,-0.459391,-0.065758,0.867969
1629376351742,-0.459696,-0.06478199999999999,0.866993
1629376351751,-0.45945199999999997,-0.064599,0.868579
1629376351761,-0.459391,-0.065453,0.869006
1629376351771,-0.459879,-0.066673,0.867908
1629376351780,-0.459635,-0.067893,0.868945
1629376351790,-0.459208,-0.067527,0.868884
1629376351799,-0.459513,-0.066429,0.868823
1629376351809,-0.460306,-0.066734,0.868762
1629376351819,-0.45994,-0.066856,0.868518
1629376351828,-0.46067199999999997,-0.067466,0.868701
1629376351838,-0.460794,-0.066978,0.867908
1629376351847,-0.460245,-0.067771,0.867969
1629376351857,-0.460489,-0.06831999999999999,0.867359
1629376351867,-0.461099,-0.067771,0.868152
1629376351876,-0.461404,-0.06770999999999999,0.867664
1629376351886,-0.46128199999999997,-0.067832,0.868457
1629376351895,-0.461038,-0.06709999999999999,0.867786
1629376351905,-0.461526,-0.066978,0.868152
1629376351915,-0.462136,-0.067649,0.86803
1629376351924,-0.462624,-0.06588,0.86681
1629376351934,-0.461648,-0.065026,0.867298
1629376351943,-0.461343,-0.065148,0.866261
1629376351953,-0.46116,-0.063684,0.865712
1629376351963,-0.460916,-0.062952,0.865956
1629376351972,-0.461404,-0.061244,0.865407
1629376351982,-0.46116,-0.061549,0.865834
1629376351991,-0.461831,-0.061,0.86559
1629376352001,-0.461831,-0.06161,0.865895
1629376352011,-0.461465,-0.061061,0.866444
1629376352020,-0.46250199999999997,-0.061244,0.866627
1629376352030,-0.461953,-0.062098,0.867603
1629376352039,-0.46177,-0.062098,0.86742
1629376352049,-0.46299,-0.061793,0.867969
1629376352059,-0.461221,-0.062952,0.868152
1629376352068,-0.461526,-0.062952,0.867786
1629376352078,-0.461648,-0.062647,0.867542
1629376352087,-0.460733,-0.06283,0.867298
1629376352097,-0.46055,-0.063318,0.866749
1629376352107,-0.460794,-0.063562,0.866932
1629376352116,-0.460916,-0.063257,0.867054
1629376352126,-0.460184,-0.063318,0.868091
1629376352135,-0.459879,-0.064294,0.867847
1629376352145,-0.45994,-0.063989,0.868945
1629376352155,-0.461343,-0.063379,0.869128
1629376352164,-0.46067199999999997,-0.063867,0.869616
1629376352174,-0.460123,-0.06417199999999999,0.869372
1629376352183,-0.460916,-0.063806,0.869616
1629376352193,-0.460245,-0.063684,0.86925
1629376352203,-0.45884199999999997,-0.064233,0.867786
1629376352212,-0.459208,-0.06447699999999999,0.867725
1629376352222,-0.45872,-0.063684,0.866993
1629376352231,-0.459574,-0.064416,0.867786
1629376352241,-0.459635,-0.063684,0.867115
1629376352251,-0.458781,-0.063074,0.866749
1629376352260,-0.459696,-0.063379,0.867359
1629376352270,-0.459513,-0.063135,0.867847
1629376352279,-0.460306,-0.063867,0.867786
1629376352289,-0.459391,-0.063867,0.867847
1629376352299,-0.459086,-0.06417199999999999,0.86864
1629376352308,-0.460001,-0.063501,0.867359
1629376352318,-0.459879,-0.063135,0.867725
1629376352327,-0.459208,-0.062159,0.867847
1629376352337,-0.458232,-0.061915,0.870043
1629376352347,-0.458049,-0.062403,0.870409
1629376352356,-0.458171,-0.063074,0.869189
1629376352366,-0.458415,-0.063684,0.868884
1629376352375,-0.457744,-0.064904,0.868091
1629376352385,-0.456341,-0.066246,0.866871
1629376352395,-0.455853,-0.066307,0.8662
1629376352404,-0.456158,-0.066124,0.866688
1629376352414,-0.456463,-0.064111,0.868884
1629376352423,-0.456158,-0.06344,0.869372
1629376352433,-0.455548,-0.06283,0.868945
1629376352443,-0.456158,-0.061305,0.868213
1629376352452,-0.457134,-0.062098,0.868457
1629376352462,-0.456768,-0.062769,0.868701
1629376352471,-0.457378,-0.064721,0.869067
1629376352481,-0.4575,-0.065575,0.870043
1629376352491,-0.457378,-0.066551,0.8717509999999999
1629376352500,-0.457866,-0.066124,0.873703
1629376352510,-0.458415,-0.066429,0.873947
1629376352519,-0.45811,-0.065575,0.8735809999999999
1629376352529,-0.457805,-0.066124,0.872849
1629376352539,-0.457134,-0.066978,0.8720559999999999
1629376352548,-0.456463,-0.06649,0.8699209999999999
1629376352558,-0.455792,-0.067466,0.869067
1629376352567,-0.45505999999999996,-0.068137,0.868579
1629376352577,-0.45597499999999996,-0.066917,0.868213
1629376352587,-0.455914,-0.065331,0.869799
1629376352596,-0.456341,-0.064599,0.869982
1629376352606,-0.45627999999999996,-0.063379,0.869128
1629376352615,-0.455548,-0.061793,0.868884
1629376352625,-0.45566999999999996,-0.061366,0.868152
1629376352635,-0.45597499999999996,-0.061671,0.868884
1629376352644,-0.456829,-0.060756,0.869494
1629376352654,-0.457805,-0.06161,0.868762
1629376352663,-0.457683,-0.061549,0.86864
1629376352673,-0.458598,-0.061854,0.867786
1629376352683,-0.459513,-0.062159,0.8702259999999999
1629376352692,-0.461526,-0.063318,0.872178
1629376352702,-0.462136,-0.062403,0.8748009999999999
1629376352711,-0.463051,-0.060085,0.8726659999999999
1629376352721,-0.462136,-0.058011,0.869982
1629376352731,-0.46097699999999997,-0.058498999999999995,0.867054
1629376352740,-0.460184,-0.060085,0.865834
1629376352750,-0.45933,-0.061975999999999996,0.864919
1629376352759,-0.46067199999999997,-0.064599,0.864736
1629376352769,-0.462136,-0.065941,0.8662
1629376352779,-0.462868,-0.068137,0.865712
1629376352788,-0.463539,-0.067344,0.863455
1629376352798,-0.46463699999999997,-0.068137,0.8617469999999999
1629376352807,-0.465979,-0.067283,0.861625
1629376352817,-0.467626,-0.063989,0.8638819999999999
1629376352827,-0.468785,-0.060024,0.866932
1629376352836,-0.467443,-0.05795,0.86864
1629376352846,-0.467504,-0.056242,0.869006
1629376352855,-0.466223,-0.055570999999999995,0.869982
1629376352865,-0.465308,-0.054595,0.87108
1629376352875,-0.462929,-0.054351,0.8717509999999999
1629376352884,-0.46128199999999997,-0.054655999999999996,0.870958
1629376352894,-0.457439,-0.05551,0.870104
1629376352903,-0.456036,-0.055876,0.870043
1629376352913,-0.454084,-0.057706,0.869433
1629376352923,-0.451827,-0.058682,0.8705309999999999
1629376352932,-0.44956999999999997,-0.060939,0.871019
1629376352942,-0.448594,-0.062037,0.871812
1629376352951,-0.445849,-0.061366,0.87291
1629376352961,-0.44395799999999996,-0.061793,0.873825
1629376352971,-0.442616,-0.062525,0.873337
1629376352980,-0.441762,-0.064294,0.872788
1629376352990,-0.441091,-0.065758,0.871568
1629376352999,-0.441457,-0.066795,0.870897
1629376353009,-0.442006,-0.066368,0.869311
1629376353019,-0.443592,-0.066368,0.870348
1629376353028,-0.44469,-0.06709999999999999,0.86986
1629376353038,-0.44652,-0.066063,0.8705309999999999
1629376353047,-0.447252,-0.066734,0.868579
1629376353057,-0.449204,-0.06831999999999999,0.862845
1629376353067,-0.451461,-0.072102,0.8577819999999999
1629376353076,-0.454694,-0.073749,0.8599169999999999
1629376353086,-0.45975699999999997,-0.07503,0.866871
1629376353095,-0.463966,-0.073383,0.875045
1629376353105,-0.467138,-0.07198,0.8830359999999999
1629376353115,-0.469517,-0.06893,0.889502
1629376353124,-0.469761,-0.068076,0.894504
1629376353134,-0.466711,-0.06508699999999999,0.898164
1629376353143,-0.46219699999999997,-0.065575,0.896578
1629376353153,-0.456951,-0.067649,0.891637
1629376353163,-0.454267,-0.06649,0.88938
1629376353172,-0.450973,-0.065758,0.8866959999999999
1629376353182,-0.446215,-0.066917,0.884378
1629376353191,-0.441457,-0.07259,0.8799859999999999
1629376353201,-0.43694299999999997,-0.078141,0.873337
1629376353211,-0.43432,-0.079544,0.870653
1629376353220,-0.433344,-0.079056,0.869494
1629376353230,-0.433771,-0.075396,0.870775
1629376353239,-0.434137,-0.07076,0.872178
1629376353249,-0.43541799999999997,-0.068564,0.8751059999999999
1629376353259,-0.43615,-0.066185,0.876875
1629376353268,-0.438285,-0.068991,0.872788
1629376353278,-0.4392,-0.074908,0.861869
1629376353287,-0.440054,-0.080764,0.850584
1629376353297,-0.443714,-0.083448,0.844118
1629376353307,-0.450424,-0.083875,0.84241
1629376353316,-0.45627999999999996,-0.084058,0.843203
1629376353326,-0.460611,-0.082716,0.844179
1629376353335,-0.46463699999999997,-0.078934,0.845155
1629376353345,-0.47031,-0.079971,0.844606
1629376353355,-0.47763,-0.081435,0.8464969999999999
1629376353364,-0.48373,-0.08265499999999999,0.848388
1629376353374,-0.485804,-0.081252,0.8532069999999999
1629376353383,-0.486353,-0.079849,0.8620519999999999
1629376353393,-0.488305,-0.078568,0.870348
1629376353403,-0.489159,-0.07991,0.8754109999999999
1629376353412,-0.487878,-0.08356999999999999,0.8812059999999999
1629376353422,-0.484889,-0.086376,0.885415
1629376353431,-0.48251,-0.08723,0.88633
1629376353441,-0.476776,-0.085217,0.8857809999999999
1629376353451,-0.472506,-0.084424,0.883829
1629376353460,-0.46677199999999996,-0.082533,0.8818159999999999
1629376353470,-0.462075,-0.079971,0.87596
1629376353479,-0.457134,-0.07991,0.870775
1629376353489,-0.453047,-0.081252,0.870165
1629376353499,-0.448899,-0.08418,0.8726659999999999
1629376353508,-0.445544,-0.087718,0.875228
1629376353518,-0.441701,-0.087535,0.876265
1629376353527,-0.438956,-0.088267,0.877607
1629376353537,-0.435967,-0.087352,0.8812059999999999
1629376353547,-0.433527,-0.089609,0.884622
1629376353556,-0.431758,-0.09272,0.886269
1629376353566,-0.433283,-0.093452,0.8876109999999999
1629376353575,-0.43371,-0.091988,0.887428
1629376353585,-0.434503,-0.088389,0.88755
1629376353595,-0.435174,-0.082838,0.887367
1629376353604,-0.434503,-0.07911699999999999,0.886208
1629376353614,-0.432917,-0.076921,0.886025
1629376353623,-0.43224599999999996,-0.072651,0.88572
1629376353633,-0.432002,-0.070455,0.8836459999999999
1629376353643,-0.431758,-0.066063,0.8796809999999999
1629376353652,-0.432002,-0.060878,0.878949
1629376353662,-0.434381,-0.052582,0.8775459999999999
1629376353671,-0.437309,-0.043127,0.874435
1629376353681,-0.439627,-0.034709,0.874679
1629376353691,-0.44042,-0.028059999999999998,0.876387
1629376353700,-0.44060299999999997,-0.025376,0.877363
1629376353710,-0.44090799999999997,-0.024522,0.8793759999999999
1629376353719,-0.44225,-0.02684,0.8793759999999999
1629376353729,-0.44060299999999997,-0.029768,0.880474
1629376353739,-0.439566,-0.031232,0.877485
1629376353748,-0.43999299999999997,-0.033184,0.874679
1629376353758,-0.440359,-0.035258,0.8699209999999999
1629376353767,-0.439505,-0.033916,0.867725
1629376353777,-0.441457,-0.031232,0.868457
1629376353787,-0.440115,-0.02928,0.870287
1629376353796,-0.439444,-0.027632999999999998,0.870287
1629376353806,-0.43785799999999997,-0.027632999999999998,0.871202
1629376353815,-0.438651,-0.030255999999999998,0.873032
1629376353825,-0.437614,-0.034648,0.8748009999999999
1629376353835,-0.43785799999999997,-0.039406,0.8723609999999999
1629376353844,-0.43676,-0.041968,0.869677
1629376353854,-0.436699,-0.04514,0.865407
1629376353863,-0.436455,-0.047640999999999996,0.862174
1629376353873,-0.436089,-0.051179,0.861076
1629376353883,-0.43615,-0.053131,0.86132
1629376353892,-0.437065,-0.053924,0.865834
1629376353902,-0.43816299999999997,-0.053801999999999996,0.870714
1629376353911,-0.440359,-0.053619,0.876082
1629376353921,-0.44225,-0.0549,0.88023
1629376353931,-0.44334799999999996,-0.057523,0.88023
1629376353940,-0.444019,-0.060756,0.8802909999999999
1629376353950,-0.445178,-0.063379,0.879742
1629376353959,-0.44469,-0.06539199999999999,0.879559
1629376353969,-0.44591,-0.069174,0.879132
1629376353979,-0.447679,-0.071858,0.87779
1629376353988,-0.449021,-0.075518,0.877119
1629376353998,-0.450851,-0.079178,0.876814
1629376354007,-0.453047,-0.08174,0.876387
1629376354017,-0.45505999999999996,-0.082472,0.876997
1629376354027,-0.457134,-0.081984,0.878095
1629376354036,-0.457622,-0.079788,0.877302
1629376354046,-0.458903,-0.08033699999999999,0.874618
1629376354055,-0.459513,-0.081374,0.873032
1629376354065,-0.461038,-0.084546,0.872788
1629376354075,-0.46250199999999997,-0.086254,0.871202
1629376354084,-0.464271,-0.08790099999999999,0.871385
1629376354094,-0.466284,-0.088023,0.86925
1629376354103,-0.466528,-0.087474,0.867481
1629376354113,-0.465796,-0.08588799999999999,0.866078
1629376354123,-0.466406,-0.082167,0.865834
1629376354132,-0.467504,-0.075152,0.864553
1629376354142,-0.466406,-0.068808,0.862113
1629376354151,-0.466406,-0.063562,0.860344
1629376354161,-0.46738199999999996,-0.060756,0.859856
1629376354171,-0.467626,-0.058193999999999996,0.859429
1629376354180,-0.46738199999999996,-0.057462,0.859124
1629376354190,-0.46494199999999997,-0.057888999999999996,0.860283
1629376354199,-0.463478,-0.057401,0.8608319999999999
1629376354209,-0.46116,-0.055876,0.861686
1629376354219,-0.459086,-0.056913,0.862418
1629376354228,-0.456768,-0.055632,0.860771
1629376354238,-0.455304,-0.056364,0.8601
1629376354247,-0.456036,-0.054717,0.8605269999999999
1629376354257,-0.455548,-0.05307,0.864431
1629376354267,-0.454816,-0.052582,0.8651019999999999
1629376354276,-0.453718,-0.055022,0.864675
1629376354286,-0.454023,-0.058926,0.866017
1629376354295,-0.454816,-0.064355,0.866627
1629376354305,-0.454938,-0.071858,0.867359
1629376354315,-0.455731,-0.076677,0.869982
1629376354324,-0.457317,-0.079178,0.873032
1629376354334,-0.459818,-0.080886,0.875655
1629376354343,-0.461831,-0.080398,0.875289
1629376354353,-0.462868,-0.078019,0.87535
1629376354363,-0.463356,-0.07649399999999999,0.875594
1629376354372,-0.465613,-0.07356599999999999,0.87596
1629376354382,-0.466223,-0.070882,0.876692
1629376354391,-0.466894,-0.068991,0.8741909999999999
1629376354401,-0.467016,-0.068076,0.871995
1629376354411,-0.46799199999999996,-0.066551,0.869067
1629376354420,-0.470005,-0.06539199999999999,0.866444
1629376354430,-0.470676,-0.063074,0.862845
1629376354439,-0.473726,-0.058743,0.85949
1629376354449,-0.476166,-0.053253,0.859124
1629376354459,-0.479765,-0.04575,0.857538
