timestamp,ax,ay,az
1629376330002,-0.547414,0.455548,-0.6813089999999999
1629376330012,-0.5477799999999999,0.454633,-0.681248
1629376330021,-0.546804,0.453901,-0.681248
1629376330031,-0.548329,0.45292499999999997,-0.682163
1629376330041,-0.547963,0.45017999999999997,-0.6822239999999999
1629376330050,-0.547414,0.448899,-0.682407
1629376330060,-0.546804,0.447679,-0.682956
1629376330069,-0.547719,0.447557,-0.682285
1629376330079,-0.5471699999999999,0.447008,-0.682346
1629376330089,-0.548512,0.445483,-0.683505
1629376330098,-0.549061,0.445178,-0.683627
1629376330108,-0.548695,0.444995,-0.6855789999999999
1629376330117,-0.549,0.44395799999999996,-0.686982
1629376330127,-0.549488,0.4453,-0.6883239999999999
1629376330137,-0.550769,0.444934,-0.689788
1629376330146,-0.551318,0.445788,-0.69052
1629376330156,-0.551684,0.445422,-0.693082
1629376330165,-0.554002,0.445239,-0.6944239999999999
1629376330175,-0.553758,0.444019,-0.696864
1629376330185,-0.553331,0.445849,-0.698267
1629376330194,-0.554734,0.445117,-0.700524
1629376330204,-0.555283,0.445422,-0.701134
1629376330213,-0.5551,0.44469,-0.701378
1629376330223,-0.554124,0.44591,-0.700707
1629376330233,-0.553819,0.446093,-0.701561
1629376330242,-0.553819,0.44712999999999997,-0.701561
1629376330252,-0.553819,0.447557,-0.700585
1629376330261,-0.55388,0.448838,-0.698084
1629376330271,-0.552721,0.448838,-0.696437
1629376330281,-0.552599,0.44956999999999997,-0.694058
1629376330290,-0.551806,0.450363,-0.6938139999999999
1629376330300,-0.551318,0.449814,-0.693387
1629376330309,-0.550952,0.450607,-0.6928989999999999
1629376330319,-0.550769,0.450302,-0.69296
1629376330329,-0.55022,0.450058,-0.692228
1629376330338,-0.550586,0.451766,-0.692228
1629376330348,-0.551135,0.452681,-0.690825
1629376330357,-0.550159,0.454694,-0.690398
1629376330367,-0.549793,0.455487,-0.690032
1629376330377,-0.550586,0.456036,-0.690032
1629376330386,-0.54961,0.45658499999999996,-0.689727
1629376330396,-0.549061,0.45505999999999996,-0.688507
1629376330405,-0.549671,0.455792,-0.688507
1629376330415,-0.548146,0.455243,-0.688873
1629376330425,-0.5474749999999999,0.455243,-0.6874089999999999
1629376330434,-0.546194,0.453413,-0.685091
1629376330444,-0.545523,0.451583,-0.68259
1629376330453,-0.544181,0.451766,-0.682407
1629376330463,-0.544242,0.452986,-0.683932
1629376330473,-0.5459499999999999,0.45231499999999997,-0.6849689999999999
1629376330482,-0.545279,0.451827,-0.686921
1629376330492,-0.543266,0.448289,-0.688202
1629376330501,-0.542656,0.446093,-0.688812
1629376330511,-0.543144,0.444202,-0.6892389999999999
1629376330521,-0.541802,0.439932,-0.690337
1629376330530,-0.542046,0.438712,-0.690886
1629376330540,-0.542717,0.437614,-0.691862
1629376330549,-0.543632,0.437675,-0.694302
1629376330559,-0.543876,0.437797,-0.695339
1629376330569,-0.543876,0.438651,-0.696376
1629376330578,-0.544547,0.438712,-0.696986
1629376330588,-0.544852,0.439017,-0.698572
1629376330597,-0.5456449999999999,0.438407,-0.69906
1629376330607,-0.5465599999999999,0.438712,-0.699182
1629376330617,-0.547658,0.43999299999999997,-0.7015
1629376330626,-0.548695,0.439627,-0.7035129999999999
1629376330636,-0.549061,0.43999299999999997,-0.7041229999999999
1629376330645,-0.551135,0.439444,-0.704184
1629376330655,-0.551196,0.440664,-0.7044279999999999
1629376330665,-0.552782,0.441579,-0.704672
1629376330674,-0.552721,0.442494,-0.705221
1629376330684,-0.551989,0.442494,-0.7065629999999999
1629376330693,-0.55266,0.44286,-0.707417
1629376330703,-0.551013,0.443165,-0.705526
1629376330713,-0.550403,0.443104,-0.703635
1629376330722,-0.54961,0.44456799999999996,-0.703147
1629376330732,-0.549,0.447008,-0.702903
1629376330741,-0.549305,0.450912,-0.703574
1629376330751,-0.5483899999999999,0.45170499999999997,-0.703025
1629376330761,-0.545584,0.45292499999999997,-0.703696
1629376330770,-0.544913,0.451278,-0.701561
1629376330780,-0.546072,0.451522,-0.699853
1629376330789,-0.546194,0.449692,-0.696803
1629376330799,-0.545462,0.449204,-0.695217
1629376330809,-0.544242,0.45078999999999997,-0.693997
1629376330818,-0.542778,0.452864,-0.693326
1629376330828,-0.542046,0.455121,-0.69235
1629376330837,-0.541863,0.456707,-0.6910689999999999
1629376330847,-0.5416799999999999,0.457622,-0.688751
1629376330857,-0.541314,0.45811,-0.686982
1629376330866,-0.541314,0.4575,-0.68686
1629376330876,-0.539057,0.457134,-0.686128
1629376330885,-0.539118,0.45597499999999996,-0.68564
1629376330895,-0.538874,0.456036,-0.686921
1629376330905,-0.538447,0.454633,-0.688263
1629376330914,-0.538752,0.45322999999999997,-0.6907639999999999
1629376330924,-0.538996,0.45139999999999997,-0.692045
1629376330933,-0.540033,0.448777,-0.693875
1629376330943,-0.540826,0.446886,-0.696498
1629376330953,-0.5410699999999999,0.445849,-0.697352
1629376330962,-0.541192,0.446093,-0.698206
1629376330972,-0.541009,0.444873,-0.698328
1629376330981,-0.540643,0.44334799999999996,-0.696742
1629376330991,-0.541436,0.442982,-0.695522
1629376331001,-0.542534,0.442189,-0.696803
1629376331010,-0.543022,0.44103,-0.69662
1629376331020,-0.544059,0.440969,-0.696864
1629376331029,-0.544913,0.440786,-0.697901
1629376331039,-0.544974,0.440847,-0.697962
1629376331049,-0.545279,0.44090799999999997,-0.696376
1629376331058,-0.545279,0.440725,-0.69601
1629376331068,-0.544608,0.440176,-0.695827
1629376331077,-0.545706,0.440664,-0.69601
1629376331087,-0.546621,0.440786,-0.696742
1629376331097,-0.5459499999999999,0.442189,-0.696437
1629376331106,-0.546011,0.442494,-0.69723
1629376331116,-0.546072,0.442799,-0.698877
1629376331125,-0.546011,0.442067,-0.700036
1629376331135,-0.546438,0.442006,-0.700585
1629376331145,-0.546743,0.441335,-0.701378
1629376331154,-0.546499,0.44121299999999997,-0.70333
1629376331164,-0.545523,0.441396,-0.7044279999999999
1629376331173,-0.545279,0.442067,-0.706197
1629376331183,-0.5453399999999999,0.442616,-0.706746
1629376331193,-0.544669,0.444019,-0.706197
1629376331202,-0.543022,0.44456799999999996,-0.706441
1629376331212,-0.5419849999999999,0.444873,-0.706197
1629376331221,-0.541192,0.446032,-0.704245
1629376331231,-0.540582,0.447313,-0.704306
1629376331241,-0.540826,0.447252,-0.701866
1629376331250,-0.539728,0.44773999999999997,-0.701378
1629376331260,-0.539179,0.448838,-0.700829
1629376331269,-0.540094,0.449509,-0.699182
1629376331279,-0.539301,0.449753,-0.698145
1629376331289,-0.540094,0.450424,-0.697718
1629376331298,-0.539972,0.450729,-0.698816
1629376331308,-0.540338,0.451644,-0.697718
1629376331317,-0.540216,0.45200999999999997,-0.698633
1629376331327,-0.5410699999999999,0.452742,-0.698633
1629376331337,-0.541131,0.45353499999999997,-0.698511
1629376331346,-0.5416799999999999,0.454267,-0.697962
1629376331356,-0.541741,0.453901,-0.695583
1629376331365,-0.542168,0.452986,-0.693021
1629376331375,-0.543693,0.453169,-0.690642
1629376331385,-0.543449,0.455853,-0.691008
1629376331394,-0.542656,0.45658499999999996,-0.69052
1629376331404,-0.542412,0.455914,-0.691008
1629376331413,-0.5425949999999999,0.453718,-0.690947
1629376331423,-0.5419849999999999,0.451644,-0.6916789999999999
1629376331433,-0.541253,0.449204,-0.690398
1629376331442,-0.541131,0.448411,-0.691923
1629376331452,-0.540826,0.44834999999999997,-0.693692
1629376331461,-0.540277,0.447984,-0.694546
1629376331471,-0.539972,0.447923,-0.694546
1629376331481,-0.540033,0.447191,-0.694302
1629376331490,-0.539972,0.44773999999999997,-0.695278
1629376331500,-0.540948,0.446947,-0.694485
1629376331509,-0.540094,0.445605,-0.69601
1629376331519,-0.540216,0.4453,-0.697474
1629376331529,-0.540948,0.445971,-0.69845
1629376331538,-0.5425949999999999,0.444385,-0.698938
1629376331548,-0.542839,0.443592,-0.699304
1629376331557,-0.542656,0.440847,-0.699975
1629376331567,-0.542839,0.441701,-0.698938
1629376331577,-0.542656,0.441945,-0.699609
1629376331586,-0.543449,0.44273799999999996,-0.69906
1629376331596,-0.543022,0.443531,-0.698206
1629376331605,-0.543083,0.443775,-0.698023
1629376331615,-0.544303,0.443531,-0.698511
1629376331625,-0.544181,0.442921,-0.69906
1629376331634,-0.544547,0.441396,-0.700768
1629376331644,-0.545157,0.441701,-0.701317
1629376331653,-0.544364,0.44060299999999997,-0.700646
1629376331663,-0.544608,0.440054,-0.700341
1629376331673,-0.546011,0.44103,-0.700097
1629376331682,-0.545706,0.443104,-0.701012
1629376331692,-0.545706,0.44273799999999996,-0.701073
1629376331701,-0.544608,0.44286,-0.702049
1629376331711,-0.545584,0.442555,-0.703574
1629376331721,-0.545218,0.44286,-0.70455
1629376331730,-0.544242,0.44225,-0.705587
1629376331740,-0.542961,0.441701,-0.704794
1629376331749,-0.542351,0.441945,-0.704062
1629376331759,-0.5422899999999999,0.44121299999999997,-0.70455
1629376331769,-0.542168,0.441457,-0.704001
1629376331778,-0.541436,0.440725,-0.703696
1629376331788,-0.540826,0.440481,-0.702842
1629376331797,-0.541802,0.440725,-0.702232
1629376331807,-0.541436,0.441152,-0.704306
1629376331817,-0.5416799999999999,0.441884,-0.703757
1629376331826,-0.542534,0.441884,-0.70455
1629376331836,-0.5416799999999999,0.442555,-0.7047329999999999
1629376331845,-0.5432049999999999,0.44225,-0.70455
1629376331855,-0.542839,0.443104,-0.7041229999999999
1629376331865,-0.5428999999999999,0.442555,-0.703086
1629376331874,-0.5416799999999999,0.44304299999999996,-0.703025
1629376331884,-0.541558,0.443165,-0.702171
1629376331893,-0.540826,0.444141,-0.70211
1629376331903,-0.539789,0.444324,-0.701927
1629376331913,-0.539118,0.443775,-0.701256
1629376331922,-0.538752,0.443592,-0.700707
1629376331932,-0.538569,0.44243299999999997,-0.700524
1629376331941,-0.537471,0.442372,-0.69967
1629376331951,-0.537349,0.442555,-0.700158
1629376331961,-0.5371049999999999,0.44212799999999997,-0.70089
1629376331970,-0.537959,0.442494,-0.701317
1629376331980,-0.536983,0.44286,-0.702476
1629376331989,-0.5380199999999999,0.44334799999999996,-0.702903
1629376331999,-0.536678,0.442494,-0.7035129999999999
1629376332009,-0.536983,0.442189,-0.702903
1629376332018,-0.537288,0.442189,-0.703879
1629376332028,-0.536861,0.442921,-0.704977
1629376332037,-0.5361899999999999,0.44304299999999996,-0.705099
1629376332047,-0.535885,0.443897,-0.706136
1629376332057,-0.536983,0.445178,-0.7059529999999999
1629376332066,-0.536922,0.44469,-0.706502
1629376332076,-0.536617,0.445361,-0.706319
1629376332085,-0.537166,0.444629,-0.7062579999999999
1629376332095,-0.5364949999999999,0.444934,-0.706502
1629376332105,-0.535763,0.444812,-0.705587
1629376332114,-0.535214,0.444141,-0.706746
1629376332124,-0.534604,0.44273799999999996,-0.707539
1629376332133,-0.533872,0.44225,-0.707356
1629376332143,-0.534238,0.443104,-0.707295
1629376332153,-0.535519,0.44426299999999996,-0.706746
1629376332162,-0.534055,0.444934,-0.706136
1629376332172,-0.535092,0.444202,-0.7059529999999999
1629376332181,-0.535214,0.4453,-0.705526
1629376332191,-0.534848,0.445666,-0.706624
1629376332201,-0.534482,0.44743499999999997,-0.708576
1629376332210,-0.535458,0.447313,-0.709674
1629376332220,-0.53497,0.44652,-0.709247
1629376332229,-0.535519,0.447008,-0.709796
1629376332239,-0.536434,0.447252,-0.7117479999999999
1629376332249,-0.536251,0.444934,-0.7144929999999999
1629376332258,-0.536251,0.442799,-0.7181529999999999
1629376332268,-0.536617,0.442677,-0.724375
1629376332277,-0.535519,0.44426299999999996,-0.732244
1629376332287,-0.53436,0.444202,-0.738954
1629376332297,-0.532103,0.44334799999999996,-0.744932
1629376332306,-0.531615,0.442067,-0.749507
1629376332316,-0.529846,0.44103,-0.752252
1629376332325,-0.526979,0.441396,-0.752435
1629376332335,-0.521672,0.44408,-0.75274
1629376332345,-0.521489,0.44834999999999997,-0.749629
1629376332354,-0.519903,0.453108,-0.746091
1629376332364,-0.518317,0.457866,-0.7412719999999999
1629376332373,-0.515633,0.46055,-0.736026
1629376332383,-0.513925,0.463905,-0.7281569999999999
1629376332393,-0.5136809999999999,0.466894,-0.719556
1629376332402,-0.51118,0.472323,-0.711321
1629376332412,-0.509289,0.478606,-0.705465
1629376332421,-0.507886,0.483364,-0.701988
1629376332431,-0.505385,0.488915,-0.700829
1629376332441,-0.50325,0.495686,-0.698084
1629376332450,-0.499956,0.502152,-0.697596
1629376332460,-0.49641799999999997,0.510448,-0.6932039999999999
1629376332469,-0.495381,0.518744,-0.6837489999999999
1629376332479,-0.496601,0.527345,-0.677344
1629376332489,-0.496357,0.532591,-0.675575
1629376332498,-0.495076,0.536617,-0.678686
1629376332508,-0.492209,0.541802,-0.678808
1629376332517,-0.489159,0.545767,-0.673806
1629376332527,-0.484889,0.550403,-0.665449
1629376332537,-0.480192,0.554063,-0.656726
1629376332546,-0.475617,0.559126,-0.649528
1629376332556,-0.471713,0.56669,-0.646356
1629376332565,-0.464088,0.573644,-0.643794
1629376332575,-0.459574,0.580354,-0.638243
1629376332585,-0.455914,0.58438,-0.6365959999999999
1629376332594,-0.451949,0.586942,-0.63562
1629376332604,-0.44682499999999997,0.585844,-0.634827
1629376332613,-0.44304299999999996,0.586942,-0.636779
1629376332623,-0.439566,0.589992,-0.640134
1629376332633,-0.43554,0.59292,-0.6420859999999999
1629376332642,-0.43127,0.598776,-0.641903
1629376332652,-0.42639,0.606035,-0.638975
1629376332661,-0.423767,0.6095119999999999,-0.632509
1629376332671,-0.421144,0.610061,-0.629215
1629376332681,-0.41931399999999996,0.610061,-0.625006
1629376332690,-0.417301,0.610488,-0.622322
1629376332700,-0.414373,0.612135,-0.624091
1629376332709,-0.41260399999999997,0.612928,-0.624091
1629376332719,-0.41199399999999997,0.61427,-0.626836
1629376332729,-0.410286,0.614514,-0.629032
1629376332738,-0.409371,0.6143919999999999,-0.630984
1629376332748,-0.409798,0.6159169999999999,-0.632692
1629376332757,-0.408761,0.61793,-0.633119
1629376332767,-0.408395,0.618296,-0.63257
1629376332777,-0.409249,0.620248,-0.632814
1629376332786,-0.410286,0.61976,-0.633363
1629376332796,-0.412543,0.618601,-0.637145
1629376332805,-0.414068,0.616405,-0.6399509999999999
1629376332815,-0.414922,0.61488,-0.643123
1629376332825,-0.414678,0.614941,-0.6454409999999999
1629376332834,-0.414617,0.615246,-0.646722
1629376332844,-0.415105,0.616954,-0.6451359999999999
1629376332853,-0.41443399999999997,0.618296,-0.642025
1629376332863,-0.416203,0.619394,-0.639097
1629376332873,-0.41748399999999997,0.619028,-0.637938
1629376332882,-0.417301,0.617869,-0.637694
1629376332892,-0.418521,0.615124,-0.638914
1629376332901,-0.418521,0.613294,-0.6399509999999999
1629376332911,-0.418887,0.612318,-0.640927
1629376332921,-0.419436,0.611464,-0.642879
1629376332930,-0.420107,0.61183,-0.644282
1629376332940,-0.420534,0.611525,-0.647088
1629376332949,-0.420656,0.611708,-0.649345
1629376332959,-0.421876,0.612318,-0.652578
1629376332969,-0.42151,0.611098,-0.655567
1629376332978,-0.422669,0.611586,-0.658007
1629376332988,-0.422486,0.610854,-0.658007
1629376332997,-0.422364,0.61061,-0.658068
1629376333007,-0.42309599999999997,0.611586,-0.658373
1629376333017,-0.42401099999999997,0.613904,-0.657214
1629376333026,-0.42578,0.615368,-0.658739
1629376333036,-0.427122,0.615368,-0.6584949999999999
1629376333045,-0.42645099999999997,0.615856,-0.6572749999999999
1629376333055,-0.428098,0.6168319999999999,-0.65514
1629376333065,-0.429379,0.6165269999999999,-0.65392
1629376333074,-0.429745,0.614819,-0.652395
1629376333084,-0.42950099999999997,0.614636,-0.651358
1629376333093,-0.430233,0.614819,-0.649406
1629376333103,-0.43255099999999996,0.61549,-0.648186
1629376333113,-0.432612,0.614575,-0.645624
1629376333122,-0.433954,0.613416,-0.6420859999999999
1629376333132,-0.434808,0.615368,-0.640317
1629376333141,-0.43694299999999997,0.617625,-0.63989
1629376333151,-0.437675,0.620248,-0.6384259999999999
1629376333161,-0.43816299999999997,0.62159,-0.637938
1629376333170,-0.43846799999999997,0.620675,-0.637023
1629376333180,-0.438041,0.62098,-0.6375109999999999
1629376333189,-0.438346,0.620309,-0.6369009999999999
1629376333199,-0.439322,0.6192719999999999,-0.636535
1629376333209,-0.439627,0.61671,-0.637145
1629376333218,-0.43907799999999997,0.615368,-0.636962
1629376333228,-0.440542,0.615856,-0.636352
1629376333237,-0.44042,0.615124,-0.636718
1629376333247,-0.442372,0.613416,-0.636047
1629376333257,-0.441884,0.611586,-0.637389
1629376333266,-0.44121299999999997,0.610671,-0.639158
1629376333276,-0.441396,0.609878,-0.640683
1629376333285,-0.442067,0.60756,-0.641537
1629376333295,-0.44273799999999996,0.607377,-0.63989
1629376333305,-0.443592,0.60634,-0.6396459999999999
1629376333314,-0.444812,0.605303,-0.639158
1629376333324,-0.445605,0.606584,-0.63928
1629376333333,-0.447618,0.606767,-0.6381209999999999
1629376333343,-0.449509,0.6079869999999999,-0.6393409999999999
1629376333353,-0.449997,0.607072,-0.639707
1629376333362,-0.450241,0.606462,-0.640683
1629376333372,-0.451156,0.605608,-0.641598
1629376333381,-0.452193,0.605791,-0.642025
1629376333391,-0.450851,0.605364,-0.642147
1629376333401,-0.452559,0.603778,-0.640805
1629376333410,-0.454023,0.60451,-0.640439
1629376333420,-0.454206,0.606462,-0.641049
1629376333429,-0.455853,0.607316,-0.6396459999999999
1629376333439,-0.455853,0.608353,-0.6390359999999999
1629376333449,-0.455548,0.608475,-0.636474
1629376333458,-0.456463,0.6082919999999999,-0.636962
1629376333468,-0.456036,0.608536,-0.636474
1629376333477,-0.45658499999999996,0.608963,-0.63623
1629376333487,-0.456158,0.609451,-0.635315
1629376333497,-0.456097,0.610183,-0.634339
1629376333506,-0.455914,0.61122,-0.63318
1629376333516,-0.455243,0.611098,-0.632143
1629376333525,-0.455792,0.6119519999999999,-0.63074
1629376333535,-0.45536499999999996,0.612196,-0.631228
1629376333545,-0.455304,0.611769,-0.630862
1629376333554,-0.455609,0.611891,-0.629276
1629376333564,-0.456036,0.611769,-0.629642
1629376333573,-0.455243,0.610061,-0.629459
1629376333583,-0.453962,0.6110369999999999,-0.629215
1629376333593,-0.455792,0.61183,-0.628849
1629376333602,-0.456219,0.613416,-0.628971
1629376333612,-0.457195,0.615124,-0.628544
1629376333621,-0.45658499999999996,0.614758,-0.629032
1629376333631,-0.458537,0.615978,-0.629764
1629376333641,-0.45811,0.615246,-0.629276
1629376333650,-0.45872,0.616161,-0.628422
1629376333660,-0.45914699999999997,0.615856,-0.628178
1629376333669,-0.460306,0.61671,-0.62647
1629376333679,-0.46006199999999997,0.617015,-0.62525
1629376333689,-0.460245,0.617381,-0.623847
1629376333698,-0.460001,0.6180519999999999,-0.622322
1629376333708,-0.46067199999999997,0.619211,-0.622261
1629376333717,-0.460916,0.619638,-0.622139
1629376333727,-0.460489,0.620553,-0.621529
1629376333737,-0.460123,0.621163,-0.622261
1629376333746,-0.460489,0.619699,-0.622444
1629376333756,-0.46116,0.618723,-0.621346
1629376333765,-0.46189199999999997,0.620126,-0.619516
1629376333775,-0.46177,0.622139,-0.6180519999999999
1629376333785,-0.46219699999999997,0.622444,-0.615978
1629376333794,-0.462868,0.623481,-0.615063
1629376333804,-0.463173,0.62281,-0.6140869999999999
1629376333813,-0.462868,0.622261,-0.6125619999999999
1629376333823,-0.46219699999999997,0.621468,-0.612196
1629376333833,-0.462136,0.62159,-0.610793
1629376333842,-0.461099,0.622749,-0.611708
1629376333852,-0.461038,0.622505,-0.6116469999999999
1629376333861,-0.46158699999999997,0.621834,-0.611159
1629376333871,-0.460428,0.621956,-0.611098
1629376333881,-0.460611,0.621224,-0.611769
1629376333890,-0.46116,0.621773,-0.6119519999999999
1629376333900,-0.460916,0.62159,-0.609939
1629376333909,-0.46128199999999997,0.623542,-0.6095119999999999
1629376333919,-0.46219699999999997,0.625311,-0.60878
1629376333929,-0.462441,0.625799,-0.6092069999999999
1629376333938,-0.462624,0.625677,-0.6104269999999999
1629376333948,-0.462868,0.624701,-0.609573
1629376333957,-0.4636,0.624213,-0.608841
1629376333967,-0.46341699999999997,0.624823,-0.6079869999999999
1629376333977,-0.463356,0.625494,-0.60756
1629376333986,-0.463905,0.627202,-0.607804
1629376333996,-0.462746,0.627995,-0.609146
1629376334005,-0.463783,0.628971,-0.609695
1629376334015,-0.463844,0.629459,-0.608536
1629376334025,-0.46402699999999997,0.627568,-0.606828
1629376334034,-0.463783,0.627202,-0.606828
1629376334044,-0.46433199999999997,0.629825,-0.60756
1629376334053,-0.465308,0.632814,-0.607926
1629376334063,-0.46482,0.632448,-0.6079869999999999
1629376334073,-0.46372199999999997,0.632448,-0.607255
1629376334082,-0.46280699999999997,0.631472,-0.605913
1629376334092,-0.462014,0.630679,-0.604998
1629376334101,-0.462136,0.630374,-0.60512
1629376334111,-0.46158699999999997,0.629581,-0.60512
1629376334121,-0.46189199999999997,0.630313,-0.605608
1629376334130,-0.461038,0.63074,-0.607011
1629376334140,-0.460428,0.630252,-0.607011
1629376334149,-0.45945199999999997,0.6320209999999999,-0.606889
1629376334159,-0.458659,0.6329359999999999,-0.60634
1629376334169,-0.459208,0.633607,-0.604144
1629376334178,-0.458415,0.6338509999999999,-0.603534
1629376334188,-0.458659,0.633363,-0.601826
1629376334197,-0.458232,0.632265,-0.60146
1629376334207,-0.457805,0.63318,-0.601582
1629376334217,-0.457866,0.633302,-0.602253
1629376334226,-0.457744,0.63318,-0.604022
1629376334236,-0.458781,0.634583,-0.60573
1629376334245,-0.459208,0.63501,-0.605852
1629376334255,-0.458476,0.635132,-0.60512
1629376334265,-0.458293,0.6347659999999999,-0.603656
1629376334274,-0.458659,0.636108,-0.60146
1629376334284,-0.457988,0.637084,-0.60085
1629376334293,-0.459025,0.637633,-0.600545
1629376334303,-0.457378,0.6372059999999999,-0.600911
1629376334313,-0.457927,0.637755,-0.601582
1629376334322,-0.459086,0.638853,-0.601887
1629376334332,-0.459513,0.639829,-0.602375
1629376334341,-0.458781,0.639524,-0.600606
1629376334351,-0.458903,0.63806,-0.599752
1629376334361,-0.457927,0.638792,-0.600057
1629376334370,-0.457317,0.640012,-0.599386
1629376334380,-0.457317,0.641232,-0.598105
1629376334389,-0.45811,0.6423909999999999,-0.5946279999999999
1629376334399,-0.457622,0.644038,-0.590724
1629376334409,-0.457561,0.645502,-0.587796
1629376334418,-0.456951,0.645563,-0.5857829999999999
1629376334428,-0.455609,0.64538,-0.583709
1629376334437,-0.45444999999999997,0.64416,-0.581818
1629376334447,-0.454267,0.6420859999999999,-0.58316
1629376334457,-0.455304,0.64111,-0.5842579999999999
1629376334466,-0.457866,0.6387309999999999,-0.586576
1629376334476,-0.457805,0.63684,-0.591639
1629376334485,-0.458171,0.63562,-0.5949329999999999
1629376334495,-0.458415,0.634888,-0.597617
1629376334505,-0.457622,0.63379,-0.600911
1629376334514,-0.457439,0.63379,-0.60085
1629376334524,-0.456951,0.634827,-0.600972
1629376334533,-0.455304,0.636352,-0.601643
1629376334543,-0.45597499999999996,0.63867,-0.601033
1629376334553,-0.456524,0.640378,-0.600057
1629376334562,-0.457988,0.6408659999999999,-0.59902
1629376334572,-0.459208,0.640378,-0.598532
1629376334581,-0.461343,0.63989,-0.5970679999999999
1629376334591,-0.463661,0.6405,-0.595726
1629376334601,-0.465735,0.640927,-0.59414
1629376334610,-0.467138,0.642025,-0.594872
1629376334620,-0.467748,0.643245,-0.593591
1629376334629,-0.46677199999999996,0.6426959999999999,-0.592249
1629376334639,-0.468419,0.645868,-0.59048
1629376334649,-0.46921199999999996,0.650199,-0.589321
1629376334658,-0.470066,0.654042,-0.587186
1629376334668,-0.47153,0.655872,-0.584746
1629376334677,-0.470798,0.657031,-0.581147
1629376334687,-0.471103,0.6587999999999999,-0.578829
1629376334697,-0.471408,0.660752,-0.577182
1629376334706,-0.470798,0.6618499999999999,-0.575718
1629376334716,-0.471957,0.661728,-0.573461
1629376334725,-0.472445,0.660203,-0.571387
1629376334735,-0.47031,0.659593,-0.570228
1629376334745,-0.469456,0.658556,-0.568337
1629376334754,-0.469456,0.660508,-0.5663239999999999
1629376334764,-0.469822,0.6609349999999999,-0.566141
1629376334773,-0.46860199999999996,0.6612399999999999,-0.563701
1629376334783,-0.470188,0.661728,-0.5611389999999999
1629376334793,-0.470432,0.662704,-0.559675
1629376334802,-0.472628,0.663253,-0.561017
1629376334812,-0.47458,0.664412,-0.561932
1629376334821,-0.47421399999999997,0.665388,-0.561505
1629376334831,-0.474336,0.667218,-0.561078
1629376334841,-0.476105,0.6679499999999999,-0.559919
1629376334850,-0.477447,0.668438,-0.561017
1629376334860,-0.477813,0.668011,-0.5629689999999999
1629376334869,-0.47787399999999997,0.668072,-0.562847
1629376334879,-0.478606,0.667584,-0.564311
1629376334889,-0.479033,0.669353,-0.56669
1629376334898,-0.479765,0.670207,-0.570228
1629376334908,-0.48061899999999996,0.6694749999999999,-0.573034
1629376334917,-0.480802,0.671732,-0.575413
1629376334927,-0.479948,0.675331,-0.5724239999999999
1629376334937,-0.47763,0.676124,-0.570716
1629376334946,-0.475861,0.675331,-0.566385
1629376334956,-0.473177,0.672586,-0.564433
1629376334965,-0.471286,0.670268,-0.5638839999999999
1629376334975,-0.470188,0.668377,-0.563945
1629376334985,-0.467626,0.666059,-0.5681539999999999
1629376334994,-0.46311199999999997,0.662582,-0.571997
1629376335004,-0.461465,0.660508,-0.576511
1629376335013,-0.459574,0.657641,-0.578646
1629376335023,-0.458781,0.65453,-0.57889
1629376335033,-0.458964,0.652761,-0.580171
1629376335042,-0.458476,0.649162,-0.579561
1629376335052,-0.457012,0.644892,-0.579134
1629376335061,-0.456951,0.643123,-0.578097
1629376335071,-0.454389,0.639829,-0.57523
1629376335081,-0.452681,0.638914,-0.573766
1629376335090,-0.454206,0.6393409999999999,-0.573766
1629376335100,-0.45536499999999996,0.63867,-0.576206
1629376335109,-0.454816,0.633302,-0.579195
1629376335119,-0.455609,0.628117,-0.583404
1629376335129,-0.457744,0.623176,-0.5854779999999999
1629376335138,-0.460184,0.61732,-0.587491
1629376335148,-0.46250199999999997,0.614331,-0.590297
1629376335157,-0.466711,0.610976,-0.5917
1629376335167,-0.46799199999999996,0.611708,-0.5927979999999999
1629376335177,-0.469517,0.6104269999999999,-0.593347
1629376335186,-0.47207899999999997,0.6098169999999999,-0.593347
1629376335196,-0.47543399999999997,0.6076819999999999,-0.594079
1629376335205,-0.47817899999999997,0.606584,-0.596702
1629376335215,-0.480253,0.603046,-0.5978
1629376335225,-0.482083,0.59719,-0.599325
1629376335234,-0.485377,0.592737,-0.598776
1629376335244,-0.490257,0.589809,-0.598959
1629376335253,-0.495015,0.586271,-0.600667
1629376335263,-0.50264,0.583587,-0.603778
1629376335273,-0.510326,0.581635,-0.609695
1629376335282,-0.515694,0.581086,-0.6161
1629376335292,-0.51972,0.582123,-0.621041
1629376335301,-0.524966,0.583343,-0.624091
1629376335311,-0.533018,0.585966,-0.629215
1629376335321,-0.5413749999999999,0.590846,-0.634644
1629376335330,-0.5432049999999999,0.588589,-0.636657
1629376335340,-0.544303,0.580232,-0.634583
1629376335349,-0.5447299999999999,0.570838,-0.637328
1629376335359,-0.545767,0.562481,-0.64294
1629376335369,-0.546987,0.556991,-0.649406
1629376335378,-0.545279,0.550037,-0.654408
1629376335388,-0.5441199999999999,0.544486,-0.657214
1629376335397,-0.542839,0.539972,-0.657336
1629376335407,-0.541863,0.53436,-0.658251
1629376335417,-0.540094,0.529358,-0.657641
1629376335426,-0.538447,0.525515,-0.656421
1629376335436,-0.536861,0.5225259999999999,-0.655384
1629376335445,-0.5361899999999999,0.5194759999999999,-0.655384
1629376335455,-0.535519,0.5149009999999999,-0.654591
1629376335465,-0.533262,0.511546,-0.655018
1629376335474,-0.53131,0.5063,-0.656116
1629376335484,-0.530029,0.50447,-0.656909
1629376335493,-0.530029,0.503128,-0.658434
1629376335503,-0.530761,0.501298,-0.661972
1629376335513,-0.531737,0.501176,-0.664229
1629376335522,-0.532957,0.501603,-0.665632
1629376335532,-0.533994,0.502457,-0.665998
1629376335541,-0.534238,0.504409,-0.664961
1629376335551,-0.533628,0.504714,-0.665022
1629376335561,-0.535824,0.50508,-0.663802
1629376335570,-0.539057,0.503921,-0.665327
1629376335580,-0.540277,0.503006,-0.666486
1629376335589,-0.543083,0.501542,-0.666547
1629376335599,-0.546011,0.500566,-0.6655099999999999
1629376335609,-0.5477799999999999,0.498736,-0.664839
1629376335618,-0.549732,0.497089,-0.665876
1629376335628,-0.553209,0.497821,-0.667828
1629376335637,-0.556625,0.501298,-0.671061
1629376335647,-0.559248,0.504104,-0.673013
1629376335657,-0.560773,0.50386,-0.673257
1629376335666,-0.562481,0.505568,-0.671671
1629376335676,-0.564128,0.508252,-0.67039
1629376335685,-0.564067,0.511058,-0.666974
1629376335695,-0.5644939999999999,0.5127659999999999,-0.664473
1629376335705,-0.56364,0.513315,-0.660691
1629376335714,-0.564067,0.51606,-0.655628
1629376335724,-0.565226,0.520574,-0.653249
1629376335733,-0.562847,0.523807,-0.652151
1629376335743,-0.559736,0.528748,-0.649284
1629376335753,-0.558699,0.532591,-0.646417
1629376335762,-0.5551,0.537166,-0.645685
1629376335772,-0.549854,0.541741,-0.6411709999999999
1629376335781,-0.547292,0.547048,-0.637084
1629376335791,-0.551806,0.551684,-0.634095
1629376335801,-0.554551,0.558699,-0.638548
1629376335810,-0.554368,0.565653,-0.646478
1629376335820,-0.553575,0.56974,-0.649589
1629376335829,-0.552172,0.568825,-0.643672
1629376335839,-0.551074,0.566202,-0.634339
1629376335849,-0.552843,0.5690689999999999,-0.623176
1629376335858,-0.55754,0.576816,-0.613355
1629376335868,-0.557662,0.582001,-0.60573
1629376335877,-0.551379,0.582672,-0.596092
1629376335887,-0.5468649999999999,0.578646,-0.581513
1629376335897,-0.548207,0.580354,-0.572668
1629376335906,-0.547353,0.588101,-0.567117
1629376335916,-0.546133,0.595299,-0.560163
1629376335925,-0.542778,0.60024,-0.550159
1629376335935,-0.543876,0.604693,-0.535275
1629376335945,-0.546133,0.612684,-0.522282
1629376335954,-0.546133,0.624457,-0.510387
1629376335964,-0.544547,0.630801,-0.49227
1629376335973,-0.549305,0.635559,-0.479216
1629376335983,-0.553209,0.64416,-0.473787
1629376335993,-0.554917,0.65209,-0.47397
1629376336002,-0.559858,0.6578849999999999,-0.47177399999999997
1629376336012,-0.561505,0.6584949999999999,-0.47329899999999997
1629376336021,-0.556747,0.653981,-0.483852
1629376336031,-0.549061,0.649711,-0.496296
1629376336041,-0.544059,0.65087,-0.505019
1629376336050,-0.5456449999999999,0.650382,-0.506117
1629376336060,-0.541192,0.647637,-0.509472
1629376336069,-0.538752,0.650321,-0.512583
1629376336079,-0.538813,0.654042,-0.509106
1629376336089,-0.535946,0.655994,-0.50325
1629376336098,-0.532042,0.6615449999999999,-0.499712
1629376336108,-0.530456,0.671488,-0.498187
1629376336117,-0.527162,0.6771,-0.494405
1629376336127,-0.522404,0.678869,-0.488122
1629376336137,-0.521184,0.67832,-0.48068
1629376336146,-0.522648,0.677649,-0.473787
1629376336156,-0.52399,0.68198,-0.469517
1629376336165,-0.522038,0.687043,-0.467016
1629376336175,-0.519537,0.691801,-0.466894
1629376336185,-0.518012,0.696071,-0.463783
1629376336194,-0.514535,0.69662,-0.462868
1629376336204,-0.512339,0.700158,-0.461221
1629376336213,-0.511363,0.702171,-0.46067199999999997
1629376336223,-0.511668,0.702293,-0.458598
1629376336233,-0.51362,0.692228,-0.45475499999999996
1629376336242,-0.5155109999999999,0.676002,-0.44895999999999997
1629376336252,-0.517524,0.665388,-0.443226
1629376336261,-0.516487,0.663619,-0.439322
1629376336271,-0.5185,0.667096,-0.438834
1629376336281,-0.520635,0.675392,-0.442494
1629376336290,-0.521733,0.680821,-0.448838
1629376336300,-0.525271,0.68686,-0.45383999999999997
1629376336309,-0.525698,0.6922889999999999,-0.457134
1629376336319,-0.52582,0.696376,-0.463051
1629376336329,-0.526796,0.697901,-0.467809
1629376336338,-0.52643,0.693265,-0.471713
1629376336348,-0.524722,0.6895439999999999,-0.473787
1629376336357,-0.527589,0.688995,-0.476166
1629376336367,-0.531737,0.690337,-0.480375
1629376336377,-0.535397,0.690093,-0.486109
1629376336386,-0.537044,0.690032,-0.488488
1629376336396,-0.535153,0.689483,-0.493002
1629376336405,-0.532286,0.689666,-0.49702799999999997
1629376336415,-0.528321,0.689666,-0.49885799999999997
1629376336425,-0.524966,0.687592,-0.499102
1629376336434,-0.527894,0.678259,-0.501603
1629376336444,-0.537288,0.661118,-0.509899
1629376336453,-0.537776,0.645197,-0.5164259999999999
1629376336463,-0.537898,0.633424,-0.517524
1629376336473,-0.5380199999999999,0.635254,-0.520574
1629376336482,-0.535885,0.644892,-0.530517
1629376336492,-0.531676,0.651846,-0.539057
1629376336501,-0.529785,0.64965,-0.536556
1629376336511,-0.530029,0.645563,-0.526491
1629376336521,-0.533872,0.643123,-0.521123
1629376336530,-0.538142,0.641842,-0.523929
1629376336540,-0.540033,0.640073,-0.531249
1629376336549,-0.539606,0.638853,-0.538081
1629376336559,-0.539423,0.637267,-0.540338
1629376336569,-0.539789,0.6347659999999999,-0.537837
1629376336578,-0.5383249999999999,0.63074,-0.5380199999999999
1629376336588,-0.53314,0.626958,-0.541436
1629376336597,-0.532591,0.623054,-0.540948
1629376336607,-0.532774,0.620858,-0.539972
1629376336617,-0.535214,0.619699,-0.5380199999999999
1629376336626,-0.536007,0.6201869999999999,-0.538081
1629376336636,-0.535702,0.6222,-0.542656
1629376336645,-0.535397,0.62464,-0.548024
1629376336655,-0.532957,0.62464,-0.555283
1629376336665,-0.532225,0.625555,-0.555466
1629376336674,-0.531493,0.62647,-0.554917
1629376336684,-0.529175,0.625738,-0.552172
1629376336693,-0.52948,0.62525,-0.550586
1629376336703,-0.529541,0.624762,-0.553697
1629376336713,-0.528138,0.623115,-0.55754
1629376336722,-0.526613,0.6204919999999999,-0.561932
1629376336732,-0.525515,0.6177469999999999,-0.567666
1629376336741,-0.5231359999999999,0.614636,-0.573766
1629376336751,-0.51972,0.614148,-0.578646
1629376336761,-0.5173409999999999,0.6134769999999999,-0.583038
1629376336770,-0.514169,0.611159,-0.586454
1629376336780,-0.51423,0.610183,-0.5894429999999999
1629376336789,-0.515694,0.610061,-0.593652
1629376336799,-0.5149009999999999,0.607072,-0.5952379999999999
1629376336809,-0.517158,0.607011,-0.597739
1629376336818,-0.51667,0.60878,-0.60207
1629376336828,-0.51545,0.608536,-0.604266
1629376336837,-0.5124609999999999,0.608048,-0.605364
1629376336847,-0.50996,0.606218,-0.603778
1629376336857,-0.507154,0.604205,-0.603961
1629376336866,-0.505812,0.602253,-0.606218
1629376336876,-0.504714,0.603473,-0.610183
1629376336885,-0.50447,0.605364,-0.61366
1629376336895,-0.503494,0.606767,-0.6174419999999999
1629376336905,-0.503921,0.607133,-0.6156119999999999
1629376336914,-0.504653,0.60756,-0.615063
1629376336924,-0.503799,0.608109,-0.61305
1629376336933,-0.502152,0.606767,-0.612135
1629376336943,-0.499285,0.604876,-0.609146
1629376336953,-0.498919,0.60451,-0.606584
1629376336962,-0.498736,0.605242,-0.608414
1629376336972,-0.499346,0.605913,-0.609146
1629376336981,-0.499529,0.608048,-0.609024
1629376336991,-0.499834,0.60756,-0.607804
1629376337001,-0.500505,0.608048,-0.607255
1629376337010,-0.499712,0.605974,-0.604266
1629376337020,-0.499102,0.603656,-0.600667
1629376337029,-0.500932,0.60451,-0.59902
1629376337039,-0.50203,0.605425,-0.597922
1629376337049,-0.502518,0.606828,-0.59841
1629376337058,-0.502823,0.60695,-0.598654
1629376337068,-0.504165,0.607377,-0.600423
1629376337077,-0.504043,0.606157,-0.599569
1629376337087,-0.503799,0.60634,-0.595604
1629376337097,-0.505568,0.606889,-0.592005
1629376337106,-0.507032,0.607438,-0.590907
1629376337116,-0.50813,0.60939,-0.5940179999999999
1629376337125,-0.508191,0.6107319999999999,-0.596519
1629376337135,-0.508008,0.6122569999999999,-0.598166
1629376337145,-0.509655,0.6134769999999999,-0.599386
1629376337154,-0.507642,0.6140869999999999,-0.603717
1629376337164,-0.507764,0.614148,-0.603229
1629376337173,-0.505934,0.6134769999999999,-0.602497
1629376337183,-0.50447,0.61427,-0.602436
1629376337193,-0.501115,0.614575,-0.60268
1629376337202,-0.501725,0.61488,-0.600606
1629376337212,-0.500017,0.615368,-0.596946
1629376337221,-0.499224,0.619211,-0.595482
1629376337231,-0.499712,0.619455,-0.596397
1629376337241,-0.49855299999999997,0.62159,-0.597007
1629376337250,-0.495747,0.622932,-0.597678
1629376337260,-0.493063,0.623176,-0.5961529999999999
1629376337269,-0.492392,0.624152,-0.5927979999999999
1629376337279,-0.491904,0.624823,-0.590785
1629376337289,-0.489342,0.626104,-0.589687
1629376337298,-0.487024,0.626165,-0.58804
1629376337308,-0.48745099999999997,0.627019,-0.585722
1629376337317,-0.48653599999999997,0.627568,-0.582306
1629376337327,-0.486475,0.628178,-0.577853
1629376337337,-0.486048,0.626775,-0.57401
1629376337346,-0.48678,0.625921,-0.57096
1629376337356,-0.48684099999999997,0.627568,-0.570777
1629376337365,-0.489159,0.6283,-0.5690689999999999
1629376337375,-0.491538,0.627568,-0.570228
1629376337385,-0.490135,0.627202,-0.571387
1629376337394,-0.489708,0.626348,-0.5708989999999999
1629376337404,-0.490379,0.62586,-0.5687639999999999
1629376337413,-0.492209,0.625555,-0.5684589999999999
1629376337423,-0.494161,0.624335,-0.5681539999999999
1629376337433,-0.49532,0.624213,-0.567605
1629376337442,-0.496601,0.624884,-0.567605
1629376337452,-0.496845,0.626409,-0.570472
1629376337461,-0.498065,0.627995,-0.572668
1629376337471,-0.499285,0.627873,-0.57523
1629376337481,-0.497577,0.628239,-0.576511
1629376337490,-0.499285,0.628849,-0.578829
1629376337500,-0.501176,0.630435,-0.581147
1629376337509,-0.501603,0.6332409999999999,-0.580964
1629376337519,-0.503677,0.6365959999999999,-0.58072
1629376337529,-0.504104,0.640195,-0.579622
1629376337538,-0.505019,0.6411709999999999,-0.579012
1629376337548,-0.505202,0.640317,-0.577182
1629376337557,-0.505263,0.639829,-0.576938
1629376337567,-0.504043,0.6384259999999999,-0.578402
1629376337577,-0.50264,0.63745,-0.578097
1629376337586,-0.501481,0.635925,-0.578829
1629376337596,-0.498675,0.6338509999999999,-0.578341
1629376337605,-0.498492,0.632265,-0.577548
1629376337615,-0.499895,0.631838,-0.577365
1629376337625,-0.49855299999999997,0.631411,-0.576816
1629376337634,-0.499285,0.631533,-0.575413
1629376337644,-0.499102,0.632692,-0.576023
1629376337653,-0.497516,0.630923,-0.574925
1629376337663,-0.497516,0.629825,-0.577365
1629376337673,-0.497699,0.629764,-0.577914
1629376337682,-0.49855299999999997,0.630496,-0.576877
1629376337692,-0.499651,0.630008,-0.574498
1629376337701,-0.49837,0.628422,-0.572485
1629376337711,-0.49959,0.628056,-0.567727
1629376337721,-0.501176,0.630435,-0.56791
1629376337730,-0.502274,0.631594,-0.5660189999999999
1629376337740,-0.503677,0.632204,-0.565653
1629376337749,-0.504531,0.63196,-0.566202
1629376337759,-0.504592,0.633363,-0.567971
1629376337769,-0.505629,0.6344,-0.569252
1629376337778,-0.506971,0.634095,-0.570655
1629376337788,-0.506788,0.632265,-0.570838
1629376337797,-0.508313,0.63135,-0.57035
1629376337807,-0.506788,0.631472,-0.570228
1629376337817,-0.508435,0.62952,-0.570167
1629376337826,-0.508435,0.63135,-0.56974
1629376337836,-0.50752,0.630618,-0.571448
1629376337845,-0.506422,0.629154,-0.572668
1629376337855,-0.506483,0.628544,-0.573339
1629376337865,-0.506788,0.627141,-0.573522
1629376337874,-0.506788,0.626592,-0.573339
1629376337884,-0.505995,0.626775,-0.572607
1629376337893,-0.504897,0.626409,-0.5721189999999999
1629376337903,-0.503799,0.626958,-0.570838
1629376337913,-0.504592,0.627446,-0.5699839999999999
1629376337922,-0.504897,0.629093,-0.571448
1629376337932,-0.503921,0.631838,-0.571936
1629376337941,-0.50447,0.6317159999999999,-0.572607
1629376337951,-0.504287,0.63135,-0.571997
1629376337961,-0.505141,0.630801,-0.57096
1629376337970,-0.505263,0.632448,-0.569862
1629376337980,-0.505141,0.6341559999999999,-0.5699839999999999
1629376337989,-0.503189,0.633729,-0.570045
1629376337999,-0.50325,0.6344609999999999,-0.569557
1629376338009,-0.50203,0.6344,-0.567971
1629376338018,-0.50264,0.635559,-0.565775
1629376338028,-0.50142,0.63501,-0.564921
1629376338037,-0.5002,0.635559,-0.565531
1629376338047,-0.499895,0.635254,-0.567117
1629376338057,-0.499285,0.63379,-0.56791
1629376338066,-0.500932,0.633485,-0.57035
1629376338076,-0.499102,0.633302,-0.572546
1629376338085,-0.498492,0.632814,-0.571448
1629376338095,-0.498492,0.632082,-0.5712039999999999
1629376338105,-0.499285,0.6317159999999999,-0.571997
1629376338114,-0.499651,0.631228,-0.572302
1629376338124,-0.499712,0.633607,-0.572363
1629376338133,-0.499956,0.633424,-0.57218
1629376338143,-0.500688,0.634522,-0.574498
1629376338153,-0.504104,0.639219,-0.574315
1629376338162,-0.505873,0.645685,-0.58072
1629376338172,-0.50569,0.649162,-0.589382
1629376338181,-0.508374,0.651724,-0.590236
1629376338191,-0.507215,0.651419,-0.590907
1629376338201,-0.506971,0.653981,-0.5934079999999999
1629376338210,-0.503128,0.650382,-0.5879179999999999
1629376338220,-0.49916299999999997,0.648552,-0.580293
1629376338229,-0.494344,0.644587,-0.571326
1629376338239,-0.489464,0.635864,-0.56669
1629376338249,-0.48653599999999997,0.633485,-0.5620539999999999
1629376338258,-0.48678,0.6369009999999999,-0.5611389999999999
1629376338268,-0.48251,0.636108,-0.560041
1629376338277,-0.479765,0.636413,-0.5608339999999999
1629376338287,-0.47665399999999997,0.636962,-0.561871
1629376338297,-0.47665399999999997,0.639158,-0.560956
1629376338306,-0.47543399999999997,0.643672,-0.559492
1629376338316,-0.475312,0.645868,-0.554856
1629376338325,-0.47390899999999997,0.647088,-0.550464
1629376338335,-0.472201,0.646417,-0.547292
1629376338345,-0.471713,0.647271,-0.542717
1629376338354,-0.469883,0.64843,-0.540948
1629376338364,-0.468663,0.650504,-0.5416799999999999
1629376338373,-0.469029,0.649955,-0.538874
1629376338383,-0.471408,0.654164,-0.539972
1629376338393,-0.47275,0.656848,-0.5419849999999999
1629376338402,-0.470981,0.658556,-0.544242
1629376338412,-0.47397,0.662033,-0.547109
1629376338421,-0.473177,0.663192,-0.548817
1629376338431,-0.475678,0.665937,-0.547841
1629376338441,-0.478423,0.668987,-0.547414
1629376338450,-0.476166,0.670512,-0.548329
1629376338460,-0.476288,0.671549,-0.5480849999999999
1629376338469,-0.475556,0.672525,-0.550281
1629376338479,-0.47604399999999997,0.674477,-0.551806
1629376338489,-0.477691,0.676978,-0.556991
1629376338498,-0.477325,0.674782,-0.5611389999999999
1629376338508,-0.47824,0.673562,-0.563823
1629376338517,-0.481412,0.673928,-0.565653
1629376338527,-0.479216,0.671061,-0.565836
1629376338537,-0.47848399999999996,0.668682,-0.567483
1629376338546,-0.476166,0.665937,-0.567178
1629376338556,-0.475983,0.664717,-0.568703
1629376338565,-0.476471,0.665937,-0.57035
1629376338575,-0.4758,0.664351,-0.569252
1629376338585,-0.478728,0.667706,-0.569496
1629376338594,-0.478606,0.666303,-0.568886
1629376338604,-0.476288,0.665327,-0.570411
1629376338613,-0.474641,0.664412,-0.569435
1629376338623,-0.47543399999999997,0.668743,-0.569252
1629376338633,-0.476593,0.6691699999999999,-0.5681539999999999
1629376338642,-0.476593,0.670512,-0.56791
1629376338652,-0.475068,0.669109,-0.563701
1629376338661,-0.475617,0.668316,-0.56425
1629376338671,-0.476715,0.669292,-0.560712
1629376338681,-0.47397,0.668072,-0.561017
1629376338690,-0.473421,0.666059,-0.562725
1629376338700,-0.47238399999999997,0.663436,-0.560712
1629376338709,-0.47207899999999997,0.6642899999999999,-0.560773
1629376338719,-0.471713,0.667218,-0.5608339999999999
1629376338729,-0.474336,0.6697799999999999,-0.558882
1629376338738,-0.473787,0.668682,-0.556076
1629376338748,-0.473482,0.668316,-0.552965
1629376338757,-0.47397,0.670878,-0.55205
1629376338767,-0.47543399999999997,0.672891,-0.551989
1629376338777,-0.476166,0.674294,-0.555222
1629376338786,-0.474702,0.678564,-0.557845
1629376338796,-0.473116,0.676734,-0.556686
1629376338805,-0.468785,0.676307,-0.558699
1629376338815,-0.467565,0.6800889999999999,-0.558272
1629376338825,-0.467199,0.6819189999999999,-0.557357
1629376338834,-0.46433199999999997,0.68137,-0.55754
1629376338844,-0.46311199999999997,0.679357,-0.55937
1629376338853,-0.461221,0.678015,-0.559553
1629376338863,-0.464149,0.677283,-0.560712
1629376338873,-0.465979,0.679967,-0.553941
1629376338882,-0.469639,0.683566,-0.55205
1629376338892,-0.466223,0.678747,-0.548817
1629376338901,-0.463234,0.680821,-0.548695
1629376338911,-0.462136,0.68137,-0.545828
1629376338921,-0.45933,0.680211,-0.544547
1629376338930,-0.455853,0.677466,-0.544486
1629376338940,-0.45353499999999997,0.675514,-0.548207
1629376338949,-0.451339,0.674416,-0.546804
1629376338959,-0.454938,0.6794789999999999,-0.535763
1629376338969,-0.456646,0.6819189999999999,-0.530822
1629376338978,-0.451827,0.6797839999999999,-0.534299
1629376338988,-0.446764,0.672647,-0.535763
1629376338997,-0.446581,0.666364,-0.535275
1629376339007,-0.4453,0.665571,-0.537044
1629376339017,-0.445666,0.668926,-0.534299
1629376339026,-0.44743499999999997,0.67405,-0.528809
1629376339036,-0.451217,0.676429,-0.526003
1629376339045,-0.449692,0.68137,-0.53497
1629376339055,-0.456768,0.692533,-0.537288
1629376339065,-0.45292499999999997,0.692167,-0.539362
1629376339074,-0.453779,0.698877,-0.535763
1629376339084,-0.453901,0.703147,-0.5364949999999999
1629376339093,-0.44834999999999997,0.699548,-0.534604
1629376339103,-0.44652,0.696742,-0.538874
1629376339113,-0.449204,0.696803,-0.5483899999999999
1629376339122,-0.449936,0.697169,-0.553026
1629376339132,-0.449387,0.6954,-0.552538
1629376339141,-0.451644,0.699304,-0.557052
1629376339151,-0.444751,0.698938,-0.5611389999999999
1629376339161,-0.447862,0.695766,-0.562298
1629376339170,-0.44743499999999997,0.706624,-0.560041
1629376339180,-0.446764,0.707356,-0.559858
1629376339189,-0.44865499999999997,0.713822,-0.55266
1629376339199,-0.445422,0.7137,-0.5480849999999999
1629376339209,-0.442555,0.709064,-0.547353
1629376339218,-0.439505,0.706624,-0.547841
1629376339228,-0.438224,0.704184,-0.551196
1629376339237,-0.43676,0.700463,-0.555527
1629376339247,-0.432978,0.696681,-0.562298
1629376339257,-0.429989,0.693082,-0.56486
1629376339266,-0.427915,0.683078,-0.560956
1629376339276,-0.425109,0.666852,-0.546987
1629376339285,-0.422181,0.648735,-0.529541
1629376339295,-0.425597,0.655506,-0.512888
1629376339305,-0.437736,0.6810039999999999,-0.507032
1629376339314,-0.441762,0.696559,-0.507764
1629376339324,-0.43615,0.70333,-0.506544
1629376339333,-0.434503,0.7080879999999999,-0.510204
1629376339343,-0.44090799999999997,0.718092,-0.518134
1629376339353,-0.44347,0.722118,-0.525881
1629376339362,-0.442616,0.72102,-0.534177
1629376339372,-0.43755299999999997,0.714737,-0.538752
1629376339381,-0.433954,0.707722,-0.538874
1629376339391,-0.435784,0.705282,-0.535824
1629376339401,-0.432002,0.697596,-0.521855
1629376339410,-0.430233,0.6935089999999999,-0.512827
1629376339420,-0.428159,0.694912,-0.514718
1629376339429,-0.429013,0.699243,-0.523624
1629376339439,-0.432307,0.70455,-0.531005
1629376339449,-0.434564,0.7090029999999999,-0.5410699999999999
1629376339458,-0.433649,0.706502,-0.5474749999999999
1629376339468,-0.431697,0.69662,-0.551562
1629376339477,-0.42950099999999997,0.690093,-0.55449
1629376339487,-0.42950099999999997,0.687531,-0.555527
1629376339497,-0.429379,0.686555,-0.555161
1629376339506,-0.429135,0.684847,-0.552965
1629376339516,-0.432734,0.684176,-0.548268
1629376339525,-0.435662,0.685518,-0.548695
1629376339535,-0.439505,0.682956,-0.548756
1629376339545,-0.44273799999999996,0.6852739999999999,-0.55449
1629376339554,-0.444934,0.6858839999999999,-0.558089
1629376339564,-0.44469,0.683505,-0.560163
1629376339573,-0.447618,0.686677,-0.559187
1629376339583,-0.451644,0.68869,-0.557357
1629376339593,-0.455243,0.693265,-0.555771
1629376339602,-0.458293,0.695583,-0.555954
1629376339612,-0.45945199999999997,0.698206,-0.55632
1629376339621,-0.463478,0.702293,-0.556076
1629376339631,-0.466223,0.7071729999999999,-0.556991
1629376339641,-0.46677199999999996,0.71004,-0.558943
1629376339650,-0.46665,0.713944,-0.560773
1629376339660,-0.466894,0.712419,-0.558394
1629376339669,-0.46421,0.7117479999999999,-0.557723
1629376339679,-0.46067199999999997,0.70699,-0.556686
1629376339689,-0.459696,0.705282,-0.553819
1629376339698,-0.46128199999999997,0.70089,-0.55083
1629376339708,-0.46097699999999997,0.697779,-0.549427
1629376339717,-0.46189199999999997,0.697596,-0.5471699999999999
1629376339727,-0.460916,0.697291,-0.545889
1629376339737,-0.460184,0.697657,-0.544242
1629376339746,-0.457439,0.694973,-0.539789
1629376339756,-0.455731,0.6907639999999999,-0.5386299999999999
1629376339765,-0.454572,0.6901539999999999,-0.537776
1629376339775,-0.454328,0.690581,-0.536556
1629376339785,-0.457988,0.691862,-0.533567
1629376339794,-0.458354,0.6904589999999999,-0.531493
1629376339804,-0.459391,0.6913739999999999,-0.528748
1629376339813,-0.46128199999999997,0.696132,-0.528748
1629376339823,-0.46280699999999997,0.69601,-0.528626
1629376339833,-0.463966,0.70211,-0.527894
1629376339842,-0.467016,0.712175,-0.529114
1629376339852,-0.467504,0.7147979999999999,-0.52765
1629376339861,-0.467565,0.716384,-0.526674
1629376339871,-0.46646699999999996,0.7169329999999999,-0.526857
1629376339881,-0.466223,0.718336,-0.523502
1629376339890,-0.463173,0.716567,-0.521672
1629376339900,-0.462746,0.715286,-0.516548
1629376339909,-0.460001,0.718885,-0.511546
1629376339919,-0.458476,0.716872,-0.506971
1629376339929,-0.456951,0.7178479999999999,-0.504958
1629376339938,-0.4575,0.720105,-0.503616
1629376339948,-0.457927,0.72102,-0.502152
1629376339957,-0.456768,0.723094,-0.503738
1629376339967,-0.453901,0.719312,-0.505141
1629376339977,-0.451888,0.716994,-0.502213
1629376339986,-0.447557,0.713822,-0.49946799999999997
1629376339996,-0.447984,0.7135779999999999,-0.498736
1629376340005,-0.444446,0.7080879999999999,-0.497821
1629376340015,-0.44212799999999997,0.710772,-0.499407
1629376340025,-0.44042,0.711931,-0.5002
1629376340034,-0.43859,0.711077,-0.50081
1629376340044,-0.437492,0.7126629999999999,-0.501603
1629376340053,-0.437675,0.714066,-0.501176
1629376340063,-0.435845,0.713822,-0.502274
1629376340073,-0.43541799999999997,0.7120529999999999,-0.501664
1629376340082,-0.435662,0.709552,-0.501298
1629376340092,-0.434808,0.709796,-0.501481
1629376340101,-0.434076,0.71248,-0.501908
1629376340111,-0.433039,0.70638,-0.503067
1629376340121,-0.434808,0.70699,-0.50386
1629376340130,-0.438224,0.709735,-0.504714
1629376340140,-0.441945,0.7126629999999999,-0.504409
1629376340149,-0.442921,0.710955,-0.504836
1629376340159,-0.4453,0.713822,-0.509472
1629376340169,-0.444141,0.71004,-0.512705
1629376340178,-0.443165,0.706624,-0.513559
1629376340188,-0.446093,0.707539,-0.515389
1629376340197,-0.44834999999999997,0.705221,-0.517707
1629376340207,-0.44804499999999997,0.702171,-0.520818
1629376340217,-0.449753,0.70699,-0.5246
1629376340226,-0.449204,0.704855,-0.52582
1629376340236,-0.451644,0.7038179999999999,-0.525332
1629376340245,-0.454694,0.707051,-0.524478
1629376340255,-0.45261999999999997,0.706807,-0.527345
1629376340265,-0.454633,0.71004,-0.526003
1629376340274,-0.45414499999999997,0.712785,-0.52826
1629376340284,-0.454389,0.711992,-0.528077
1629376340293,-0.453962,0.710284,-0.529846
1629376340303,-0.454877,0.70943,-0.532286
1629376340313,-0.456219,0.710711,-0.531615
1629376340322,-0.457317,0.708576,-0.531615
1629376340332,-0.455853,0.7090029999999999,-0.531676
1629376340341,-0.4575,0.706075,-0.529907
1629376340351,-0.457256,0.7047329999999999,-0.529053
1629376340361,-0.456524,0.699243,-0.524478
1629376340370,-0.456219,0.698084,-0.523929
1629376340380,-0.455914,0.695766,-0.523929
1629376340389,-0.458964,0.702598,-0.526552
1629376340399,-0.459818,0.701866,-0.525942
1629376340409,-0.45994,0.697108,-0.523563
1629376340418,-0.458232,0.6932039999999999,-0.5200859999999999
1629376340428,-0.458232,0.691252,-0.5176459999999999
1629376340437,-0.460428,0.6935089999999999,-0.518134
1629376340447,-0.462319,0.693143,-0.519232
1629376340457,-0.461221,0.6883239999999999,-0.5200859999999999
1629376340466,-0.464759,0.686982,-0.518439
1629376340476,-0.46799199999999996,0.686067,-0.5176459999999999
1629376340485,-0.47092,0.687836,-0.518744
1629376340495,-0.472567,0.686738,-0.522099
1629376340505,-0.475251,0.684176,-0.524539
1629376340514,-0.478667,0.682163,-0.52826
1629376340524,-0.48007,0.680272,-0.532347
1629376340533,-0.482937,0.681431,-0.536068
1629376340543,-0.48440099999999997,0.680882,-0.5401549999999999
1629376340553,-0.48617,0.677527,-0.537227
1629376340562,-0.488854,0.674355,-0.536434
1629376340572,-0.490013,0.673074,-0.537044
1629376340581,-0.490745,0.67161,-0.536434
1629376340591,-0.490684,0.669658,-0.535397
1629376340601,-0.490745,0.667706,-0.536617
1629376340610,-0.49324599999999996,0.666608,-0.538996
1629376340620,-0.49458799999999997,0.6627649999999999,-0.539179
1629376340629,-0.49611299999999997,0.6575799999999999,-0.536922
1629376340639,-0.497821,0.653737,-0.539057
1629376340649,-0.499834,0.651419,-0.540643
1629376340658,-0.502945,0.649589,-0.542778
1629376340668,-0.501786,0.64599,-0.5450349999999999
1629376340677,-0.501359,0.647576,-0.5465599999999999
1629376340687,-0.504165,0.647576,-0.550708
1629376340697,-0.505568,0.651663,-0.557418
1629376340706,-0.506788,0.65209,-0.55998
1629376340716,-0.508191,0.653798,-0.5626639999999999
1629376340725,-0.507764,0.653981,-0.561261
1629376340735,-0.508008,0.654896,-0.557662
1629376340745,-0.509411,0.6569699999999999,-0.556259
1629376340754,-0.508374,0.659959,-0.556564
1629376340764,-0.509655,0.661789,-0.553819
1629376340773,-0.508313,0.662826,-0.553758
1629376340783,-0.5063,0.662338,-0.552904
1629376340793,-0.504531,0.6618499999999999,-0.550708
1629376340802,-0.503433,0.662033,-0.547902
1629376340812,-0.501298,0.659593,-0.547353
1629376340821,-0.498675,0.660874,-0.547414
1629376340831,-0.496052,0.658068,-0.5477799999999999
1629376340841,-0.494527,0.656909,-0.546316
1629376340850,-0.493795,0.656238,-0.546743
1629376340860,-0.492209,0.6563599999999999,-0.545401
1629376340869,-0.491233,0.657153,-0.5459499999999999
1629376340879,-0.490623,0.657763,-0.546682
1629376340889,-0.492148,0.659288,-0.546621
1629376340898,-0.491477,0.659044,-0.547963
1629376340908,-0.491294,0.659837,-0.549549
1629376340917,-0.49166,0.658922,-0.551501
1629376340927,-0.492453,0.658739,-0.550952
1629376340937,-0.492514,0.658922,-0.551745
1629376340946,-0.49263599999999996,0.658251,-0.552172
1629376340956,-0.49263599999999996,0.657824,-0.553148
1629376340965,-0.491355,0.658007,-0.555954
1629376340975,-0.48989099999999997,0.6581899999999999,-0.559492
1629376340985,-0.48983,0.657153,-0.557235
1629376340994,-0.49019599999999997,0.655567,-0.555405
1629376341004,-0.489098,0.6554449999999999,-0.554185
1629376341013,-0.48989099999999997,0.654286,-0.555405
1629376341023,-0.488793,0.65392,-0.554368
1629376341033,-0.48922,0.653371,-0.554795
1629376341042,-0.488244,0.652822,-0.554734
1629376341052,-0.489708,0.651602,-0.552599
1629376341061,-0.490318,0.649711,-0.551928
1629376341071,-0.490562,0.650443,-0.552294
1629376341081,-0.490013,0.650138,-0.553819
1629376341090,-0.49111099999999996,0.649894,-0.55266
1629376341100,-0.492819,0.650565,-0.552904
1629376341109,-0.49227,0.649955,-0.5551
1629376341119,-0.49202599999999996,0.650931,-0.554368
1629376341129,-0.493429,0.650321,-0.555588
1629376341138,-0.49471,0.648064,-0.556686
1629376341148,-0.495991,0.648308,-0.557052
1629376341157,-0.49702799999999997,0.649894,-0.557967
1629376341167,-0.496967,0.651114,-0.561261
1629376341177,-0.49532,0.648308,-0.56303
1629376341186,-0.49519799999999997,0.647454,-0.5632739999999999
1629376341196,-0.496235,0.648125,-0.560102
1629376341205,-0.495442,0.64721,-0.558211
1629376341215,-0.496601,0.644099,-0.557052
1629376341225,-0.49733299999999997,0.642635,-0.554917
1629376341234,-0.498065,0.64172,-0.554429
1629376341244,-0.499224,0.64416,-0.554856
1629376341253,-0.501176,0.645258,-0.557235
1629376341263,-0.50264,0.647942,-0.55815
1629376341273,-0.503738,0.645929,-0.559736
1629376341282,-0.505019,0.643672,-0.5626639999999999
1629376341292,-0.506056,0.643428,-0.563457
1629376341301,-0.506422,0.641354,-0.56425
1629376341311,-0.505446,0.639768,-0.566385
1629376341321,-0.506727,0.6381209999999999,-0.56547
1629376341330,-0.506727,0.637999,-0.56547
1629376341340,-0.505629,0.635864,-0.565592
1629376341349,-0.504165,0.633058,-0.563945
1629376341359,-0.505202,0.632143,-0.564433
1629376341369,-0.504409,0.6329359999999999,-0.562725
1629376341378,-0.505812,0.633485,-0.561993
1629376341388,-0.505019,0.634522,-0.562298
1629376341397,-0.5063,0.635437,-0.5611389999999999
1629376341407,-0.506117,0.636352,-0.5608339999999999
1629376341417,-0.506605,0.6393409999999999,-0.560651
1629376341426,-0.508008,0.639097,-0.560468
1629376341436,-0.508496,0.639707,-0.560407
1629376341445,-0.508496,0.640622,-0.5611389999999999
1629376341455,-0.50813,0.6402559999999999,-0.560041
1629376341465,-0.507276,0.640378,-0.560041
1629376341474,-0.507154,0.6411709999999999,-0.558882
1629376341484,-0.505934,0.6414759999999999,-0.560468
1629376341493,-0.504714,0.640988,-0.561383
1629376341503,-0.503738,0.638975,-0.561932
1629376341513,-0.50325,0.638304,-0.561871
1629376341522,-0.504104,0.638853,-0.5614439999999999
1629376341532,-0.503921,0.637633,-0.56242
1629376341541,-0.503555,0.636474,-0.563335
1629376341551,-0.50325,0.635254,-0.564555
1629376341561,-0.502823,0.634339,-0.566873
1629376341570,-0.501054,0.6329359999999999,-0.567727
1629376341580,-0.501298,0.632082,-0.5684589999999999
1629376341589,-0.50203,0.631228,-0.5693739999999999
1629376341599,-0.501298,0.630435,-0.5718139999999999
1629376341609,-0.503189,0.630618,-0.572668
1629376341618,-0.504348,0.6317159999999999,-0.573339
1629376341628,-0.50386,0.632448,-0.57462
1629376341637,-0.505568,0.632448,-0.57523
1629376341647,-0.505202,0.6323259999999999,-0.57584
1629376341657,-0.505629,0.632082,-0.575718
1629376341666,-0.506422,0.632692,-0.57462
1629376341676,-0.505385,0.63318,-0.573278
1629376341685,-0.505324,0.633607,-0.572302
1629376341695,-0.505568,0.634339,-0.5705939999999999
1629376341705,-0.505568,0.635925,-0.571448
1629376341714,-0.50508,0.6344609999999999,-0.5693739999999999
1629376341724,-0.505751,0.633058,-0.569252
1629376341733,-0.504958,0.6323259999999999,-0.567056
1629376341743,-0.504287,0.632814,-0.5673
1629376341753,-0.504897,0.632082,-0.566263
1629376341762,-0.504958,0.630862,-0.5663239999999999
1629376341772,-0.504897,0.630069,-0.566202
1629376341781,-0.504226,0.630374,-0.565348
1629376341791,-0.503982,0.62952,-0.565836
1629376341801,-0.503555,0.629337,-0.565775
1629376341810,-0.501969,0.627812,-0.566507
1629376341820,-0.501176,0.627934,-0.5675439999999999
1629376341829,-0.502945,0.628544,-0.568886
1629376341839,-0.503555,0.629276,-0.57035
1629376341849,-0.503738,0.629215,-0.571448
1629376341858,-0.504836,0.630557,-0.5718139999999999
1629376341868,-0.505995,0.630313,-0.571692
1629376341877,-0.506361,0.632448,-0.570716
1629376341887,-0.507398,0.632204,-0.570472
1629376341897,-0.508435,0.633058,-0.569435
1629376341906,-0.509228,0.632692,-0.569496
1629376341916,-0.509655,0.633912,-0.569496
1629376341925,-0.509533,0.633485,-0.568581
1629376341935,-0.507642,0.631899,-0.570716
1629376341945,-0.50752,0.631167,-0.57096
1629376341954,-0.507032,0.631777,-0.571387
1629376341964,-0.506666,0.630923,-0.570106
1629376341973,-0.506483,0.629581,-0.568886
1629376341983,-0.506544,0.62769,-0.568032
1629376341993,-0.507764,0.629764,-0.568642
1629376342002,-0.507886,0.632265,-0.569252
1629376342012,-0.508008,0.633302,-0.5684589999999999
1629376342021,-0.508923,0.635193,-0.567971
1629376342031,-0.508679,0.636352,-0.56852
1629376342041,-0.508191,0.636169,-0.568398
1629376342050,-0.508435,0.636352,-0.568337
1629376342060,-0.509655,0.6347659999999999,-0.568398
1629376342069,-0.511363,0.6344,-0.567605
1629376342079,-0.50996,0.63379,-0.5681539999999999
1629376342089,-0.506971,0.63257,-0.567727
1629376342098,-0.504348,0.630435,-0.569008
1629376342108,-0.50386,0.629703,-0.569923
1629376342117,-0.502518,0.628666,-0.571631
1629376342127,-0.50203,0.629703,-0.5724239999999999
1629376342137,-0.502274,0.630557,-0.57279
1629376342146,-0.501481,0.63013,-0.572363
1629376342156,-0.501054,0.628361,-0.572302
1629376342165,-0.502152,0.628788,-0.573156
1629376342175,-0.502396,0.63013,-0.572058
1629376342185,-0.501664,0.630374,-0.571936
1629376342194,-0.502152,0.630557,-0.571631
1629376342204,-0.501786,0.631106,-0.5702889999999999
1629376342213,-0.502762,0.631167,-0.569557
1629376342223,-0.502701,0.632082,-0.570106
1629376342233,-0.502762,0.6326309999999999,-0.569313
1629376342242,-0.502762,0.633302,-0.568947
1629376342252,-0.501969,0.632814,-0.568276
1629376342261,-0.503128,0.633058,-0.566263
1629376342271,-0.50325,0.633058,-0.564555
1629376342281,-0.503128,0.634644,-0.5638839999999999
1629376342290,-0.503494,0.634522,-0.56425
1629376342300,-0.504531,0.634278,-0.563213
1629376342309,-0.504226,0.634278,-0.563762
1629376342319,-0.504104,0.6347659999999999,-0.564616
1629376342329,-0.504714,0.634644,-0.565287
1629376342338,-0.504775,0.634705,-0.566507
1629376342348,-0.50508,0.6341559999999999,-0.565958
1629376342357,-0.505812,0.635132,-0.56669
1629376342367,-0.50569,0.6350709999999999,-0.5678489999999999
1629376342377,-0.505812,0.635254,-0.56852
1629376342386,-0.504653,0.635254,-0.568825
1629376342396,-0.505568,0.633912,-0.568886
1629376342405,-0.504958,0.634827,-0.5681539999999999
1629376342415,-0.50447,0.634278,-0.5684589999999999
1629376342425,-0.505446,0.633912,-0.568398
1629376342434,-0.505263,0.633424,-0.568825
1629376342444,-0.505263,0.630984,-0.5699839999999999
1629376342453,-0.505812,0.629032,-0.569801
1629376342463,-0.506544,0.626836,-0.56974
1629376342473,-0.506239,0.627934,-0.571875
1629376342482,-0.5063,0.628666,-0.571692
1629376342492,-0.505507,0.628666,-0.571936
1629376342501,-0.505019,0.628178,-0.571326
1629376342511,-0.505629,0.629154,-0.571875
1629376342521,-0.504836,0.629642,-0.573522
1629376342530,-0.504226,0.629581,-0.572485
1629376342540,-0.505568,0.630923,-0.571875
1629376342549,-0.505385,0.631228,-0.5721189999999999
1629376342559,-0.505446,0.632143,-0.5712039999999999
1629376342569,-0.50508,0.631655,-0.57096
1629376342578,-0.505202,0.630313,-0.570411
1629376342588,-0.505324,0.631106,-0.571021
1629376342597,-0.504653,0.629886,-0.571143
1629376342607,-0.503555,0.630313,-0.571143
1629376342617,-0.504714,0.630252,-0.570716
1629376342626,-0.504104,0.630557,-0.571631
1629376342636,-0.50447,0.630252,-0.571448
1629376342645,-0.50447,0.630252,-0.56974
1629376342655,-0.504104,0.630984,-0.568947
1629376342665,-0.504165,0.629825,-0.569618
1629376342674,-0.503311,0.630313,-0.568642
1629376342684,-0.503433,0.630191,-0.5699839999999999
1629376342693,-0.504409,0.630862,-0.570167
1629376342703,-0.504531,0.632082,-0.5693739999999999
1629376342713,-0.504226,0.632265,-0.569618
1629376342722,-0.504714,0.631838,-0.568642
1629376342732,-0.505629,0.6317159999999999,-0.569252
1629376342741,-0.504409,0.630618,-0.569862
1629376342751,-0.505202,0.629093,-0.569801
1629376342761,-0.50325,0.629032,-0.5702889999999999
1629376342770,-0.504104,0.628971,-0.5721189999999999
1629376342780,-0.504531,0.629215,-0.572912
1629376342789,-0.505263,0.630557,-0.573034
1629376342799,-0.506056,0.631106,-0.572851
1629376342809,-0.506544,0.631106,-0.5718139999999999
1629376342818,-0.507215,0.628788,-0.569557
1629376342828,-0.507154,0.627568,-0.5675439999999999
1629376342837,-0.508374,0.629154,-0.567422
1629376342847,-0.508557,0.629886,-0.568398
1629376342857,-0.510204,0.629703,-0.568642
1629376342866,-0.509594,0.630801,-0.5699839999999999
1629376342876,-0.509411,0.630557,-0.571448
1629376342885,-0.508374,0.63013,-0.57279
1629376342895,-0.508923,0.630313,-0.572851
1629376342905,-0.508862,0.629764,-0.57096
1629376342914,-0.510875,0.627934,-0.5681539999999999
1629376342924,-0.510936,0.627385,-0.568825
1629376342933,-0.510448,0.626287,-0.569618
1629376342943,-0.511363,0.625921,-0.571021
1629376342953,-0.511363,0.626653,-0.57157
1629376342962,-0.511668,0.626043,-0.573522
1629376342972,-0.511912,0.626714,-0.573827
1629376342981,-0.512522,0.625921,-0.574681
1629376342991,-0.513437,0.623359,-0.574864
1629376343001,-0.514413,0.622566,-0.575657
1629376343010,-0.515267,0.622017,-0.574986
1629376343020,-0.514352,0.622017,-0.576999
1629376343029,-0.514474,0.621712,-0.576206
1629376343039,-0.514108,0.622261,-0.574925
1629376343049,-0.513254,0.621773,-0.576206
1629376343058,-0.5127659999999999,0.623542,-0.576389
1629376343068,-0.513254,0.623359,-0.576023
1629376343077,-0.513742,0.62281,-0.575596
1629376343087,-0.5130709999999999,0.622993,-0.57523
1629376343097,-0.511546,0.62281,-0.574559
1629376343106,-0.510448,0.619821,-0.573522
1629376343116,-0.50935,0.618479,-0.571753
1629376343125,-0.508191,0.61915,-0.57035
1629376343135,-0.508069,0.619028,-0.56913
1629376343145,-0.507825,0.618174,-0.569252
1629376343154,-0.506544,0.6168319999999999,-0.570045
1629376343164,-0.506971,0.6161,-0.569801
1629376343173,-0.50691,0.616039,-0.571692
1629376343183,-0.505873,0.6156119999999999,-0.573766
1629376343193,-0.506666,0.61427,-0.574071
1629376343202,-0.50752,0.616161,-0.575779
1629376343212,-0.508008,0.615978,-0.577426
1629376343221,-0.510021,0.617503,-0.577914
1629376343231,-0.512034,0.618784,-0.5795
1629376343241,-0.513193,0.620065,-0.581513
1629376343250,-0.51423,0.620675,-0.583038
1629376343260,-0.5158159999999999,0.622871,-0.584319
1629376343269,-0.517097,0.623908,-0.5866979999999999
1629376343279,-0.517158,0.624274,-0.5870029999999999
1629376343289,-0.516304,0.624213,-0.5873079999999999
1629376343298,-0.516487,0.625555,-0.585722
1629376343308,-0.515328,0.624213,-0.5839529999999999
1629376343317,-0.514474,0.624335,-0.581574
1629376343327,-0.5130709999999999,0.623481,-0.579256
1629376343337,-0.511485,0.622749,-0.576877
1629376343346,-0.510692,0.621895,-0.574559
1629376343356,-0.509899,0.621712,-0.573034
1629376343365,-0.510021,0.620126,-0.572363
1629376343375,-0.509533,0.620126,-0.572485
1629376343385,-0.509167,0.6189669999999999,-0.572668
1629376343394,-0.509289,0.619516,-0.573217
1629376343404,-0.510509,0.619638,-0.57401
1629376343413,-0.511546,0.620858,-0.574254
1629376343423,-0.511424,0.6204919999999999,-0.575108
1629376343433,-0.511058,0.621712,-0.573461
1629376343442,-0.512339,0.621895,-0.572607
1629376343452,-0.512034,0.621712,-0.573522
1629376343461,-0.512217,0.621529,-0.57218
1629376343471,-0.512156,0.620858,-0.57096
1629376343481,-0.5124,0.620675,-0.56974
1629376343490,-0.5133759999999999,0.621163,-0.569496
1629376343500,-0.514535,0.621529,-0.5693739999999999
1629376343509,-0.514413,0.620065,-0.570472
1629376343519,-0.513559,0.620858,-0.569862
1629376343529,-0.5136809999999999,0.6211019999999999,-0.56913
1629376343538,-0.5145959999999999,0.6201869999999999,-0.568886
1629376343548,-0.514108,0.618784,-0.567605
1629376343557,-0.515084,0.619455,-0.568093
1629376343567,-0.515938,0.618235,-0.567971
1629376343577,-0.5158159999999999,0.6192719999999999,-0.56913
1629376343586,-0.5164259999999999,0.620248,-0.56974
1629376343596,-0.518134,0.619516,-0.57035
1629376343605,-0.518744,0.619211,-0.5712039999999999
1629376343615,-0.51972,0.619211,-0.572546
1629376343625,-0.519598,0.619638,-0.573949
1629376343634,-0.5194759999999999,0.618235,-0.574986
1629376343644,-0.519598,0.618235,-0.574132
1629376343653,-0.520208,0.618418,-0.573583
1629376343663,-0.5206959999999999,0.619333,-0.572546
1629376343673,-0.520818,0.618418,-0.572546
1629376343682,-0.52155,0.618723,-0.571448
1629376343692,-0.520513,0.617991,-0.57157
1629376343701,-0.52094,0.6174419999999999,-0.570472
1629376343711,-0.521733,0.61671,-0.571631
1629376343721,-0.5213059999999999,0.6180519999999999,-0.572607
1629376343730,-0.5216109999999999,0.617625,-0.573644
1629376343740,-0.519598,0.61732,-0.574925
1629376343749,-0.51911,0.6165269999999999,-0.575413
1629376343759,-0.519903,0.618113,-0.574071
1629376343769,-0.520208,0.617381,-0.574803
1629376343778,-0.5197809999999999,0.615856,-0.573034
1629376343788,-0.5188659999999999,0.614636,-0.5718139999999999
1629376343797,-0.519598,0.615795,-0.571875
1629376343807,-0.519537,0.617686,-0.573034
1629376343817,-0.520147,0.618845,-0.5727289999999999
1629376343826,-0.5197809999999999,0.619638,-0.573949
1629376343836,-0.519293,0.618784,-0.57523
1629376343845,-0.518927,0.6183569999999999,-0.577182
1629376343855,-0.51789,0.617015,-0.579134
1629376343865,-0.518012,0.615124,-0.578158
1629376343874,-0.5179509999999999,0.6140869999999999,-0.577548
1629376343884,-0.515999,0.612928,-0.578585
1629376343893,-0.515633,0.612318,-0.579195
1629376343903,-0.515328,0.613233,-0.579317
1629376343913,-0.513437,0.61305,-0.580293
1629376343922,-0.5139859999999999,0.611525,-0.581147
1629376343932,-0.514413,0.6107319999999999,-0.582489
1629376343941,-0.514718,0.610976,-0.582733
1629376343951,-0.515389,0.611281,-0.583221
1629376343961,-0.515755,0.61061,-0.584319
1629376343970,-0.5161209999999999,0.610305,-0.583404
1629376343980,-0.517158,0.611464,-0.582367
1629376343989,-0.517524,0.612135,-0.581757
1629376343999,-0.5173409999999999,0.613233,-0.579622
1629376344009,-0.518012,0.614148,-0.578341
1629376344018,-0.519232,0.6150019999999999,-0.5795
1629376344028,-0.518744,0.61549,-0.578341
1629376344037,-0.5191709999999999,0.614758,-0.57889
1629376344047,-0.517463,0.612684,-0.577548
1629376344057,-0.5176459999999999,0.611708,-0.577487
1629376344066,-0.5173409999999999,0.612684,-0.576145
1629376344076,-0.518012,0.613111,-0.575779
1629376344085,-0.519659,0.614148,-0.574071
1629376344095,-0.51911,0.615063,-0.57401
1629376344105,-0.519903,0.6146969999999999,-0.573827
1629376344114,-0.51972,0.6140869999999999,-0.57523
1629376344124,-0.518439,0.61549,-0.577304
1629376344133,-0.51728,0.615124,-0.577792
1629376344143,-0.5185609999999999,0.61549,-0.577426
1629376344153,-0.5194759999999999,0.615673,-0.578036
1629376344162,-0.519415,0.614575,-0.577426
1629376344172,-0.519598,0.6153069999999999,-0.57767
1629376344181,-0.518378,0.615185,-0.578524
1629376344191,-0.518317,0.614209,-0.577914
1629376344201,-0.518317,0.615185,-0.576877
1629376344210,-0.51789,0.615185,-0.577548
1629376344220,-0.518378,0.614514,-0.576999
1629376344229,-0.518012,0.61427,-0.576694
1629376344239,-0.518439,0.614636,-0.57645
1629376344249,-0.5182559999999999,0.615063,-0.576389
1629376344258,-0.518195,0.6156119999999999,-0.575901
1629376344268,-0.518683,0.615856,-0.575535
1629376344277,-0.518805,0.615429,-0.575962
1629376344287,-0.5194759999999999,0.6146969999999999,-0.576694
1629376344297,-0.5185609999999999,0.614514,-0.577426
1629376344306,-0.518683,0.614026,-0.576633
1629376344316,-0.519964,0.613294,-0.576511
1629376344325,-0.5191709999999999,0.613355,-0.575718
1629376344335,-0.518195,0.613904,-0.575413
1629376344345,-0.519293,0.61488,-0.573583
1629376344354,-0.519049,0.614575,-0.573766
1629376344364,-0.519049,0.614636,-0.5734
1629376344373,-0.518805,0.6153069999999999,-0.573156
1629376344383,-0.5188659999999999,0.614941,-0.572973
1629376344393,-0.518439,0.614209,-0.573278
1629376344402,-0.51911,0.614148,-0.573827
1629376344412,-0.519415,0.61427,-0.573827
1629376344421,-0.520025,0.6143919999999999,-0.574437
1629376344431,-0.520208,0.61366,-0.573766
1629376344441,-0.5194759999999999,0.6131719999999999,-0.574132
1629376344450,-0.520818,0.614331,-0.575047
1629376344460,-0.520879,0.613843,-0.574681
1629376344469,-0.520147,0.614026,-0.575901
1629376344479,-0.52033,0.614575,-0.576023
1629376344489,-0.520635,0.61427,-0.575291
1629376344498,-0.520452,0.61427,-0.575718
1629376344508,-0.521123,0.614636,-0.576145
1629376344517,-0.5206959999999999,0.6143919999999999,-0.576999
1629376344527,-0.521367,0.6156119999999999,-0.576694
1629376344537,-0.519537,0.6143919999999999,-0.577609
1629376344546,-0.518012,0.612623,-0.578585
1629376344556,-0.517585,0.611464,-0.578768
1629376344565,-0.5176459999999999,0.612684,-0.579988
1629376344575,-0.518622,0.613721,-0.581818
1629376344585,-0.51789,0.614758,-0.584441
1629376344594,-0.5185,0.616039,-0.5839529999999999
1629376344604,-0.519232,0.616649,-0.584136
1629376344613,-0.5191709999999999,0.61671,-0.582245
1629376344623,-0.518744,0.615856,-0.581574
1629376344633,-0.517463,0.614453,-0.57889
1629376344642,-0.5170359999999999,0.613721,-0.577182
1629376344652,-0.517158,0.613538,-0.575779
1629376344661,-0.5179509999999999,0.613843,-0.575291
1629376344671,-0.518439,0.61427,-0.575169
1629376344681,-0.518439,0.614758,-0.575901
1629376344690,-0.5185609999999999,0.614758,-0.576023
1629376344700,-0.517829,0.61549,-0.575962
1629376344709,-0.51972,0.616466,-0.574742
1629376344719,-0.520269,0.613904,-0.5718139999999999
1629376344729,-0.52094,0.613904,-0.569557
1629376344738,-0.521184,0.616466,-0.568642
1629376344748,-0.521977,0.617686,-0.56791
1629376344757,-0.522465,0.619394,-0.5696789999999999
1629376344767,-0.522099,0.6195769999999999,-0.5705939999999999
1629376344777,-0.521672,0.618845,-0.571631
1629376344786,-0.5216109999999999,0.61915,-0.5715089999999999
1629376344796,-0.521733,0.617991,-0.571448
1629376344805,-0.52094,0.616649,-0.5705939999999999
1629376344815,-0.520452,0.61488,-0.569435
1629376344825,-0.5185,0.613111,-0.568947
1629376344834,-0.5182559999999999,0.61183,-0.569618
1629376344844,-0.516914,0.613355,-0.571448
1629376344853,-0.517097,0.613721,-0.5724239999999999
1629376344863,-0.516243,0.614148,-0.5724239999999999
1629376344873,-0.515633,0.614575,-0.57279
1629376344882,-0.51545,0.614636,-0.572851
1629376344892,-0.516914,0.617991,-0.568581
1629376344901,-0.5185609999999999,0.619211,-0.562603
1629376344911,-0.519964,0.616893,-0.560163
1629376344921,-0.521123,0.618174,-0.561078
1629376344930,-0.52216,0.62098,-0.559614
1629376344940,-0.524356,0.62342,-0.558455
1629376344949,-0.525759,0.625372,-0.556991
1629376344959,-0.52765,0.625372,-0.554551
1629376344969,-0.528748,0.625982,-0.552233
1629376344978,-0.531615,0.622932,-0.550525
1629376344988,-0.53192,0.617564,-0.550281
1629376344997,-0.530883,0.609695,-0.551196
1629376345007,-0.529907,0.604998,-0.552782
1629376345017,-0.530334,0.601704,-0.555954
1629376345026,-0.530822,0.603046,-0.556564
1629376345036,-0.530639,0.606218,-0.555466
1629376345045,-0.533079,0.612745,-0.550342
1629376345055,-0.533262,0.6207969999999999,-0.544608
1629376345065,-0.536129,0.621956,-0.5410699999999999
1629376345074,-0.536129,0.617991,-0.5444249999999999
1629376345084,-0.535946,0.611525,-0.550281
1629376345093,-0.538813,0.602314,-0.5551
1629376345103,-0.541924,0.59536,-0.560468
1629376345113,-0.543327,0.588955,-0.5672389999999999
1629376345122,-0.547292,0.584502,-0.572668
1629376345132,-0.550037,0.58133,-0.576877
1629376345141,-0.552111,0.579683,-0.579683
1629376345151,-0.553392,0.578158,-0.581574
1629376345161,-0.555222,0.578646,-0.583038
1629376345170,-0.556625,0.577853,-0.583282
1629376345180,-0.557296,0.576084,-0.584075
1629376345189,-0.559431,0.572241,-0.587857
1629376345199,-0.560285,0.567117,-0.591822
1629376345209,-0.5632739999999999,0.5638839999999999,-0.593042
1629376345218,-0.565165,0.561261,-0.5952379999999999
1629376345228,-0.568215,0.559126,-0.596092
1629376345237,-0.569191,0.558028,-0.5978
1629376345247,-0.570716,0.557174,-0.597312
1629376345257,-0.573034,0.555466,-0.5961529999999999
1629376345266,-0.573461,0.554002,-0.597007
1629376345276,-0.574742,0.553209,-0.599691
1629376345285,-0.575901,0.555344,-0.602619
1629376345295,-0.577548,0.555771,-0.60451
1629376345305,-0.578646,0.557235,-0.605181
1629376345314,-0.58011,0.557845,-0.603229
1629376345324,-0.580049,0.557296,-0.60207
1629376345333,-0.580537,0.555954,-0.599081
1629376345343,-0.580171,0.555405,-0.596275
1629376345353,-0.579744,0.55388,-0.595726
1629376345362,-0.579073,0.551623,-0.597556
1629376345372,-0.57767,0.550037,-0.599325
1629376345381,-0.577304,0.548817,-0.601704
1629376345391,-0.576938,0.548817,-0.601399
1629376345401,-0.576694,0.5474749999999999,-0.600606
1629376345410,-0.574559,0.546133,-0.600728
1629376345420,-0.573278,0.545706,-0.600972
1629376345429,-0.572485,0.546499,-0.59963
1629376345439,-0.5712039999999999,0.547719,-0.598593
1629376345449,-0.5715089999999999,0.549427,-0.597617
1629376345458,-0.571692,0.551196,-0.59841
1629376345468,-0.570228,0.55083,-0.600179
1629376345477,-0.5705939999999999,0.551257,-0.601704
1629376345487,-0.568642,0.548695,-0.605974
1629376345497,-0.566812,0.548512,-0.605791
1629376345506,-0.567056,0.548329,-0.605059
1629376345516,-0.566751,0.547536,-0.604022
1629376345525,-0.5678489999999999,0.547841,-0.602924
1629376345535,-0.568947,0.547109,-0.599874
1629376345545,-0.569862,0.546743,-0.595299
1629376345554,-0.570228,0.55022,-0.593225
1629376345564,-0.5681539999999999,0.553392,-0.5940179999999999
1629376345573,-0.566263,0.554795,-0.595909
1629376345583,-0.565958,0.55632,-0.5978
1629376345593,-0.56547,0.557296,-0.600728
1629376345602,-0.5644939999999999,0.557418,-0.602375
1629376345612,-0.5638839999999999,0.55815,-0.601765
1629376345621,-0.563701,0.557906,-0.60085
1629376345631,-0.564067,0.556747,-0.598288
1629376345641,-0.563823,0.555344,-0.595604
1629376345650,-0.56425,0.555222,-0.593835
1629376345660,-0.5632739999999999,0.553819,-0.595482
1629376345669,-0.5638839999999999,0.553575,-0.596885
1629376345679,-0.564677,0.555283,-0.597373
1629376345689,-0.56364,0.556503,-0.596031
1629376345698,-0.5638839999999999,0.555893,-0.593164
1629376345708,-0.563213,0.556442,-0.589016
1629376345717,-0.564738,0.558455,-0.585417
1629376345727,-0.563518,0.560041,-0.583343
1629376345737,-0.5614439999999999,0.559736,-0.582794
1629376345746,-0.559492,0.55876,-0.584685
1629376345756,-0.557784,0.558028,-0.585295
1629376345765,-0.557601,0.557662,-0.583404
1629376345775,-0.555771,0.557113,-0.583709
1629376345785,-0.555954,0.556564,-0.583526
1629376345794,-0.555588,0.555832,-0.583404
1629376345804,-0.556015,0.556442,-0.58255
1629376345813,-0.556869,0.557296,-0.584441
1629376345823,-0.556442,0.557662,-0.585234
1629376345833,-0.557662,0.558699,-0.586149
1629376345842,-0.559187,0.560102,-0.5885279999999999
1629376345852,-0.560285,0.559065,-0.58987
1629376345861,-0.5608339999999999,0.559065,-0.5915779999999999
1629376345871,-0.5626639999999999,0.55693,-0.594262
1629376345881,-0.5641889999999999,0.555954,-0.59475
1629376345890,-0.5644939999999999,0.555161,-0.595116
1629376345900,-0.566385,0.555405,-0.594506
1629376345909,-0.568825,0.557479,-0.591822
1629376345919,-0.569801,0.556991,-0.591151
1629376345929,-0.570716,0.555466,-0.591822
1629376345938,-0.5721189999999999,0.555954,-0.5940179999999999
1629376345948,-0.573217,0.555161,-0.5958479999999999
1629376345957,-0.5727289999999999,0.554368,-0.597617
1629376345967,-0.574681,0.553453,-0.599081
1629376345977,-0.573766,0.554612,-0.599142
1629376345986,-0.572546,0.55388,-0.598044
1629376345996,-0.5718139999999999,0.55327,-0.595177
1629376346005,-0.571936,0.554978,-0.5921879999999999
1629376346015,-0.57157,0.555832,-0.589931
1629376346025,-0.57218,0.556137,-0.588284
1629376346034,-0.5718139999999999,0.555405,-0.587186
1629376346044,-0.570411,0.554368,-0.587369
1629376346053,-0.569435,0.554795,-0.588894
1629376346063,-0.568825,0.553575,-0.5900529999999999
1629376346073,-0.569435,0.553453,-0.5906629999999999
1629376346082,-0.56974,0.553453,-0.591456
1629376346092,-0.569618,0.552355,-0.591761
1629376346101,-0.570777,0.552172,-0.591151
1629376346111,-0.571265,0.553575,-0.59109
1629376346121,-0.570838,0.555039,-0.591029
1629376346130,-0.570106,0.556076,-0.590175
1629376346140,-0.569923,0.557357,-0.589626
1629376346149,-0.570045,0.55693,-0.5903579999999999
1629376346159,-0.569435,0.556076,-0.589504
1629376346169,-0.569923,0.556259,-0.589687
1629376346178,-0.5690689999999999,0.55571,-0.589809
1629376346188,-0.569618,0.556625,-0.5897479999999999
1629376346197,-0.569862,0.555893,-0.588894
1629376346207,-0.56974,0.555771,-0.588284
1629376346217,-0.569801,0.55693,-0.5879179999999999
1629376346226,-0.5687639999999999,0.556564,-0.58499
1629376346236,-0.569191,0.556625,-0.5848679999999999
1629376346245,-0.568337,0.556137,-0.585661
1629376346255,-0.5675439999999999,0.556259,-0.586149
1629376346265,-0.567727,0.556198,-0.588345
1629376346274,-0.567422,0.555466,-0.589077
1629376346284,-0.567117,0.555344,-0.590602
1629376346293,-0.567361,0.555222,-0.592066
1629376346303,-0.567788,0.555222,-0.59231
1629376346313,-0.568093,0.555649,-0.5912729999999999
1629376346322,-0.5681539999999999,0.556442,-0.590236
1629376346332,-0.568215,0.556991,-0.589626
1629376346341,-0.5673,0.556747,-0.589504
1629376346351,-0.567727,0.555832,-0.589382
1629376346361,-0.567605,0.554429,-0.5894429999999999
1629376346370,-0.567117,0.554612,-0.590297
1629376346380,-0.567483,0.554124,-0.59109
1629376346389,-0.567666,0.554124,-0.5927979999999999
1629376346399,-0.567666,0.554856,-0.5931029999999999
1629376346409,-0.568276,0.554368,-0.593835
1629376346418,-0.56852,0.554551,-0.59353
1629376346428,-0.568642,0.554368,-0.593896
1629376346437,-0.568276,0.555344,-0.5918829999999999
1629376346447,-0.568276,0.556137,-0.591639
1629376346457,-0.568276,0.555954,-0.591517
1629376346466,-0.568398,0.554734,-0.591212
1629376346476,-0.568337,0.555344,-0.592066
1629376346485,-0.568398,0.554185,-0.59231
1629376346495,-0.567971,0.551684,-0.592981
1629376346505,-0.5669339999999999,0.551074,-0.593652
1629376346514,-0.56791,0.550464,-0.594811
1629376346524,-0.568825,0.550586,-0.59597
1629376346533,-0.568642,0.550281,-0.59597
1629376346543,-0.5681539999999999,0.551562,-0.5943229999999999
1629376346553,-0.569923,0.551684,-0.593042
1629376346562,-0.5699839999999999,0.552355,-0.592554
1629376346572,-0.56974,0.553026,-0.59292
1629376346581,-0.570106,0.55266,-0.592554
1629376346591,-0.568947,0.551379,-0.592432
1629376346601,-0.5693739999999999,0.552599,-0.592859
1629376346610,-0.5681539999999999,0.552477,-0.592127
1629376346620,-0.5693739999999999,0.551318,-0.591334
1629376346629,-0.569557,0.551074,-0.589321
1629376346639,-0.569557,0.549976,-0.588711
1629376346649,-0.569435,0.549976,-0.589504
1629376346658,-0.568825,0.549976,-0.5917
1629376346668,-0.568581,0.548634,-0.5940179999999999
1629376346677,-0.5675439999999999,0.549366,-0.59536
1629376346687,-0.568581,0.552172,-0.595604
1629376346697,-0.569618,0.553148,-0.594506
1629376346706,-0.569252,0.551989,-0.592615
1629376346716,-0.569618,0.550159,-0.588955
1629376346725,-0.569008,0.552843,-0.589382
1629376346735,-0.569618,0.55327,-0.5900529999999999
1629376346745,-0.5702889999999999,0.553026,-0.591334
1629376346754,-0.569618,0.552904,-0.593164
1629376346764,-0.5699839999999999,0.551989,-0.5946279999999999
1629376346773,-0.570045,0.552172,-0.595299
1629376346783,-0.56974,0.550281,-0.596031
1629376346793,-0.569252,0.550769,-0.596275
1629376346802,-0.5702889999999999,0.549854,-0.596092
1629376346812,-0.567788,0.549305,-0.5967629999999999
1629376346821,-0.566812,0.549183,-0.59475
1629376346831,-0.567605,0.549671,-0.594994
1629376346841,-0.567666,0.550342,-0.594262
1629376346850,-0.5672389999999999,0.550952,-0.5934079999999999
1629376346860,-0.5673,0.55205,-0.5937129999999999
1629376346869,-0.567666,0.552416,-0.59414
1629376346879,-0.567056,0.550952,-0.595421
1629376346889,-0.56608,0.550098,-0.596092
1629376346898,-0.566202,0.549427,-0.596702
1629376346908,-0.5669339999999999,0.548268,-0.596519
1629376346917,-0.567178,0.549549,-0.5970679999999999
1629376346927,-0.566751,0.549488,-0.596885
1629376346937,-0.5673,0.549793,-0.596702
1629376346946,-0.566263,0.550342,-0.596275
1629376346956,-0.567422,0.549915,-0.595787
1629376346965,-0.568032,0.550159,-0.595909
1629376346975,-0.567666,0.549976,-0.595299
1629376346985,-0.567117,0.549122,-0.595604
1629376346994,-0.56669,0.548329,-0.5946279999999999
1629376347004,-0.567056,0.548756,-0.593042
1629376347013,-0.567422,0.550281,-0.5921879999999999
1629376347023,-0.568032,0.551806,-0.591761
1629376347033,-0.56974,0.551074,-0.591456
1629376347042,-0.571143,0.548878,-0.590297
1629376347052,-0.570167,0.547292,-0.589931
1629376347061,-0.570533,0.5480849999999999,-0.591639
1629376347071,-0.5708989999999999,0.548634,-0.592432
1629376347081,-0.570045,0.549122,-0.594384
1629376347090,-0.5712039999999999,0.549793,-0.593286
1629376347100,-0.571326,0.549671,-0.593164
1629376347109,-0.572241,0.549427,-0.592981
1629376347119,-0.570716,0.548817,-0.593469
1629376347129,-0.569496,0.549,-0.593774
1629376347138,-0.570655,0.548268,-0.594384
1629376347148,-0.5705939999999999,0.547414,-0.594994
1629376347157,-0.571082,0.547841,-0.594384
1629376347167,-0.571753,0.547414,-0.5943229999999999
1629376347177,-0.571753,0.5468649999999999,-0.593957
1629376347186,-0.572668,0.548695,-0.593957
1629376347196,-0.57279,0.548268,-0.593835
1629376347205,-0.5734,0.547597,-0.59414
1629376347215,-0.573827,0.5477799999999999,-0.5940179999999999
1629376347225,-0.573888,0.5468649999999999,-0.594811
1629376347234,-0.57462,0.546316,-0.597739
1629376347244,-0.575901,0.545767,-0.597373
1629376347253,-0.577548,0.544364,-0.597617
1629376347263,-0.576328,0.543876,-0.599081
1629376347273,-0.576206,0.5428999999999999,-0.599386
1629376347282,-0.576633,0.5425949999999999,-0.599691
1629376347292,-0.576267,0.542229,-0.600057
1629376347301,-0.576572,0.541497,-0.599691
1629376347311,-0.576328,0.542107,-0.599508
1629376347321,-0.576267,0.5422899999999999,-0.598471
1629376347330,-0.57584,0.541863,-0.5961529999999999
1629376347340,-0.575474,0.541924,-0.594506
1629376347349,-0.574864,0.541009,-0.5949329999999999
1629376347359,-0.573583,0.541924,-0.594567
1629376347369,-0.572668,0.5425949999999999,-0.595116
1629376347378,-0.572363,0.540521,-0.5955429999999999
1629376347388,-0.572546,0.540094,-0.5958479999999999
1629376347397,-0.572485,0.5416799999999999,-0.596885
1629376347407,-0.572241,0.542046,-0.596885
1629376347417,-0.5718139999999999,0.541741,-0.5978
1629376347426,-0.57218,0.5425949999999999,-0.597312
1629376347436,-0.572912,0.5407649999999999,-0.597129
1629376347445,-0.572058,0.541619,-0.598715
1629376347455,-0.571265,0.5413749999999999,-0.599508
1629376347465,-0.571997,0.5416799999999999,-0.599935
1629376347474,-0.5718139999999999,0.540887,-0.601277
1629376347484,-0.57157,0.540826,-0.601216
1629376347493,-0.572058,0.541314,-0.602436
1629376347503,-0.5712039999999999,0.541741,-0.601948
1629376347513,-0.5712039999999999,0.541924,-0.601033
1629376347522,-0.570411,0.540033,-0.600545
1629376347532,-0.5712039999999999,0.5392399999999999,-0.600789
1629376347541,-0.570533,0.539972,-0.601277
1629376347551,-0.5702889999999999,0.539362,-0.601582
1629376347561,-0.570716,0.5392399999999999,-0.601826
1629376347570,-0.571448,0.539911,-0.601582
1629376347580,-0.572302,0.539606,-0.600301
1629376347589,-0.57279,0.540643,-0.600301
1629376347599,-0.572912,0.5404599999999999,-0.600789
1629376347609,-0.573278,0.541253,-0.600789
1629376347618,-0.573583,0.543083,-0.602192
1629376347628,-0.573095,0.542351,-0.601155
1629376347637,-0.573522,0.5432049999999999,-0.602314
1629376347647,-0.572973,0.542534,-0.599752
1629376347657,-0.574681,0.542656,-0.598349
1629376347666,-0.573522,0.542656,-0.5964579999999999
1629376347676,-0.573644,0.5398499999999999,-0.595482
1629376347685,-0.573339,0.5410699999999999,-0.594445
1629376347695,-0.57523,0.5438149999999999,-0.595177
1629376347705,-0.574864,0.543571,-0.596336
1629376347714,-0.574132,0.5444249999999999,-0.59658
1629376347724,-0.574986,0.543632,-0.598349
1629376347733,-0.57584,0.542961,-0.599264
1629376347743,-0.574681,0.542656,-0.60085
1629376347753,-0.575108,0.5416799999999999,-0.600972
1629376347762,-0.576328,0.540338,-0.599081
1629376347772,-0.575718,0.540216,-0.599142
1629376347781,-0.575962,0.540033,-0.597129
1629376347791,-0.57462,0.540826,-0.59658
1629376347801,-0.574559,0.540277,-0.595909
1629376347810,-0.574254,0.5404599999999999,-0.597007
1629376347820,-0.57462,0.540704,-0.597129
1629376347829,-0.573827,0.5398499999999999,-0.596641
1629376347839,-0.575291,0.540948,-0.597678
1629376347849,-0.575352,0.539789,-0.596946
1629376347858,-0.575535,0.539057,-0.597007
1629376347868,-0.575108,0.539606,-0.596092
1629376347877,-0.575474,0.540338,-0.596641
1629376347887,-0.576145,0.540216,-0.596214
1629376347897,-0.575718,0.541009,-0.597495
1629376347906,-0.574803,0.541314,-0.597922
1629376347916,-0.575718,0.541802,-0.598044
1629376347925,-0.575596,0.5416799999999999,-0.598288
1629376347935,-0.576572,0.541619,-0.59841
1629376347945,-0.57584,0.541619,-0.597373
1629376347954,-0.57523,0.540582,-0.595421
1629376347964,-0.575291,0.540277,-0.593835
1629376347973,-0.575169,0.542412,-0.5940179999999999
1629376347983,-0.57584,0.5419849999999999,-0.593896
1629376347993,-0.576389,0.541558,-0.594506
1629376348002,-0.576755,0.5422899999999999,-0.595726
1629376348012,-0.575352,0.542961,-0.59841
1629376348021,-0.576084,0.542961,-0.597678
1629376348031,-0.57462,0.541924,-0.59841
1629376348041,-0.575901,0.541436,-0.598898
1629376348050,-0.574925,0.542168,-0.599569
1629376348060,-0.575657,0.541924,-0.5978
1629376348069,-0.576328,0.541924,-0.596214
1629376348079,-0.576389,0.541558,-0.596092
1629376348089,-0.575962,0.5422899999999999,-0.595482
1629376348098,-0.575047,0.542046,-0.595299
1629376348108,-0.575169,0.542168,-0.59475
1629376348117,-0.575718,0.5428999999999999,-0.596031
1629376348127,-0.575413,0.5435099999999999,-0.595726
1629376348137,-0.574742,0.541863,-0.597556
1629376348146,-0.574742,0.541009,-0.59719
1629376348156,-0.57584,0.540643,-0.5964579999999999
1629376348165,-0.57523,0.540338,-0.596397
1629376348175,-0.575108,0.540399,-0.59719
1629376348185,-0.574803,0.539972,-0.5967629999999999
1629376348194,-0.575779,0.539911,-0.59719
1629376348204,-0.576206,0.541558,-0.597007
1629376348213,-0.57462,0.5410699999999999,-0.597556
1629376348223,-0.574254,0.5404599999999999,-0.597617
1629376348233,-0.57462,0.539667,-0.597922
1629376348242,-0.574681,0.538813,-0.597861
1629376348252,-0.574925,0.538386,-0.599325
1629376348261,-0.574986,0.539362,-0.599935
1629376348271,-0.574864,0.540094,-0.599935
1629376348281,-0.57401,0.539606,-0.598471
1629376348290,-0.574376,0.538752,-0.598837
1629376348300,-0.573827,0.538203,-0.598654
1629376348309,-0.573766,0.538874,-0.599264
1629376348319,-0.574254,0.538813,-0.59902
1629376348329,-0.574315,0.538691,-0.598532
1629376348338,-0.57401,0.538813,-0.596824
1629376348348,-0.574742,0.5386299999999999,-0.597007
1629376348357,-0.574559,0.537471,-0.596885
1629376348367,-0.574071,0.536129,-0.598654
1629376348377,-0.574193,0.5364949999999999,-0.599752
1629376348386,-0.574803,0.538447,-0.599264
1629376348396,-0.575718,0.539118,-0.597739
1629376348405,-0.575962,0.539667,-0.597129
1629376348415,-0.576572,0.539301,-0.596641
1629376348425,-0.576877,0.538569,-0.597861
1629376348434,-0.577182,0.537898,-0.598044
1629376348444,-0.576999,0.5389349999999999,-0.598471
1629376348453,-0.577975,0.5374099999999999,-0.599142
1629376348463,-0.577914,0.536373,-0.599691
1629376348473,-0.576694,0.536556,-0.601704
1629376348482,-0.577914,0.535885,-0.602314
1629376348492,-0.577914,0.535458,-0.602192
1629376348501,-0.577182,0.534482,-0.602802
1629376348511,-0.576938,0.533689,-0.6039
1629376348521,-0.576633,0.533628,-0.60512
1629376348530,-0.576877,0.533018,-0.605242
1629376348540,-0.577975,0.533506,-0.603839
1629376348549,-0.577121,0.532347,-0.604632
1629376348559,-0.576511,0.53192,-0.604144
1629376348569,-0.576267,0.530822,-0.604144
1629376348578,-0.576084,0.530578,-0.604022
1629376348588,-0.576877,0.530883,-0.603534
1629376348597,-0.576938,0.530883,-0.605303
1629376348607,-0.576206,0.530822,-0.605425
1629376348617,-0.576328,0.530456,-0.605974
1629376348626,-0.576206,0.53131,-0.607438
1629376348636,-0.576328,0.530883,-0.606279
1629376348645,-0.575413,0.528992,-0.604571
1629376348655,-0.575596,0.528504,-0.604388
1629376348665,-0.576206,0.5307,-0.604876
1629376348674,-0.576511,0.530395,-0.605608
1629376348684,-0.576023,0.530578,-0.606706
1629376348693,-0.576267,0.5307,-0.608109
1629376348703,-0.575596,0.531249,-0.608719
1629376348713,-0.575901,0.531066,-0.608841
1629376348722,-0.574925,0.529602,-0.6085969999999999
1629376348732,-0.575352,0.52643,-0.608719
1629376348741,-0.575108,0.525942,-0.608841
1629376348751,-0.575901,0.526979,-0.608719
1629376348761,-0.574925,0.526003,-0.610915
1629376348770,-0.57523,0.525698,-0.612074
1629376348780,-0.57401,0.525393,-0.613721
1629376348789,-0.573949,0.526186,-0.612989
1629376348799,-0.573705,0.524722,-0.6128669999999999
1629376348809,-0.574315,0.524844,-0.612074
1629376348818,-0.574498,0.523014,-0.613416
1629376348828,-0.575291,0.522892,-0.61366
1629376348837,-0.575291,0.5219159999999999,-0.613965
1629376348847,-0.575962,0.5213059999999999,-0.614209
1629376348857,-0.575352,0.5219159999999999,-0.614758
1629376348866,-0.575718,0.52155,-0.61488
1629376348876,-0.576755,0.521245,-0.6153069999999999
1629376348885,-0.577609,0.521672,-0.615673
1629376348895,-0.578158,0.520757,-0.616405
1629376348905,-0.577792,0.519415,-0.617259
1629376348914,-0.577548,0.519659,-0.6177469999999999
1629376348924,-0.577365,0.519232,-0.61793
1629376348933,-0.576938,0.5185,-0.615124
1629376348943,-0.576877,0.518744,-0.612318
1629376348953,-0.576511,0.520757,-0.611586
1629376348962,-0.576816,0.5210009999999999,-0.610671
1629376348972,-0.577487,0.520513,-0.61
1629376348981,-0.579195,0.52033,-0.610244
1629376348991,-0.578768,0.521367,-0.61
1629376349001,-0.579378,0.523258,-0.6095119999999999
1629376349010,-0.579988,0.523502,-0.610488
1629376349020,-0.5795,0.523563,-0.610244
1629376349029,-0.580293,0.523868,-0.609573
1629376349039,-0.580659,0.523563,-0.6107319999999999
1629376349049,-0.579988,0.521977,-0.611769
1629376349058,-0.578768,0.5213059999999999,-0.612196
1629376349068,-0.579744,0.520757,-0.613355
1629376349077,-0.578951,0.5210009999999999,-0.61366
1629376349087,-0.579988,0.520452,-0.61427
1629376349097,-0.578463,0.520147,-0.6150019999999999
1629376349106,-0.57889,0.51972,-0.616161
1629376349116,-0.57889,0.520208,-0.6168319999999999
1629376349125,-0.578707,0.520879,-0.617381
1629376349135,-0.577731,0.520879,-0.616039
1629376349145,-0.578524,0.52094,-0.6153069999999999
1629376349154,-0.578097,0.520574,-0.615246
1629376349164,-0.577487,0.52094,-0.613721
1629376349173,-0.576999,0.520208,-0.61366
1629376349183,-0.576694,0.52033,-0.612684
1629376349193,-0.575901,0.519964,-0.612684
1629376349202,-0.576023,0.5203909999999999,-0.612989
1629376349212,-0.57645,0.518988,-0.613294
1629376349221,-0.575901,0.518988,-0.613721
1629376349231,-0.576938,0.52033,-0.614819
1629376349241,-0.576694,0.520208,-0.615795
1629376349250,-0.577121,0.5185,-0.617808
1629376349260,-0.57584,0.517463,-0.62037
1629376349269,-0.574803,0.515938,-0.622444
1629376349279,-0.572912,0.517158,-0.622139
1629376349289,-0.572912,0.518744,-0.620736
1629376349298,-0.573644,0.5197809999999999,-0.620248
1629376349308,-0.573888,0.521184,-0.620065
1629376349317,-0.573278,0.5210009999999999,-0.620065
1629376349327,-0.572851,0.5213059999999999,-0.618174
1629376349337,-0.57279,0.521428,-0.617015
1629376349346,-0.5724239999999999,0.5219159999999999,-0.617015
1629376349356,-0.572363,0.521062,-0.616283
1629376349365,-0.572668,0.52033,-0.6150019999999999
1629376349375,-0.572912,0.5213059999999999,-0.614514
1629376349385,-0.573034,0.521977,-0.615124
1629376349394,-0.573339,0.5210009999999999,-0.613904
1629376349404,-0.573034,0.521123,-0.613111
1629376349413,-0.5721189999999999,0.520208,-0.612989
1629376349423,-0.5718139999999999,0.519049,-0.612013
1629376349433,-0.5727289999999999,0.517524,-0.6128669999999999
1629376349442,-0.573644,0.517402,-0.61366
1629376349452,-0.573888,0.516304,-0.6137819999999999
1629376349461,-0.574193,0.516365,-0.613599
1629376349471,-0.57523,0.51606,-0.613111
1629376349481,-0.57523,0.514413,-0.6125619999999999
1629376349490,-0.575108,0.513254,-0.612806
1629376349500,-0.575108,0.512705,-0.6122569999999999
1629376349509,-0.576694,0.512278,-0.6113419999999999
1629376349519,-0.578036,0.512034,-0.61183
1629376349529,-0.579988,0.51179,-0.610183
1629376349538,-0.580293,0.5124609999999999,-0.609573
1629376349548,-0.582672,0.512095,-0.610671
1629376349557,-0.584014,0.511912,-0.611708
1629376349567,-0.5854779999999999,0.510753,-0.612928
1629376349577,-0.586515,0.509594,-0.612623
1629376349586,-0.5885279999999999,0.509045,-0.614026
1629376349596,-0.588345,0.508374,-0.615368
1629376349605,-0.587369,0.509289,-0.615978
1629376349615,-0.589016,0.511302,-0.6161
1629376349625,-0.5885279999999999,0.512095,-0.618113
1629376349634,-0.588894,0.512827,-0.617503
1629376349644,-0.58865,0.5127659999999999,-0.615246
1629376349653,-0.5891379999999999,0.512217,-0.612928
1629376349663,-0.588345,0.512583,-0.6119519999999999
1629376349673,-0.588162,0.513437,-0.6125619999999999
1629376349682,-0.588589,0.513925,-0.610061
1629376349692,-0.590175,0.514352,-0.608963
1629376349701,-0.589809,0.514108,-0.6101219999999999
1629376349711,-0.589504,0.5149009999999999,-0.61305
1629376349721,-0.5891379999999999,0.514657,-0.615063
1629376349730,-0.589077,0.5133759999999999,-0.617686
1629376349740,-0.589809,0.51362,-0.6198819999999999
1629376349749,-0.588284,0.514047,-0.6207969999999999
1629376349759,-0.588406,0.5152059999999999,-0.6195769999999999
1629376349769,-0.586942,0.515084,-0.618601
1629376349778,-0.5856,0.5145959999999999,-0.615978
1629376349788,-0.5848679999999999,0.5149009999999999,-0.615368
1629376349797,-0.5856,0.515633,-0.616649
1629376349807,-0.585966,0.514962,-0.615795
1629376349817,-0.585905,0.51423,-0.615978
1629376349826,-0.585539,0.514474,-0.614819
1629376349836,-0.584075,0.514108,-0.6119519999999999
1629376349845,-0.58438,0.51423,-0.6104269999999999
1629376349855,-0.584929,0.5149009999999999,-0.60817
1629376349865,-0.585112,0.51484,-0.605791
1629376349874,-0.5856,0.51606,-0.604876
1629376349884,-0.585112,0.51667,-0.604388
1629376349893,-0.585112,0.516548,-0.603046
1629376349903,-0.5856,0.518622,-0.603046
1629376349913,-0.58621,0.519232,-0.603534
1629376349922,-0.5854779999999999,0.519598,-0.602924
1629376349932,-0.584746,0.5188659999999999,-0.600911
1629376349941,-0.585356,0.5200859999999999,-0.599935
1629376349951,-0.584929,0.520269,-0.600118
1629376349961,-0.585661,0.520452,-0.599935
1629376349970,-0.585295,0.518073,-0.60024
1629376349980,-0.585661,0.517768,-0.601399
1629376349989,-0.585722,0.516792,-0.601216
1629376349999,-0.585295,0.515694,-0.603046
1629376350009,-0.5856,0.515572,-0.604876
1629376350018,-0.586942,0.516243,-0.605425
1629376350028,-0.586576,0.51545,-0.606157
1629376350037,-0.588101,0.515389,-0.606218
1629376350047,-0.588284,0.515267,-0.60817
1629376350057,-0.5888329999999999,0.514413,-0.609634
1629376350066,-0.589931,0.513315,-0.611769
1629376350076,-0.589687,0.5133759999999999,-0.612745
1629376350085,-0.590846,0.5136809999999999,-0.613294
1629376350095,-0.592554,0.5133759999999999,-0.614331
1629376350105,-0.5927979999999999,0.513742,-0.614026
1629376350114,-0.593652,0.5130709999999999,-0.6137819999999999
1629376350124,-0.594506,0.514047,-0.613111
1629376350133,-0.594506,0.515023,-0.612196
1629376350143,-0.594811,0.515694,-0.6119519999999999
1629376350153,-0.595604,0.516914,-0.610915
1629376350162,-0.594872,0.516792,-0.6104269999999999
1629376350172,-0.593835,0.517829,-0.609878
1629376350181,-0.594079,0.518073,-0.6095119999999999
1629376350191,-0.593957,0.518988,-0.607438
1629376350201,-0.593347,0.51911,-0.60756
1629376350210,-0.591517,0.5185609999999999,-0.606523
1629376350220,-0.5909679999999999,0.518378,-0.603778
1629376350229,-0.5897479999999999,0.518439,-0.603717
1629376350239,-0.588589,0.516182,-0.603839
1629376350249,-0.5863929999999999,0.51606,-0.604144
1629376350258,-0.585966,0.515694,-0.6039
1629376350268,-0.584502,0.516304,-0.604754
1629376350277,-0.582672,0.514718,-0.604571
1629376350287,-0.581452,0.513315,-0.604266
1629376350297,-0.581086,0.5124,-0.60573
1629376350306,-0.5795,0.511546,-0.605303
1629376350316,-0.579134,0.510997,-0.604937
1629376350325,-0.578829,0.51057,-0.605059
1629376350335,-0.579256,0.509838,-0.604876
1629376350345,-0.579134,0.510448,-0.604754
1629376350354,-0.579866,0.511485,-0.604876
1629376350364,-0.581208,0.511424,-0.604937
1629376350373,-0.582611,0.51301,-0.606035
1629376350383,-0.582672,0.513254,-0.608414
1629376350393,-0.5842579999999999,0.512827,-0.610549
1629376350402,-0.584746,0.5149009999999999,-0.611281
1629376350412,-0.5854779999999999,0.516487,-0.6119519999999999
1629376350421,-0.5857829999999999,0.5167309999999999,-0.612135
1629376350431,-0.5879179999999999,0.516548,-0.612379
1629376350441,-0.5891379999999999,0.5164259999999999,-0.6131719999999999
1629376350450,-0.588955,0.516304,-0.614453
1629376350460,-0.588284,0.516853,-0.6153069999999999
1629376350469,-0.587796,0.51545,-0.614941
1629376350479,-0.586454,0.514962,-0.615368
1629376350489,-0.585661,0.514047,-0.613904
1629376350498,-0.58499,0.513925,-0.614453
1629376350508,-0.584014,0.5130709999999999,-0.613233
1629376350517,-0.584014,0.51301,-0.613904
1629376350527,-0.58316,0.512522,-0.612989
1629376350537,-0.583465,0.512278,-0.613294
1629376350546,-0.583465,0.512339,-0.614453
1629376350556,-0.5839529999999999,0.511668,-0.615673
1629376350565,-0.584441,0.512339,-0.6159169999999999
1629376350575,-0.583709,0.512827,-0.61549
1629376350585,-0.5857829999999999,0.514108,-0.614636
1629376350594,-0.587125,0.514169,-0.6122569999999999
1629376350604,-0.58743,0.513803,-0.610549
1629376350613,-0.587247,0.514779,-0.6082919999999999
1629376350623,-0.587674,0.517402,-0.6079869999999999
1629376350633,-0.588894,0.519354,-0.609573
1629376350642,-0.588284,0.5185,-0.609451
1629376350652,-0.588711,0.518134,-0.610244
1629376350661,-0.588589,0.517158,-0.610183
1629376350671,-0.5873079999999999,0.5161209999999999,-0.609268
1629376350681,-0.587979,0.51423,-0.6095119999999999
1629376350690,-0.5876129999999999,0.513803,-0.607438
1629376350700,-0.587857,0.514962,-0.606706
1629376350709,-0.586515,0.5145959999999999,-0.605974
1629376350719,-0.587186,0.515999,-0.605852
1629376350729,-0.586027,0.515938,-0.606279
1629376350738,-0.585417,0.515633,-0.607316
1629376350748,-0.5854779999999999,0.51484,-0.608109
1629376350757,-0.585356,0.514535,-0.608841
1629376350767,-0.585356,0.513803,-0.60939
1629376350777,-0.585722,0.5136809999999999,-0.610671
1629376350786,-0.586454,0.513803,-0.6104269999999999
1629376350796,-0.5866979999999999,0.514108,-0.609268
1629376350805,-0.586515,0.515023,-0.6089019999999999
1629376350815,-0.587552,0.514962,-0.608719
1629376350825,-0.58743,0.51606,-0.6095119999999999
1629376350834,-0.587857,0.516914,-0.609146
1629376350844,-0.5873079999999999,0.517768,-0.608841
1629376350853,-0.5879179999999999,0.516609,-0.6085969999999999
1629376350863,-0.587979,0.516975,-0.609634
1629376350873,-0.586942,0.516914,-0.6098169999999999
1629376350882,-0.586454,0.515999,-0.61
1629376350892,-0.585722,0.5158159999999999,-0.6092069999999999
1629376350901,-0.586759,0.516548,-0.608719
1629376350911,-0.586332,0.517524,-0.607804
1629376350921,-0.584685,0.517097,-0.608414
1629376350930,-0.5860879999999999,0.51667,-0.6085969999999999
1629376350940,-0.5854779999999999,0.516609,-0.60878
1629376350949,-0.585417,0.516975,-0.6095119999999999
1629376350959,-0.5854779999999999,0.516914,-0.610549
1629376350969,-0.586149,0.518073,-0.611098
1629376350978,-0.586759,0.516792,-0.611708
1629376350988,-0.586332,0.5182559999999999,-0.611769
1629376350997,-0.587552,0.518744,-0.6122569999999999
1629376351007,-0.587674,0.5188659999999999,-0.610488
1629376351017,-0.587796,0.51911,-0.609878
1629376351026,-0.5870029999999999,0.5194759999999999,-0.608963
1629376351036,-0.586454,0.5194759999999999,-0.6085969999999999
1629376351045,-0.58682,0.5188659999999999,-0.608353
1629376351055,-0.586454,0.518744,-0.60878
1629376351065,-0.5863929999999999,0.518927,-0.608536
1629376351074,-0.58621,0.518195,-0.607865
1629376351084,-0.585722,0.517829,-0.6076819999999999
1629376351093,-0.5851729999999999,0.51789,-0.605486
1629376351103,-0.585051,0.517524,-0.606706
1629376351113,-0.58438,0.517524,-0.605791
1629376351122,-0.583648,0.5164259999999999,-0.606279
1629376351132,-0.58316,0.516914,-0.605547
1629376351141,-0.582977,0.515999,-0.604754
1629376351151,-0.584014,0.515633,-0.605303
1629376351161,-0.583648,0.514535,-0.605669
1629376351170,-0.5842579999999999,0.513864,-0.605242
1629376351180,-0.58438,0.513925,-0.606218
1629376351189,-0.584075,0.5142909999999999,-0.605364
1629376351199,-0.584746,0.513437,-0.605242
1629376351209,-0.584624,0.5139859999999999,-0.605669
1629376351218,-0.583892,0.513803,-0.606523
1629376351228,-0.583892,0.513437,-0.607194
1629376351237,-0.5842579999999999,0.5133759999999999,-0.608841
1629376351247,-0.584136,0.511851,-0.609634
1629376351257,-0.5842579999999999,0.512827,-0.610549
1629376351266,-0.585966,0.512522,-0.611891
1629376351276,-0.586637,0.512034,-0.61305
1629376351285,-0.586454,0.512278,-0.6140869999999999
1629376351295,-0.58621,0.511973,-0.614026
1629376351305,-0.586759,0.513132,-0.61488
1629376351314,-0.5863929999999999,0.5127659999999999,-0.61366
1629376351324,-0.586637,0.514108,-0.613721
1629376351333,-0.58621,0.5142909999999999,-0.613721
1629376351343,-0.586881,0.513254,-0.614026
1629376351353,-0.5863929999999999,0.5136809999999999,-0.613294
1629376351362,-0.58621,0.513437,-0.613233
1629376351372,-0.5863929999999999,0.513437,-0.612806
1629376351381,-0.585417,0.513925,-0.612379
1629376351391,-0.58499,0.5139859999999999,-0.612501
1629376351401,-0.585905,0.513925,-0.612196
1629376351410,-0.585417,0.513254,-0.61244
1629376351420,-0.584807,0.513254,-0.612684
1629376351429,-0.5856,0.512034,-0.612074
1629376351439,-0.584929,0.512705,-0.6128669999999999
1629376351449,-0.585905,0.5136809999999999,-0.613294
1629376351458,-0.5854779999999999,0.514108,-0.612989
1629376351468,-0.586271,0.513742,-0.612745
1629376351477,-0.586149,0.514535,-0.613294
1629376351487,-0.58682,0.515084,-0.613355
1629376351497,-0.58682,0.514352,-0.612501
1629376351506,-0.587125,0.514718,-0.611525
1629376351516,-0.587247,0.5149009999999999,-0.612928
1629376351525,-0.58682,0.5145959999999999,-0.611769
1629376351535,-0.5876129999999999,0.514047,-0.6107319999999999
1629376351545,-0.5873079999999999,0.514413,-0.612013
1629376351554,-0.587186,0.515938,-0.612074
1629376351564,-0.58682,0.51606,-0.609573
1629376351573,-0.586454,0.514718,-0.607621
1629376351583,-0.586759,0.516182,-0.608231
1629376351593,-0.587735,0.516792,-0.606767
1629376351602,-0.587125,0.517585,-0.60878
1629376351612,-0.587125,0.5170359999999999,-0.6089019999999999
1629376351621,-0.58621,0.517524,-0.6089019999999999
1629376351631,-0.5866979999999999,0.518012,-0.609756
1629376351641,-0.5857829999999999,0.518195,-0.609573
1629376351650,-0.586515,0.517524,-0.608475
1629376351660,-0.586454,0.515999,-0.6076819999999999
1629376351669,-0.586759,0.515755,-0.608475
1629376351679,-0.586637,0.51667,-0.6082919999999999
1629376351689,-0.5860879999999999,0.516914,-0.609146
1629376351698,-0.5856,0.517585,-0.6089019999999999
1629376351708,-0.585112,0.518378,-0.609756
1629376351717,-0.584929,0.5185609999999999,-0.611708
1629376351727,-0.584441,0.515938,-0.611464
1629376351737,-0.584014,0.515084,-0.610976
1629376351746,-0.58499,0.515084,-0.609756
1629376351756,-0.584929,0.512949,-0.608963
1629376351765,-0.584319,0.513864,-0.609268
1629376351775,-0.584197,0.513193,-0.609024
1629376351785,-0.584014,0.513925,-0.609024
1629376351794,-0.584136,0.513742,-0.610061
1629376351804,-0.5845629999999999,0.513803,-0.609573
1629376351813,-0.58438,0.5145959999999999,-0.609634
1629376351823,-0.583709,0.514718,-0.609268
1629376351833,-0.585295,0.514718,-0.60878
1629376351842,-0.585844,0.514962,-0.609695
1629376351852,-0.585234,0.515389,-0.610854
1629376351861,-0.584197,0.513559,-0.610671
1629376351871,-0.583709,0.514413,-0.611586
1629376351881,-0.585234,0.516548,-0.61
1629376351890,-0.58499,0.51606,-0.609329
1629376351900,-0.585844,0.514535,-0.6089019999999999
1629376351909,-0.5857829999999999,0.514108,-0.610183
1629376351919,-0.5854779999999999,0.514718,-0.611586
1629376351929,-0.58438,0.5142909999999999,-0.612074
1629376351938,-0.585661,0.5139859999999999,-0.613294
1629376351948,-0.585051,0.514352,-0.6125619999999999
1629376351957,-0.585844,0.514657,-0.6122569999999999
1629376351967,-0.5856,0.5155109999999999,-0.61244
1629376351977,-0.585661,0.516243,-0.6125619999999999
1629376351986,-0.585844,0.515572,-0.612684
1629376351996,-0.58499,0.515084,-0.612501
1629376352005,-0.585539,0.515633,-0.613111
1629376352015,-0.585112,0.515084,-0.612501
1629376352025,-0.5845629999999999,0.516304,-0.611525
1629376352034,-0.585295,0.515694,-0.612196
1629376352044,-0.585051,0.515633,-0.6122569999999999
1629376352053,-0.58438,0.515633,-0.610854
1629376352063,-0.584807,0.515877,-0.6113419999999999
1629376352073,-0.585234,0.516792,-0.611098
1629376352082,-0.5839529999999999,0.515328,-0.610366
1629376352092,-0.58499,0.515328,-0.609268
1629376352101,-0.584136,0.5145959999999999,-0.609756
1629376352111,-0.5839529999999999,0.514657,-0.609634
1629376352121,-0.58377,0.515084,-0.6098169999999999
1629376352130,-0.58438,0.514413,-0.6098169999999999
1629376352140,-0.58316,0.515145,-0.609756
1629376352149,-0.584502,0.514657,-0.6098169999999999
1629376352159,-0.584624,0.514535,-0.6089019999999999
1629376352169,-0.5851729999999999,0.515694,-0.607865
1629376352178,-0.5842579999999999,0.515633,-0.607804
1629376352188,-0.585844,0.516304,-0.607926
1629376352197,-0.5856,0.515328,-0.608353
1629376352207,-0.5860879999999999,0.51423,-0.608658
1629376352217,-0.585539,0.514779,-0.608109
1629376352226,-0.585905,0.515572,-0.608719
1629376352236,-0.586332,0.515755,-0.609329
1629376352245,-0.5870029999999999,0.515328,-0.609573
1629376352255,-0.5857829999999999,0.515389,-0.610549
1629376352265,-0.586332,0.5142909999999999,-0.609329
1629376352274,-0.586454,0.51423,-0.610061
1629376352284,-0.58621,0.513864,-0.610549
1629376352293,-0.587491,0.513742,-0.610366
1629376352303,-0.586942,0.514718,-0.610305
1629376352313,-0.58743,0.51423,-0.610305
1629376352322,-0.5879179999999999,0.51423,-0.610061
1629376352332,-0.5885279999999999,0.515023,-0.611281
1629376352341,-0.588406,0.514413,-0.610671
1629376352351,-0.587552,0.513742,-0.609634
1629376352361,-0.587247,0.513559,-0.609573
1629376352370,-0.58804,0.513803,-0.609573
1629376352380,-0.5888329999999999,0.514718,-0.608841
1629376352389,-0.588589,0.514718,-0.6089019999999999
1629376352399,-0.58804,0.515267,-0.609085
1629376352409,-0.588589,0.515267,-0.60817
1629376352418,-0.588345,0.5149009999999999,-0.608048
1629376352428,-0.587247,0.514108,-0.6076819999999999
1629376352437,-0.587674,0.5136809999999999,-0.607255
1629376352447,-0.587979,0.512827,-0.607865
1629376352457,-0.586637,0.513193,-0.609268
1629376352466,-0.586637,0.512522,-0.609146
1629376352476,-0.58804,0.512644,-0.607438
1629376352485,-0.5882229999999999,0.5124609999999999,-0.609268
1629376352495,-0.5876129999999999,0.512095,-0.608109
1629376352505,-0.588467,0.5139859999999999,-0.608109
1629376352514,-0.588284,0.513437,-0.608536
1629376352524,-0.588406,0.5136809999999999,-0.608536
1629376352533,-0.588772,0.5133759999999999,-0.609451
1629376352543,-0.587979,0.513803,-0.60939
1629376352553,-0.587857,0.5142909999999999,-0.609024
1629376352562,-0.588955,0.51484,-0.607804
1629376352572,-0.589687,0.512278,-0.607194
1629376352581,-0.5885279999999999,0.510692,-0.606584
1629376352591,-0.587491,0.513132,-0.606035
1629376352601,-0.58804,0.51362,-0.606645
1629376352610,-0.588772,0.514474,-0.609329
1629376352620,-0.588589,0.514718,-0.6101219999999999
1629376352629,-0.589565,0.514108,-0.611403
1629376352639,-0.5897479999999999,0.514169,-0.6128669999999999
1629376352649,-0.590419,0.512644,-0.612989
1629376352658,-0.589565,0.513254,-0.612135
1629376352668,-0.589382,0.513132,-0.610976
1629376352677,-0.588711,0.5136809999999999,-0.609939
1629376352687,-0.589504,0.513254,-0.609573
1629376352697,-0.58804,0.5133759999999999,-0.609024
1629376352706,-0.588589,0.513437,-0.6098169999999999
1629376352716,-0.5873079999999999,0.513193,-0.609634
1629376352725,-0.587857,0.512278,-0.609939
1629376352735,-0.5879179999999999,0.512644,-0.609756
1629376352745,-0.5882229999999999,0.512644,-0.6104269999999999
1629376352754,-0.587979,0.512644,-0.609878
1629376352764,-0.588284,0.5127659999999999,-0.60878
1629376352773,-0.5879179999999999,0.513254,-0.608658
1629376352783,-0.588284,0.514047,-0.608536
1629376352793,-0.589504,0.514108,-0.608719
1629376352802,-0.589016,0.515633,-0.608963
1629376352812,-0.589016,0.515694,-0.609878
1629376352821,-0.588101,0.516182,-0.6092069999999999
1629376352831,-0.589199,0.517829,-0.60817
1629376352841,-0.589809,0.519598,-0.609146
1629376352850,-0.590724,0.519903,-0.609146
1629376352860,-0.5900529999999999,0.520574,-0.607804
1629376352869,-0.590297,0.522587,-0.605181
1629376352879,-0.589199,0.5228309999999999,-0.604083
1629376352889,-0.588589,0.520452,-0.604022
1629376352898,-0.585356,0.518988,-0.605364
1629376352908,-0.584624,0.517097,-0.606035
1629376352917,-0.584441,0.517463,-0.60756
1629376352927,-0.58255,0.517158,-0.608658
1629376352937,-0.581696,0.518317,-0.607865
1629376352946,-0.580415,0.519842,-0.60634
1629376352956,-0.578951,0.520574,-0.606096
1629376352965,-0.579866,0.521672,-0.605791
1629376352975,-0.580842,0.520757,-0.604388
1629376352985,-0.58194,0.517585,-0.605303
1629376352994,-0.580903,0.514657,-0.606584
1629376353004,-0.581818,0.5127659999999999,-0.607133
1629376353013,-0.583343,0.510631,-0.608048
1629376353023,-0.584441,0.509594,-0.60817
1629376353033,-0.585844,0.510204,-0.607438
1629376353042,-0.588284,0.510814,-0.604876
1629376353052,-0.588406,0.510631,-0.602985
1629376353061,-0.5915779999999999,0.512095,-0.600606
1629376353071,-0.593164,0.51118,-0.59963
1629376353081,-0.5952379999999999,0.510021,-0.599691
1629376353090,-0.596092,0.509411,-0.599325
1629376353100,-0.598654,0.507642,-0.599813
1629376353109,-0.599203,0.506483,-0.600606
1629376353119,-0.600606,0.505446,-0.602375
1629376353129,-0.601582,0.504836,-0.604571
1629376353138,-0.601948,0.505995,-0.60817
1629376353148,-0.602314,0.506666,-0.610366
1629376353157,-0.602314,0.50691,-0.612501
1629376353167,-0.601826,0.508496,-0.61366
1629376353177,-0.600606,0.507581,-0.614514
1629376353186,-0.60024,0.507947,-0.6134769999999999
1629376353196,-0.596946,0.508618,-0.613111
1629376353205,-0.59475,0.510936,-0.610854
1629376353215,-0.590114,0.513254,-0.609268
1629376353225,-0.58682,0.514352,-0.60939
1629376353234,-0.585661,0.514108,-0.609695
1629376353244,-0.5848679999999999,0.513742,-0.611159
1629376353253,-0.5870029999999999,0.511546,-0.612196
1629376353263,-0.58926,0.509655,-0.6134769999999999
1629376353273,-0.591395,0.506605,-0.6165269999999999
1629376353282,-0.594262,0.502823,-0.6177469999999999
1629376353292,-0.595177,0.498492,-0.6204919999999999
1629376353301,-0.595604,0.497089,-0.620919
1629376353311,-0.600484,0.49898,-0.61976
1629376353321,-0.603656,0.501176,-0.6192719999999999
1629376353330,-0.606584,0.503799,-0.617686
1629376353340,-0.6079869999999999,0.502457,-0.616588
1629376353349,-0.605974,0.502579,-0.615978
1629376353359,-0.605974,0.503006,-0.617076
1629376353369,-0.60695,0.503738,-0.615551
1629376353378,-0.607072,0.502518,-0.612928
1629376353388,-0.607377,0.50203,-0.608048
1629376353397,-0.607865,0.499041,-0.604388
1629376353407,-0.6076819999999999,0.496906,-0.602741
1629376353417,-0.605913,0.49855299999999997,-0.601948
1629376353426,-0.598959,0.501542,-0.603107
1629376353436,-0.591395,0.502274,-0.603534
1629376353445,-0.584075,0.504958,-0.607194
1629376353455,-0.579683,0.512034,-0.608963
1629376353465,-0.576877,0.517768,-0.60756
1629376353474,-0.574193,0.520635,-0.606645
1629376353484,-0.570411,0.519598,-0.603168
1629376353493,-0.5675439999999999,0.520513,-0.600728
1629376353503,-0.566263,0.5237459999999999,-0.603778
1629376353513,-0.562786,0.52948,-0.60817
1629376353522,-0.559797,0.528016,-0.612318
1629376353532,-0.557296,0.515877,-0.615734
1629376353541,-0.557601,0.507276,-0.621346
1629376353551,-0.558882,0.502762,-0.629764
1629376353561,-0.558211,0.49763799999999997,-0.639097
1629376353570,-0.558272,0.49233099999999996,-0.645563
1629376353580,-0.560041,0.485377,-0.650199
1629376353589,-0.560285,0.479216,-0.650016
1629376353599,-0.56364,0.475983,-0.64904
1629376353609,-0.5663239999999999,0.476776,-0.648186
1629376353618,-0.56974,0.47885,-0.647088
1629376353628,-0.57279,0.481168,-0.644892
1629376353637,-0.578402,0.483303,-0.645807
1629376353647,-0.583709,0.484767,-0.646417
1629376353657,-0.587552,0.483852,-0.647149
1629376353666,-0.590724,0.483608,-0.645258
1629376353676,-0.594567,0.483364,-0.640195
1629376353685,-0.599813,0.482632,-0.635498
1629376353695,-0.602558,0.481107,-0.632509
1629376353705,-0.605852,0.482205,-0.630435
1629376353714,-0.608658,0.484218,-0.628605
1629376353724,-0.61061,0.489525,-0.625677
1629376353733,-0.61305,0.49355099999999996,-0.621773
1629376353743,-0.615246,0.49733299999999997,-0.617259
1629376353753,-0.615856,0.496967,-0.611891
1629376353762,-0.6174419999999999,0.49654,-0.609024
1629376353772,-0.618479,0.495991,-0.605913
1629376353781,-0.618906,0.497577,-0.604022
1629376353791,-0.620248,0.498431,-0.603412
1629376353801,-0.620858,0.501786,-0.600667
1629376353810,-0.621468,0.503738,-0.597373
1629376353820,-0.623542,0.50691,-0.59231
1629376353829,-0.62403,0.51118,-0.588772
1629376353839,-0.623908,0.51057,-0.585234
1629376353849,-0.623725,0.50874,-0.583892
1629376353858,-0.624335,0.507032,-0.583099
1629376353868,-0.623969,0.506117,-0.58438
1629376353877,-0.624274,0.506117,-0.586332
1629376353887,-0.622444,0.503494,-0.586027
1629376353897,-0.620614,0.504775,-0.58438
1629376353906,-0.619638,0.507825,-0.584014
1629376353916,-0.617259,0.509655,-0.580659
1629376353925,-0.619089,0.51118,-0.57584
1629376353935,-0.618906,0.510143,-0.571326
1629376353945,-0.619089,0.5063,-0.5681539999999999
1629376353954,-0.618906,0.503738,-0.5663239999999999
1629376353964,-0.6207969999999999,0.502518,-0.566751
1629376353973,-0.619333,0.503372,-0.569923
1629376353983,-0.6186619999999999,0.504287,-0.573217
1629376353993,-0.6174419999999999,0.504653,-0.574742
1629376354002,-0.616344,0.506056,-0.576999
1629376354012,-0.6150019999999999,0.505507,-0.582123
1629376354021,-0.61305,0.505507,-0.58621
1629376354031,-0.611464,0.502091,-0.590175
1629376354041,-0.610366,0.49794299999999997,-0.594201
1629376354050,-0.610549,0.493795,-0.597373
1629376354060,-0.610915,0.489342,-0.600667
1629376354069,-0.612196,0.488122,-0.604266
1629376354079,-0.613355,0.489464,-0.6101219999999999
1629376354089,-0.612013,0.490135,-0.614514
1629376354098,-0.611403,0.49050099999999996,-0.617198
1629376354108,-0.609695,0.490623,-0.617686
1629376354117,-0.609573,0.492758,-0.6183569999999999
1629376354127,-0.61,0.495442,-0.6192719999999999
1629376354137,-0.610305,0.498187,-0.620553
1629376354146,-0.608963,0.500383,-0.622627
1629376354156,-0.607377,0.50325,-0.623786
1629376354165,-0.607133,0.505202,-0.624274
1629376354175,-0.605303,0.505629,-0.622932
1629376354185,-0.603717,0.505324,-0.619699
1629376354194,-0.602192,0.505385,-0.6168319999999999
1629376354204,-0.599752,0.505202,-0.614941
1629376354213,-0.596885,0.50569,-0.616466
1629376354223,-0.595055,0.505934,-0.617076
1629376354233,-0.592066,0.50569,-0.617625
1629376354242,-0.589382,0.505812,-0.618296
1629376354252,-0.586881,0.504958,-0.619821
1629376354261,-0.583648,0.503372,-0.619516
1629376354271,-0.581818,0.501054,-0.617869
1629376354281,-0.58133,0.498675,-0.613599
1629376354290,-0.580354,0.49885799999999997,-0.607072
1629376354300,-0.579805,0.49837,-0.601704
1629376354309,-0.581635,0.502274,-0.598776
1629376354319,-0.582428,0.505568,-0.596946
1629376354329,-0.584746,0.506361,-0.5967629999999999
1629376354338,-0.5854779999999999,0.506117,-0.597556
1629376354348,-0.587796,0.505202,-0.599264
1629376354357,-0.589077,0.503555,-0.601094
1629376354367,-0.590175,0.500139,-0.60146
1629376354377,-0.5917,0.497882,-0.602192
1629376354386,-0.5921879999999999,0.49959,-0.601521
1629376354396,-0.594506,0.50081,-0.60207
1629376354405,-0.597495,0.501603,-0.602131
1629376354415,-0.60024,0.504165,-0.601338
1629376354425,-0.602497,0.505202,-0.599874
1629376354434,-0.603473,0.507947,-0.59963
1629376354444,-0.605791,0.510204,-0.601582
1629376354453,-0.605303,0.511973,-0.603595
1629376354463,-0.604998,0.512217,-0.604754
1629376354473,-0.604083,0.512888,-0.606218
1629376354482,-0.605242,0.512949,-0.607194
1629376354492,-0.602802,0.511912,-0.606523
1629376354501,-0.601521,0.512705,-0.605852
1629376354511,-0.60146,0.511851,-0.606218
1629376354521,-0.599691,0.510509,-0.60695
1629376354530,-0.601094,0.510692,-0.606889
1629376354540,-0.600362,0.510753,-0.608658
1629376354549,-0.598715,0.512949,-0.611098
1629376354559,-0.598959,0.514169,-0.6131719999999999
1629376354569,-0.597922,0.516853,-0.613233
1629376354578,-0.5955429999999999,0.521184,-0.61244
1629376354588,-0.5937129999999999,0.52338,-0.608414
1629376354597,-0.5940179999999999,0.526918,-0.602375
1629376354607,-0.5918829999999999,0.528748,-0.595787
1629376354617,-0.591822,0.532835,-0.588955
1629376354626,-0.591029,0.536434,-0.584197
1629376354636,-0.589504,0.537898,-0.581086
1629376354645,-0.588711,0.5361899999999999,-0.579317
1629376354655,-0.58621,0.534604,-0.580049
1629376354665,-0.585234,0.533201,-0.579988
1629376354674,-0.58621,0.534055,-0.583648
1629376354684,-0.585722,0.5364949999999999,-0.586515
1629376354693,-0.584441,0.5364949999999999,-0.587796
1629376354703,-0.58194,0.534116,-0.585417
1629376354713,-0.580476,0.530578,-0.583038
1629376354722,-0.580476,0.529175,-0.581574
1629376354732,-0.576694,0.527345,-0.582428
1629376354741,-0.575291,0.526918,-0.583038
1629376354751,-0.574193,0.527406,-0.586759
1629376354761,-0.573705,0.529541,-0.590907
1629376354770,-0.57218,0.530273,-0.593835
1629376354780,-0.571326,0.527345,-0.596336
1629376354789,-0.5702889999999999,0.520025,-0.598044
1629376354799,-0.573827,0.513864,-0.599142
1629376354809,-0.578158,0.511241,-0.601399
