timestamp,ax,ay,az
1630588374823,-0.118523,-0.945134,-0.267912
1630588374832,-0.119255,-0.943914,-0.261995
1630588374842,-0.122,-0.946171,-0.257176
1630588374851,-0.124379,-0.94733,-0.251503
1630588374861,-0.126331,-0.948855,-0.247416
1630588374871,-0.126819,-0.94977,-0.244366
1630588374880,-0.125904,-0.946476,-0.244671
1630588374890,-0.125721,-0.946171,-0.243817
1630588374899,-0.124928,-0.9487329999999999,-0.24174299999999999
1630588374909,-0.126392,-0.951661,-0.239974
1630588374919,-0.126148,-0.951722,-0.238388
1630588374928,-0.125477,-0.95465,-0.236985
1630588374938,-0.126331,-0.957395,-0.235704
1630588374947,-0.126819,-0.963678,-0.23729
1630588374957,-0.125904,-0.963434,-0.23985199999999998
1630588374967,-0.12364699999999999,-0.9638,-0.241377
1630588374976,-0.12315899999999999,-0.966789,-0.242902
1630588374986,-0.121268,-0.966606,-0.24296299999999998
1630588374995,-0.12261,-0.96075,-0.24204799999999999
1630588375005,-0.125843,-0.959896,-0.237656
1630588375015,-0.127429,-0.96075,-0.23485
1630588375024,-0.128222,-0.963739,-0.232898
1630588375034,-0.127673,-0.961421,-0.232593
1630588375043,-0.127246,-0.960201,-0.23216599999999998
1630588375053,-0.126453,-0.959591,-0.232837
1630588375063,-0.12505,-0.9569679999999999,-0.23155599999999998
1630588375072,-0.124989,-0.953186,-0.230885
1630588375082,-0.125721,-0.951112,-0.224968
1630588375091,-0.127368,-0.95221,-0.214049
1630588375101,-0.128832,-0.95587,-0.203557
1630588375111,-0.13078399999999998,-0.957334,-0.199592
1630588375120,-0.128161,-0.9533079999999999,-0.204167
1630588169008,-0.195749,-0.964349,-0.237473
1630588169018,-0.193736,-0.963617,-0.240523
1630588169027,-0.193126,-0.95709,-0.24387799999999998
1630588169037,-0.192638,-0.946964,-0.25071
1630588169046,-0.192394,-0.9365939999999999,-0.256749
1630588169056,-0.193065,-0.931775,-0.25760299999999997
1630588169066,-0.197274,-0.933178,-0.25254
1630588169075,-0.202825,-0.936167,-0.244244
1630588169085,-0.210511,-0.939644,-0.233813
1630588169094,-0.21838,-0.9432429999999999,-0.226737
1630588169104,-0.225456,-0.943792,-0.222406
1630588169114,-0.230214,-0.942572,-0.219173
1630588169123,-0.233752,-0.939278,-0.214476
1630588169133,-0.238083,-0.938912,-0.208071
1630588169142,-0.24156,-0.938363,-0.201422
1630588169152,-0.244366,-0.9384239999999999,-0.195261
1630588169162,-0.24662299999999998,-0.9353739999999999,-0.18934399999999998
1630588169171,-0.249978,-0.935801,-0.18361
1630588169181,-0.250527,-0.9341539999999999,-0.17763199999999998
1630588169190,-0.25132,-0.929396,-0.173118
1630588169200,-0.253638,-0.9265289999999999,-0.172569
1630588169210,-0.254736,-0.9210389999999999,-0.174216
1630588169219,-0.258335,-0.918172,-0.174643
1630588169229,-0.26126299999999997,-0.919636,-0.174338
1630588169238,-0.266204,-0.922198,-0.173972
1630588169248,-0.269986,-0.928542,-0.170739
1630588169258,-0.27358499999999997,-0.934093,-0.168848
1630588169267,-0.27877,-0.9414129999999999,-0.165127
1630588169277,-0.28426,-0.944951,-0.159942
1630588169286,-0.287554,-0.948916,-0.155306
1630588169296,-0.290665,-0.948794,-0.150304
1630588169306,-0.29426399999999997,-0.942694,-0.14926699999999998
1630588169315,-0.29707,-0.937753,-0.149816
1630588169325,-0.300974,-0.933178,-0.151158
1630588169334,-0.303536,-0.931897,-0.151829
1630588169344,-0.304878,-0.933788,-0.150548
1630588169354,-0.304329,-0.934703,-0.150548
1630588169363,-0.304207,-0.9356789999999999,-0.149206
1630588169373,-0.30439,-0.92964,-0.14926699999999998
1630588169382,-0.30567099999999997,-0.9231739999999999,-0.152012
1630588169392,-0.30719599999999997,-0.924821,-0.156343
1630588169402,-0.305793,-0.9289689999999999,-0.158051
1630588169411,-0.30384099999999997,-0.928237,-0.157014
1630588169421,-0.30256,-0.924211,-0.150914
1630588169430,-0.299571,-0.915915,-0.145058
1630588169440,-0.295606,-0.907314,-0.138958
1630588169450,-0.29365399999999997,-0.901336,-0.134932
1630588169459,-0.292068,-0.895297,-0.131577
1630588169469,-0.291092,-0.891637,-0.1281
1630588169478,-0.289811,-0.8863909999999999,-0.126087
1630588169488,-0.29097,-0.884683,-0.122732
1630588169498,-0.292007,-0.886574,-0.11870599999999999
1630588169507,-0.294691,-0.888953,-0.11529
1630588169517,-0.298656,-0.891881,-0.109739
1630588169526,-0.300913,-0.893528,-0.102968
1630588169536,-0.302804,-0.8957849999999999,-0.094733
1630588169546,-0.303963,-0.894199,-0.089182
1630588169555,-0.303597,-0.8936499999999999,-0.083692
1630588169565,-0.302743,-0.895846,-0.081252
1630588169574,-0.300486,-0.897127,-0.080764
1630588169584,-0.301157,-0.899018,-0.080459
1630588169594,-0.301584,-0.9024949999999999,-0.078446
1630588169603,-0.303536,-0.9027999999999999,-0.074298
1630588169613,-0.303414,-0.904874,-0.068076
1630588169622,-0.304085,-0.911096,-0.063318
1630588169632,-0.302682,-0.917501,-0.053985
1630588169642,-0.302499,-0.92476,-0.047153
1630588169651,-0.302743,-0.923967,-0.043432
1630588169661,-0.301157,-0.916464,-0.041968
1630588169670,-0.298778,-0.909388,-0.041114
1630588169680,-0.291702,-0.901397,-0.041663
1630588169690,-0.289018,-0.901702,-0.040748
1630588169699,-0.289933,-0.915,-0.040809
1630588169709,-0.289018,-0.928908,-0.041236
1630588169718,-0.28731,-0.941535,-0.037637
1630588169728,-0.282125,-0.9420229999999999,-0.035746
1630588169738,-0.27358499999999997,-0.922442,-0.038186
1630588169747,-0.270108,-0.902861,-0.041479999999999996
1630588169757,-0.27175499999999997,-0.898347,-0.040565
1630588169766,-0.275049,-0.895907,-0.037087999999999996
1630588169776,-0.277184,-0.895663,-0.032879
1630588169786,-0.276086,-0.893833,-0.027877
1630588169795,-0.26535,-0.862601,-0.027938
1630588169805,-0.272121,-0.879254,-0.03233
1630588169814,-0.277428,-0.901153,-0.030805
1630588169824,-0.282979,-0.915122,-0.032513
1630588169834,-0.284748,-0.9253089999999999,-0.037881
1630588169843,-0.286151,-0.926285,-0.034526
1630588169853,-0.290055,-0.930555,-0.030378
1630588169862,-0.29670399999999997,-0.93025,-0.025986
1630588169872,-0.29853399999999997,-0.916098,-0.019947
1630588169882,-0.300364,-0.889624,-0.015799
1630588169891,-0.303963,-0.876204,-0.008296
1630588169901,-0.307928,-0.878034,-0.003294
1630588169910,-0.309514,-0.891759,-0.001647
1630588169920,-0.309697,-0.911279,-0.003355
1630588169930,-0.310002,-0.936045,-0.007076
1630588169939,-0.304512,-0.940803,-0.013359
1630588169949,-0.298778,-0.923601,-0.019154
1630588169958,-0.28182,-0.913292,-0.029402
1630588169968,-0.270474,-0.913048,-0.039101
1630588169978,-0.264984,-0.917196,-0.0427
1630588169987,-0.265777,-0.931592,-0.041174999999999996
1630588169997,-0.266631,-0.942084,-0.036905
1630588170006,-0.26870499999999997,-0.945744,-0.037881
1630588170016,-0.267973,-0.9441579999999999,-0.03843
1630588170026,-0.268888,-0.945622,-0.037942
1630588170035,-0.269498,-0.942572,-0.041174999999999996
1630588170045,-0.270352,-0.9435479999999999,-0.045871999999999996
1630588170054,-0.271511,-0.955016,-0.047824
1630588170064,-0.269498,-0.965691,-0.050447
1630588170074,-0.264069,-0.976854,-0.049837
1630588170083,-0.25668799999999997,-0.980148,-0.053131
1630588170093,-0.24759899999999999,-0.984418,-0.060511999999999996
1630588170102,-0.241865,-0.9977159999999999,-0.067039
1630588170112,-0.230885,-1.006866,-0.078751
1630588170122,-0.224846,-1.020896,-0.08820599999999999
1630588170131,-0.217892,-1.031388,-0.098759
1630588170141,-0.213805,-1.0416969999999999,-0.108336
1630588170150,-0.21777,-1.064206,-0.116876
1630588170160,-0.21045,-1.066463,-0.14152
1630588170170,-0.207949,-1.076833,-0.18409799999999998
1630588170179,-0.213866,-1.120387,-0.217831
1630588170189,-0.20862,-1.153754,-0.245952
1630588170198,-0.199653,-1.163575,-0.266021
1630588170208,-0.192333,-1.147349,-0.281393
1630588170218,-0.194224,-1.132526,-0.287127
1630588170227,-0.192882,-1.134417,-0.29524
1630588170237,-0.181109,-1.139175,-0.310978
1630588170246,-0.178791,-1.141066,-0.32195799999999997
1630588170256,-0.18257299999999999,-1.149972,-0.323117
1630588170266,-0.179584,-1.143689,-0.336781
1630588170275,-0.156343,-1.104527,-0.36941599999999997
1630588170285,-0.128161,-1.060729,-0.403515
1630588170294,-0.096502,-1.021018,-0.420839
1630588170304,-0.065636,-0.984723,-0.43102599999999996
1630588170314,-0.048251,-0.959652,-0.430904
1630588170323,-0.037576,-0.937753,-0.42883
1630588170333,-0.033611,-0.912499,-0.42340099999999997
1630588170342,-0.03782,-0.890661,-0.416081
1630588170352,-0.04392,-0.867664,-0.40516199999999997
1630588170362,-0.04636,-0.850584,-0.392718
1630588170371,-0.035502,-0.8296,-0.38765499999999997
1630588170381,-0.030378,-0.8005639999999999,-0.37807799999999997
1630588170390,-0.02684,-0.773053,-0.365634
1630588170400,-0.031964,-0.767868,-0.338672
1630588170410,-0.0366,-0.7832399999999999,-0.313906
1630588170419,-0.039345,-0.814106,-0.308538
1630588170429,-0.037149,-0.852658,-0.318237
1630588170438,-0.018422,-0.8702259999999999,-0.351665
1630588170448,0.020496,-0.876082,-0.395402
1630588170458,0.05124,-0.88755,-0.41663
1630588170467,0.073017,-0.911584,-0.417301
1630588170477,0.084241,-0.9353739999999999,-0.40809
1630588170486,0.090951,-0.939278,-0.400465
1630588170496,0.085644,-0.927871,-0.40180699999999997
1630588170506,0.078507,-0.916098,-0.41839899999999997
1630588170515,0.080459,-0.9040199999999999,-0.45109499999999997
1630588170525,0.084546,-0.895602,-0.480802
1630588170534,0.087657,-0.903044,-0.494344
1630588170544,0.09174399999999999,-0.909266,-0.503372
1630588170554,0.092842,-0.907192,-0.512949
1630588170563,0.093147,-0.909632,-0.51789
1630588170573,0.096746,-0.920612,-0.5246
1630588170582,0.101809,-0.925675,-0.526125
1630588170592,0.11041,-0.916586,-0.527894
1630588170602,0.1159,-0.907802,-0.524234
1630588170611,0.120109,-0.897859,-0.519049
1630588170621,0.125416,-0.883158,-0.51606
1630588170630,0.131577,-0.865834,-0.51301
1630588170640,0.13786,-0.848205,-0.508374
1630588170650,0.137982,-0.838689,-0.500749
1630588170659,0.12688,-0.8296,-0.493185
1630588170669,0.109983,-0.818071,-0.48122899999999996
1630588170678,0.094245,-0.802272,-0.464698
1630588170688,0.07649399999999999,-0.784704,-0.442799
1630588170698,0.062342,-0.768295,-0.413275
1630588170707,0.048312,-0.758474,-0.379054
1630588170717,0.034709,-0.75762,-0.35868
1630588170726,0.030744,-0.762744,-0.353861
1630588170736,0.022082,-0.781776,-0.346114
1630588170746,0.010553,-0.818132,-0.335988
1630588170755,0.0015249999999999999,-0.848754,-0.32848499999999997
1630588170765,-0.010003999999999999,-0.867786,-0.32043299999999997
1630588170774,-0.023851,-0.876753,-0.307135
1630588170784,-0.04209,-0.881572,-0.285419
1630588170794,-0.068503,-0.895846,-0.25376
1630588170803,-0.099003,-0.915488,-0.217648
1630588170813,-0.130723,-0.940193,-0.186599
1630588170822,-0.165493,-0.976,-0.163846
1630588170832,-0.199592,-1.020713,-0.149938
1630588170842,-0.227286,-1.06567,-0.142374
1630588170851,-0.251381,-1.103856,-0.137128
1630588170861,-0.266265,-1.126182,-0.142252
1630588170870,-0.27327999999999997,-1.132587,-0.153781
1630588170880,-0.273036,-1.135454,-0.164151
1630588170890,-0.267119,-1.131611,-0.169519
1630588170899,-0.261934,-1.1238029999999999,-0.172264
1630588170909,-0.261019,-1.115629,-0.172752
1630588170918,-0.261324,-1.109041,-0.17116599999999998
1630588170928,-0.26291,-1.097634,-0.166896
1630588170938,-0.257786,-1.0781749999999999,-0.164761
1630588170947,-0.253821,-1.055056,-0.165371
1630588170957,-0.249063,-1.0386469999999999,-0.164517
1630588170966,-0.241804,-1.022543,-0.16652999999999998
1630588170976,-0.231678,-1.002291,-0.171349
1630588170986,-0.227286,-0.986004,-0.168116
1630588170995,-0.229177,-0.978013,-0.156526
1630588171005,-0.23216599999999998,-0.964776,-0.140239
1630588171014,-0.240096,-0.951905,-0.12023099999999999
1630588171024,-0.246074,-0.937387,-0.097051
1630588171034,-0.249551,-0.909754,-0.071492
1630588171043,-0.266997,-0.889746,-0.039406
1630588171053,-0.282735,-0.880474,-0.038186
1630588171062,-0.291702,-0.885232,-0.052582
1630588171072,-0.299754,-0.895419,-0.062403
1630588171082,-0.305122,-0.8966999999999999,-0.072956
1630588171091,-0.310856,-0.893345,-0.084851
1630588171101,-0.316224,-0.889502,-0.092964
1630588171110,-0.317749,-0.884683,-0.097783
1630588171120,-0.31890799999999997,-0.877424,-0.09943
1630588171130,-0.31964,-0.864736,-0.102297
1630588171139,-0.323666,-0.852109,-0.10736
1630588171149,-0.326716,-0.844423,-0.113338
1630588171158,-0.331596,-0.84363,-0.115229
1630588171168,-0.34172199999999997,-0.855769,-0.10736
1630588171178,-0.35434899999999997,-0.87474,-0.098698
1630588171187,-0.360327,-0.8845,-0.094428
1630588171197,-0.364109,-0.8845,-0.099247
1630588171206,-0.367952,-0.8860859999999999,-0.099186
1630588171216,-0.372344,-0.885293,-0.094184
1630588171226,-0.375394,-0.8854759999999999,-0.08820599999999999
1630588171235,-0.37807799999999997,-0.886879,-0.078263
1630588171245,-0.382165,-0.885903,-0.069784
1630588171254,-0.387167,-0.890417,-0.063623
1630588171264,-0.391071,-0.905179,-0.056608
1630588171274,-0.390583,-0.917867,-0.055388
1630588171283,-0.386313,-0.92171,-0.05917
1630588171293,-0.381921,-0.915793,-0.062403
1630588171302,-0.379115,-0.909083,-0.061975999999999996
1630588171312,-0.378444,-0.905301,-0.058926
1630588171322,-0.380274,-0.904874,-0.05124
1630588171331,-0.383446,-0.910608,-0.039955
1630588171341,-0.38795999999999997,-0.92171,-0.02257
1630588171350,-0.394792,-0.935191,-0.014395999999999999
1630588171360,-0.392169,-0.9441579999999999,-0.020739999999999998
1630588171370,-0.38856999999999997,-0.944829,-0.029341
1630588171379,-0.384422,-0.9465979999999999,-0.03721
1630588171389,-0.382165,-0.9453779999999999,-0.046787
1630588171398,-0.383141,-0.94428,-0.055937
1630588171408,-0.383934,-0.944097,-0.06466
1630588171418,-0.38204299999999997,-0.943975,-0.07137
1630588171427,-0.37838299999999997,-0.940498,-0.076067
1630588171437,-0.373625,-0.935557,-0.077592
1630588171446,-0.367769,-0.929091,-0.080459
1630588171456,-0.36636599999999997,-0.9211,-0.074054
1630588171466,-0.358863,-0.9088999999999999,-0.072407
1630588171475,-0.35319,-0.893894,-0.070394
1630588171485,-0.34526,-0.89182,-0.07808
1630588171494,-0.34282,-0.903349,-0.080703
1630588171504,-0.342515,-0.9211,-0.072712
1630588171514,-0.337025,-0.932751,-0.06283
1630588171523,-0.332816,-0.930555,-0.056424999999999996
1630588171533,-0.328729,-0.923967,-0.050873999999999996
1630588171542,-0.325374,-0.915488,-0.04697
1630588171552,-0.320006,-0.9037149999999999,-0.044835
1630588171562,-0.315614,-0.889624,-0.04575
1630588171571,-0.312015,-0.8809009999999999,-0.045201
1630588171581,-0.308904,-0.879925,-0.034709
1630588171590,-0.306342,-0.8796809999999999,-0.022692
1630588171600,-0.30506099999999997,-0.87718,-0.012444
1630588171610,-0.304207,-0.875289,-0.0060999999999999995
1630588171619,-0.306464,-0.87108,-0.000915
1630588171629,-0.30744,-0.872422,0.0053679999999999995
1630588171638,-0.30780599999999997,-0.8744959999999999,0.012505
1630588171648,-0.30780599999999997,-0.872544,0.020618
1630588171658,-0.30902599999999997,-0.87108,0.030195
1630588171667,-0.313479,-0.874679,0.034892
1630588171677,-0.323056,-0.88999,0.038064
1630588171686,-0.334463,-0.913658,0.039833
1630588171696,-0.343674,-0.93391,0.045323
1630588171706,-0.347517,-0.950136,0.051301
1630588171715,-0.347273,-0.960445,0.057401
1630588171725,-0.346663,-0.967399,0.066917
1630588171734,-0.34831,-0.97112,0.07869
1630588171744,-0.351116,-0.975085,0.091866
1630588171754,-0.35685,-0.973865,0.104188
1630588171763,-0.363255,-0.970998,0.112728
1630588171773,-0.367342,-0.966118,0.122122
1630588171782,-0.368623,-0.96136,0.130662
1630588171792,-0.366732,-0.959042,0.1403
1630588171802,-0.36636599999999997,-0.949526,0.14774199999999998
1630588171811,-0.36697599999999997,-0.944036,0.15359799999999998
1630588171821,-0.366183,-0.937082,0.157319
1630588171830,-0.364048,-0.927261,0.158356
1630588171840,-0.360815,-0.913414,0.159027
1630588171850,-0.356972,-0.904874,0.158783
1630588171859,-0.353373,-0.9027999999999999,0.15945399999999998
1630588171869,-0.352336,-0.893894,0.157685
1630588171878,-0.352763,-0.88084,0.155855
1630588171888,-0.35441,-0.860954,0.15359799999999998
1630588171898,-0.357582,-0.8489369999999999,0.154269
1630588171907,-0.362523,-0.849791,0.157136
1630588171917,-0.369294,-0.859429,0.164578
1630588171926,-0.374174,-0.869494,0.173972
1630588171936,-0.377407,-0.8784609999999999,0.181353
1630588171946,-0.377407,-0.8799859999999999,0.193004
1630588171955,-0.375211,-0.872544,0.198738
1630588171965,-0.373808,-0.865895,0.20374
1630588171974,-0.37393,-0.859124,0.20599699999999999
1630588171984,-0.37960299999999997,-0.8532069999999999,0.20258099999999998
1630588171994,-0.385032,-0.8471069999999999,0.197091
1630588172003,-0.391437,-0.843142,0.191723
1630588172013,-0.39161999999999997,-0.842471,0.19215
1630588172022,-0.390461,-0.843081,0.200019
1630588172032,-0.389973,-0.841617,0.207766
1630588172042,-0.393328,-0.843142,0.213134
1630588172051,-0.397537,-0.845765,0.215452
1630588172061,-0.401624,-0.846619,0.214659
1630588172070,-0.404491,-0.846436,0.212097
1630588172080,-0.409188,-0.846253,0.20721699999999998
1630588172090,-0.411506,-0.848266,0.20191
1630588172099,-0.413702,-0.8504619999999999,0.196298
1630588172109,-0.415837,-0.852963,0.193004
1630588172118,-0.414068,-0.85583,0.189893
1630588172128,-0.413946,-0.85827,0.187148
1630588172138,-0.41687399999999997,-0.861625,0.182451
1630588172147,-0.418277,-0.86803,0.174094
1630588172157,-0.420107,-0.867542,0.16530999999999998
1630588172166,-0.423889,-0.867298,0.15975899999999998
1630588172176,-0.429257,-0.866322,0.153537
1630588172186,-0.433954,-0.867115,0.14652199999999999
1630588172195,-0.436516,-0.865041,0.139751
1630588172205,-0.438102,-0.85888,0.136457
1630588172214,-0.440847,-0.851133,0.13115
1630588172224,-0.446093,-0.8480219999999999,0.128039
1630588172234,-0.449631,-0.844972,0.125538
1630588172243,-0.452742,-0.840946,0.12315899999999999
1630588172253,-0.457012,-0.841129,0.122793
1630588172262,-0.456646,-0.841678,0.122976
1630588172272,-0.454206,-0.842898,0.125294
1630588172282,-0.45048499999999997,-0.845765,0.128039
1630588172291,-0.447069,-0.8483269999999999,0.129198
1630588172301,-0.44682499999999997,-0.856623,0.13115
1630588172310,-0.449326,-0.871324,0.133102
1630588172320,-0.448228,-0.886025,0.130052
1630588172330,-0.44591,-0.892796,0.122427
1630588172339,-0.441152,-0.897981,0.113277
1630588172349,-0.441701,-0.9043249999999999,0.10492
1630588172358,-0.442982,-0.909449,0.094184
1630588172368,-0.438529,-0.907863,0.083082
1630588172378,-0.435235,-0.902251,0.072346
1630588172387,-0.430782,-0.897737,0.060756
1630588172397,-0.426695,-0.8966999999999999,0.052582
1630588172406,-0.419863,-0.898713,0.042212
1630588172416,-0.412543,-0.905667,0.03172
1630588172426,-0.406016,-0.912194,0.020496
1630588172435,-0.399062,-0.921161,0.00915
1630588172445,-0.392169,-0.927078,-0.000488
1630588172454,-0.386435,-0.931775,-0.009211
1630588172464,-0.38051799999999997,-0.9329339999999999,-0.014457
1630588172474,-0.374967,-0.9320189999999999,-0.017873
1630588172483,-0.36941599999999997,-0.930738,-0.016287
1630588172493,-0.364353,-0.9225639999999999,-0.016958
1630588172502,-0.355813,-0.911767,-0.017568
1630588172512,-0.349103,-0.905057,-0.019398
1630588172522,-0.341051,-0.904142,-0.024522
1630588172531,-0.337025,-0.907253,-0.031232
1630588172541,-0.334402,-0.911828,-0.037637
1630588172550,-0.330193,-0.915,-0.042578
1630588172560,-0.325618,-0.9192089999999999,-0.04636
1630588172570,-0.320799,-0.922015,-0.049044
1630588172579,-0.316285,-0.926346,-0.047824
1630588172589,-0.312076,-0.9307989999999999,-0.044469
1630588172598,-0.310002,-0.935008,-0.040443
1630588172608,-0.307257,-0.937936,-0.034526
1630588172618,-0.307684,-0.939949,-0.029523999999999998
1630588172627,-0.30811099999999997,-0.940742,-0.027084
1630588172637,-0.30506099999999997,-0.941596,-0.023972999999999998
1630588172646,-0.304573,-0.941779,-0.020862
1630588172656,-0.305122,-0.9432429999999999,-0.018605
1630588172666,-0.30658599999999997,-0.943426,-0.016347999999999998
1630588172675,-0.310612,-0.94245,-0.015982
1630588172685,-0.314028,-0.94001,-0.015555
1630588172694,-0.314821,-0.934886,-0.017873
1630588172704,-0.317566,-0.9329339999999999,-0.016958
1630588172714,-0.318481,-0.932751,-0.018239
1630588172723,-0.316529,-0.935801,-0.019825
1630588172733,-0.310612,-0.941047,-0.024399999999999998
1630588172742,-0.305122,-0.942511,-0.030560999999999998
1630588172752,-0.301218,-0.941657,-0.036844
1630588172762,-0.301645,-0.936838,-0.041541
1630588172771,-0.30384099999999997,-0.929701,-0.043432
1630588172781,-0.304024,-0.921222,-0.044286
1630588172790,-0.304878,-0.91561,-0.043981
1630588172800,-0.307379,-0.918477,-0.040015999999999996
1630588172810,-0.308294,-0.924638,-0.03538
1630588172819,-0.306464,-0.927383,-0.03294
1630588172829,-0.304085,-0.930616,-0.031354
1630588172838,-0.296948,-0.935801,-0.038796
1630588172848,-0.290238,-0.943426,-0.049409999999999996
1630588172858,-0.287371,-0.943426,-0.053619
1630588172867,-0.2867,-0.9381189999999999,-0.055937
1630588172877,-0.289384,-0.930372,-0.054046
1630588172886,-0.293166,-0.924821,-0.051667
1630588172896,-0.29646,-0.9225639999999999,-0.050935
1630588172906,-0.29951,-0.922198,-0.050081
1630588172915,-0.301706,-0.920368,-0.046543
1630588172925,-0.304939,-0.920063,-0.041968
1630588172934,-0.30628099999999997,-0.9213439999999999,-0.038003
1630588172944,-0.309453,-0.92354,-0.033489
1630588172954,-0.312991,-0.9265289999999999,-0.031354
1630588172963,-0.316041,-0.925797,-0.032574
1630588172973,-0.319152,-0.922198,-0.032879
1630588172982,-0.32256799999999997,-0.919087,-0.033854999999999996
1630588172992,-0.325252,-0.9182939999999999,-0.033245
1630588173002,-0.326594,-0.921222,-0.033916
1630588173011,-0.328058,-0.925553,-0.033611
1630588173021,-0.32817999999999997,-0.930006,-0.036661
1630588173030,-0.327204,-0.9341539999999999,-0.039772
1630588173040,-0.326289,-0.937936,-0.043737
1630588173050,-0.325618,-0.940864,-0.045933
1630588173059,-0.324642,-0.941352,-0.046726
1630588173069,-0.325191,-0.9394,-0.045445
1630588173078,-0.32696,-0.936655,-0.04331
1630588173088,-0.326777,-0.9332389999999999,-0.042212
1630588173098,-0.327143,-0.930311,-0.040687
1630588173107,-0.327021,-0.9274439999999999,-0.038308
1630588173117,-0.326228,-0.924333,-0.036356
1630588173126,-0.324398,-0.922991,-0.034343
1630588173136,-0.323361,-0.922442,-0.031293
1630588173146,-0.321226,-0.921222,-0.029768
1630588173155,-0.320372,-0.919758,-0.028182
1630588173165,-0.320067,-0.917867,-0.027023
1630588173174,-0.319335,-0.915,-0.026718
1630588173184,-0.318176,-0.914634,-0.024704999999999998
1630588173194,-0.31707799999999997,-0.913658,-0.02501
1630588173203,-0.31585799999999997,-0.914024,-0.025681
1630588173213,-0.315675,-0.915366,-0.024949
1630588173222,-0.313784,-0.917013,-0.028304
1630588173232,-0.312198,-0.918538,-0.02867
1630588173242,-0.311161,-0.921222,-0.030866
1630588173251,-0.310978,-0.9225639999999999,-0.032513
1630588173261,-0.309575,-0.92354,-0.036173
1630588173270,-0.310185,-0.925553,-0.038246999999999996
1630588173280,-0.309453,-0.927078,-0.039772
1630588173290,-0.310002,-0.928481,-0.039894
1630588173299,-0.308233,-0.9307989999999999,-0.040504
1630588173309,-0.306647,-0.936533,-0.038674
1630588173318,-0.304939,-0.944646,-0.036844
1630588173328,-0.30439,-0.953125,-0.036844
1630588173338,-0.30719599999999997,-0.950746,-0.045384
1630588173347,-0.308904,-0.94245,-0.05368
1630588173357,-0.307745,-0.932202,-0.058987
1630588173366,-0.306098,-0.92598,-0.063257
1630588173376,-0.303353,-0.923662,-0.063684
1630588173386,-0.302194,-0.924455,-0.062891
1630588173395,-0.299266,-0.9271389999999999,-0.063989
1630588173405,-0.297192,-0.927322,-0.06508699999999999
1630588173414,-0.293715,-0.926956,-0.066612
1630588173424,-0.291092,-0.925736,-0.067588
1630588173434,-0.288103,-0.9262239999999999,-0.068442
1630588173443,-0.28548,-0.928725,-0.069479
1630588173453,-0.284809,-0.930738,-0.07076
1630588173462,-0.28346699999999997,-0.930738,-0.071858
1630588173472,-0.282613,-0.9286639999999999,-0.073322
1630588173482,-0.282308,-0.930311,-0.071187
1630588173491,-0.28285699999999997,-0.933361,-0.069601
1630588173501,-0.28365,-0.935191,-0.06801499999999999
1630588173510,-0.285053,-0.936716,-0.066673
1630588173520,-0.28548,-0.939156,-0.066246
1630588173530,-0.285785,-0.94001,-0.066673
1630588173539,-0.286822,-0.939705,-0.066795
1630588173549,-0.286944,-0.940864,-0.068747
1630588173558,-0.287127,-0.940925,-0.071187
1630588173568,-0.287066,-0.940864,-0.072773
1630588173578,-0.287066,-0.940498,-0.072529
1630588173587,-0.287005,-0.940864,-0.07124799999999999
1630588173597,-0.286883,-0.940132,-0.073627
1630588173606,-0.286029,-0.940498,-0.073078
1630588173616,-0.286517,-0.940376,-0.07063799999999999
1630588173626,-0.286273,-0.939217,-0.070577
1630588173635,-0.285846,-0.938058,-0.068686
1630588173645,-0.28609,-0.93696,-0.068564
1630588173654,-0.284931,-0.934093,-0.06831999999999999
1630588173664,-0.28407699999999997,-0.93391,-0.06893
1630588173674,-0.285053,-0.9347639999999999,-0.070089
1630588173683,-0.28426,-0.935557,-0.072163
1630588173693,-0.284016,-0.937021,-0.072102
1630588173702,-0.283101,-0.939217,-0.073078
1630588173712,-0.28224699999999997,-0.939766,-0.073505
1630588173722,-0.281454,-0.941657,-0.076433
1630588173731,-0.280478,-0.942877,-0.077836
1630588173741,-0.279624,-0.9444629999999999,-0.078873
1630588173750,-0.28072199999999997,-0.945866,-0.080154
1630588173760,-0.280234,-0.945744,-0.081435
1630588173770,-0.28182,-0.944219,-0.081313
1630588173779,-0.28182,-0.94428,-0.081557
1630588173789,-0.281454,-0.943731,-0.081557
1630588173798,-0.281698,-0.9447679999999999,-0.080093
1630588173808,-0.281576,-0.94367,-0.08003199999999999
1630588173818,-0.28133199999999997,-0.9423279999999999,-0.078568
1630588173827,-0.28243,-0.940132,-0.076616
1630588173837,-0.283223,-0.938729,-0.075518
1630588173846,-0.28407699999999997,-0.937997,-0.074847
1630588173856,-0.28590699999999997,-0.937387,-0.07448099999999999
1630588173866,-0.285724,-0.936472,-0.074725
1630588173875,-0.28590699999999997,-0.935191,-0.073505
1630588173885,-0.287249,-0.9347639999999999,-0.071736
1630588173894,-0.286151,-0.933727,-0.07124799999999999
1630588173904,-0.286761,-0.933178,-0.07033299999999999
1630588173914,-0.286822,-0.9323239999999999,-0.069906
1630588173923,-0.286883,-0.931836,-0.069601
1630588173933,-0.286456,-0.931592,-0.06801499999999999
1630588173942,-0.287981,-0.932202,-0.068381
1630588173952,-0.289506,-0.9320189999999999,-0.069906
1630588173962,-0.288774,-0.931348,-0.07033299999999999
1630588173971,-0.288469,-0.9320189999999999,-0.07063799999999999
1630588173981,-0.289018,-0.932263,-0.069601
1630588173990,-0.289201,-0.931592,-0.070821
1630588174000,-0.288591,-0.932263,-0.070882
1630588174010,-0.288896,-0.933605,-0.071736
1630588174019,-0.289201,-0.93513,-0.074298
1630588174029,-0.287371,-0.9365939999999999,-0.07618899999999999
1630588174038,-0.287188,-0.9359839999999999,-0.077348
1630588174048,-0.287615,-0.936716,-0.078751
1630588174058,-0.288591,-0.93574,-0.077775
1630588174067,-0.289018,-0.936167,-0.07710399999999999
1630588174077,-0.290543,-0.936106,-0.076311
1630588174086,-0.289872,-0.936106,-0.076433
1630588174096,-0.288286,-0.9353739999999999,-0.07808
1630588174106,-0.28731,-0.934276,-0.07911699999999999
1630588174115,-0.286944,-0.9338489999999999,-0.079666
1630588174125,-0.287554,-0.933422,-0.082472
1630588174134,-0.287066,-0.933727,-0.083875
1630588174144,-0.286822,-0.933605,-0.083021
1630588174154,-0.286639,-0.934276,-0.083448
1630588174163,-0.287127,-0.933788,-0.08326499999999999
1630588174173,-0.288103,-0.932812,-0.082838
1630588174182,-0.28853,-0.933422,-0.08265499999999999
1630588174192,-0.288469,-0.932385,-0.082289
1630588174202,-0.289201,-0.934581,-0.083326
1630588174211,-0.287554,-0.935923,-0.083936
1630588174221,-0.287493,-0.9372039999999999,-0.083753
1630588174230,-0.288408,-0.936472,-0.08356999999999999
1630588174240,-0.288225,-0.936106,-0.082899
1630588174250,-0.289018,-0.9353739999999999,-0.081374
1630588174259,-0.289079,-0.934947,-0.082167
1630588174269,-0.289201,-0.934642,-0.08234999999999999
1630588174278,-0.28914,-0.934032,-0.082777
1630588174288,-0.289323,-0.93391,-0.082533
1630588174298,-0.287859,-0.936777,-0.083082
1630588174307,-0.288957,-0.936167,-0.083936
1630588174317,-0.287066,-0.936472,-0.084668
1630588174326,-0.287066,-0.935252,-0.08479
1630588174336,-0.287371,-0.933971,-0.083997
1630588174346,-0.286456,-0.932263,-0.083387
1630588174355,-0.285663,-0.932202,-0.084363
1630588174365,-0.286334,-0.930555,-0.08418
1630588174374,-0.285968,-0.93025,-0.085034
1630588174384,-0.28487,-0.929152,-0.08558299999999999
1630588174394,-0.285236,-0.930372,-0.08479
1630588174403,-0.285175,-0.930555,-0.08558299999999999
1630588174413,-0.285663,-0.93269,-0.087352
1630588174422,-0.284748,-0.932141,-0.089853
1630588174432,-0.28407699999999997,-0.9329339999999999,-0.091561
1630588174442,-0.28365,-0.935435,-0.09272
1630588174451,-0.283406,-0.9372039999999999,-0.094184
1630588174461,-0.28365,-0.93879,-0.09497699999999999
1630588174470,-0.283528,-0.939888,-0.09577
1630588174480,-0.283894,-0.939705,-0.096502
1630588174490,-0.283223,-0.938973,-0.09698999999999999
1630588174499,-0.282491,-0.940071,-0.09589199999999999
1630588174509,-0.282674,-0.940254,-0.095404
1630588174518,-0.28224699999999997,-0.940254,-0.096075
1630588174528,-0.28304,-0.939583,-0.093879
1630588174538,-0.28316199999999997,-0.937875,-0.093269
1630588174547,-0.284626,-0.93696,-0.09204899999999999
1630588174557,-0.284809,-0.936045,-0.090524
1630588174566,-0.28590699999999997,-0.936045,-0.088633
1630588174576,-0.287371,-0.9347639999999999,-0.086986
1630588174586,-0.287615,-0.933971,-0.08680299999999999
1630588174595,-0.288042,-0.93513,-0.08662
1630588174605,-0.288103,-0.935008,-0.087352
1630588174614,-0.287371,-0.93513,-0.087718
1630588174624,-0.28731,-0.934886,-0.088938
1630588174634,-0.285968,-0.934398,-0.09028
1630588174643,-0.284931,-0.935313,-0.09174399999999999
1630588174653,-0.28468699999999997,-0.934825,-0.09174399999999999
1630588174662,-0.283833,-0.935313,-0.093086
1630588174672,-0.284748,-0.935191,-0.092598
1630588174682,-0.284321,-0.934398,-0.093574
1630588174691,-0.28548,-0.93452,-0.093025
1630588174701,-0.285114,-0.9353739999999999,-0.092903
1630588174710,-0.28468699999999997,-0.934581,-0.093269
1630588174720,-0.28487,-0.935313,-0.093452
1630588174730,-0.284931,-0.934032,-0.092842
1630588174739,-0.283894,-0.933605,-0.093635
1630588174749,-0.282674,-0.9338489999999999,-0.094245
1630588174758,-0.282186,-0.934581,-0.094916
1630588174768,-0.282674,-0.934886,-0.094001
1630588174778,-0.282674,-0.936228,-0.090951
1630588174787,-0.284504,-0.936533,-0.088877
1630588174797,-0.284931,-0.934947,-0.088328
1630588174806,-0.284809,-0.932873,-0.089182
1630588174816,-0.284016,-0.9311039999999999,-0.090951
1630588174826,-0.283955,-0.929091,-0.09394
1630588174835,-0.283223,-0.930433,-0.096197
1630588174845,-0.28316199999999997,-0.931958,-0.097722
1630588174854,-0.28377199999999997,-0.935008,-0.097844
1630588174864,-0.28487,-0.93696,-0.099186
1630588174874,-0.285175,-0.938302,-0.099064
1630588174883,-0.28621199999999997,-0.937143,-0.099796
1630588174893,-0.285968,-0.935801,-0.10083299999999999
1630588174902,-0.286029,-0.934337,-0.10174799999999999
1630588174912,-0.285724,-0.934337,-0.10126
1630588174922,-0.286761,-0.935557,-0.101077
1630588174931,-0.2867,-0.936472,-0.101931
1630588174941,-0.287127,-0.9372039999999999,-0.099857
1630588174950,-0.287676,-0.9359839999999999,-0.09943
1630588174960,-0.288347,-0.935435,-0.09820999999999999
1630588174970,-0.288957,-0.935008,-0.097478
1630588174979,-0.289445,-0.934032,-0.097356
1630588174989,-0.289872,-0.933117,-0.096502
1630588174998,-0.289018,-0.932751,-0.09589199999999999
1630588175008,-0.288286,-0.932263,-0.09589199999999999
1630588175018,-0.288164,-0.9314089999999999,-0.09638
1630588175027,-0.287859,-0.932446,-0.097051
1630588175037,-0.286883,-0.933117,-0.09638
1630588175046,-0.287066,-0.933178,-0.096685
1630588175056,-0.288042,-0.9332389999999999,-0.095343
1630588175066,-0.288774,-0.9326289999999999,-0.094916
1630588175075,-0.287981,-0.932995,-0.09497699999999999
1630588175085,-0.287371,-0.933178,-0.09516
1630588175094,-0.288286,-0.9323239999999999,-0.094916
1630588175104,-0.287981,-0.9326289999999999,-0.096746
1630588175114,-0.287432,-0.932812,-0.097783
1630588175123,-0.285358,-0.933788,-0.099186
1630588175133,-0.28609,-0.934337,-0.09820999999999999
1630588175142,-0.287188,-0.9341539999999999,-0.098393
1630588175152,-0.287188,-0.934703,-0.098637
1630588175162,-0.287005,-0.934032,-0.098027
1630588175171,-0.287127,-0.933483,-0.097112
1630588175181,-0.288774,-0.933056,-0.097112
1630588175190,-0.288896,-0.933056,-0.097661
1630588175200,-0.289262,-0.934642,-0.098393
1630588175210,-0.289628,-0.935862,-0.097356
1630588175219,-0.289933,-0.9368989999999999,-0.09698999999999999
1630588175229,-0.291214,-0.937021,-0.096868
1630588175238,-0.290909,-0.936411,-0.096685
1630588175248,-0.290177,-0.9362889999999999,-0.09558699999999999
1630588175258,-0.289994,-0.935557,-0.095953
1630588175267,-0.289628,-0.934947,-0.09698999999999999
1630588175277,-0.289018,-0.934093,-0.09759999999999999
1630588175286,-0.287798,-0.933178,-0.098149
1630588175296,-0.288469,-0.9326289999999999,-0.098637
1630588175306,-0.28792,-0.932385,-0.098027
1630588175315,-0.287676,-0.932812,-0.097417
1630588175325,-0.287554,-0.933422,-0.09759999999999999
1630588175334,-0.286883,-0.9335439999999999,-0.098149
1630588175344,-0.287371,-0.9353739999999999,-0.097112
1630588175354,-0.287798,-0.935191,-0.09729499999999999
1630588175363,-0.287981,-0.9335439999999999,-0.096136
1630588175373,-0.288408,-0.931348,-0.09698999999999999
1630588175382,-0.288652,-0.930616,-0.09759999999999999
1630588175392,-0.288164,-0.9317139999999999,-0.097722
1630588175402,-0.288469,-0.932202,-0.097417
1630588175411,-0.288408,-0.932446,-0.095648
1630588175421,-0.288469,-0.9333,-0.096014
1630588175430,-0.28853,-0.9329339999999999,-0.096258
1630588175440,-0.288774,-0.933666,-0.095465
1630588175450,-0.289262,-0.934581,-0.096258
1630588175459,-0.289689,-0.93513,-0.09558699999999999
1630588175469,-0.289872,-0.934703,-0.096929
1630588175478,-0.289201,-0.933605,-0.097478
1630588175488,-0.28914,-0.934398,-0.09881999999999999
1630588175498,-0.28914,-0.934581,-0.099552
1630588175507,-0.288957,-0.935435,-0.09943
1630588175517,-0.287737,-0.9350689999999999,-0.099247
1630588175526,-0.287249,-0.934093,-0.096746
1630588175536,-0.288469,-0.932995,-0.095526
1630588175546,-0.287371,-0.9307989999999999,-0.096807
1630588175555,-0.287005,-0.926773,-0.099979
1630588175565,-0.286151,-0.925431,-0.103944
1630588175574,-0.284626,-0.927871,-0.105225
1630588175584,-0.283894,-0.931653,-0.106872
1630588175594,-0.284138,-0.9350689999999999,-0.107421
1630588175603,-0.285114,-0.937997,-0.106628
1630588175613,-0.287066,-0.939156,-0.106933
1630588175622,-0.288103,-0.937753,-0.10668899999999999
1630588175632,-0.28792,-0.9359839999999999,-0.107848
1630588175642,-0.288408,-0.934703,-0.10736
1630588175651,-0.287737,-0.9341539999999999,-0.10797
1630588175661,-0.287371,-0.93513,-0.108275
1630588175670,-0.287493,-0.9359839999999999,-0.10492
1630588175680,-0.288713,-0.935313,-0.103822
1630588175690,-0.289872,-0.933727,-0.10065
1630588175699,-0.290116,-0.932263,-0.098393
1630588175709,-0.288103,-0.93086,-0.099186
1630588175718,-0.288774,-0.9304939999999999,-0.098332
1630588175728,-0.288652,-0.930433,-0.09881999999999999
1630588175738,-0.288286,-0.930982,-0.10065
1630588175747,-0.28792,-0.930433,-0.10065
1630588175757,-0.288103,-0.930433,-0.103029
1630588175766,-0.287188,-0.93025,-0.10174799999999999
1630588175776,-0.287127,-0.931287,-0.101931
1630588175786,-0.288286,-0.9307989999999999,-0.102236
1630588175795,-0.288835,-0.931531,-0.10205299999999999
1630588175805,-0.287371,-0.930738,-0.102541
1630588175814,-0.28731,-0.9314089999999999,-0.102968
1630588175824,-0.288164,-0.931592,-0.102785
1630588175834,-0.287737,-0.9307989999999999,-0.10284599999999999
1630588175843,-0.287798,-0.9295789999999999,-0.104005
1630588175853,-0.287859,-0.930616,-0.103578
1630588175862,-0.287371,-0.92964,-0.103944
1630588175872,-0.287188,-0.9298839999999999,-0.10467599999999999
1630588175882,-0.287798,-0.929823,-0.10492
1630588175891,-0.288896,-0.929152,-0.104798
1630588175901,-0.289323,-0.930006,-0.10467599999999999
1630588175910,-0.289384,-0.929701,-0.104127
1630588175920,-0.290787,-0.929945,-0.10376099999999999
1630588175930,-0.291092,-0.930128,-0.101992
1630588175939,-0.29219,-0.930921,-0.102114
1630588175949,-0.292617,-0.930311,-0.101199
1630588175958,-0.294386,-0.929762,-0.10083299999999999
1630588175968,-0.294325,-0.9307989999999999,-0.100162
1630588175978,-0.29426399999999997,-0.931653,-0.100772
1630588175987,-0.29426399999999997,-0.932202,-0.101565
1630588175997,-0.29517899999999997,-0.9326289999999999,-0.102724
1630588176006,-0.294935,-0.932812,-0.104432
1630588176016,-0.294996,-0.933788,-0.105225
1630588176026,-0.294813,-0.932995,-0.10614
1630588176035,-0.294752,-0.9335439999999999,-0.108031
1630588176045,-0.294752,-0.934398,-0.108275
1630588176054,-0.294508,-0.934398,-0.109678
1630588176064,-0.294508,-0.935618,-0.110715
1630588176074,-0.294081,-0.9359839999999999,-0.110776
1630588176083,-0.29426399999999997,-0.937631,-0.111081
1630588176093,-0.29395899999999997,-0.936106,-0.111386
1630588176102,-0.293227,-0.935923,-0.11223999999999999
1630588176112,-0.293105,-0.936106,-0.113582
1630588176122,-0.29219,-0.935435,-0.114619
1630588176131,-0.29036,-0.934215,-0.11516799999999999
1630588176141,-0.291092,-0.935191,-0.11547299999999999
1630588176150,-0.289994,-0.933727,-0.115046
1630588176160,-0.289323,-0.933483,-0.114558
1630588176170,-0.289506,-0.9323239999999999,-0.11376499999999999
1630588176179,-0.288591,-0.933178,-0.113887
1630588176189,-0.288713,-0.9326289999999999,-0.113094
1630588176198,-0.289384,-0.932141,-0.112423
1630588176208,-0.287981,-0.9314089999999999,-0.112484
1630588176218,-0.286334,-0.93086,-0.11223999999999999
1630588176227,-0.285541,-0.930067,-0.111996
1630588176237,-0.285968,-0.930067,-0.111813
1630588176246,-0.285846,-0.930372,-0.110349
1630588176256,-0.285968,-0.9314089999999999,-0.10760399999999999
1630588176266,-0.286456,-0.930433,-0.105957
1630588176275,-0.288042,-0.929152,-0.10498099999999999
1630588176285,-0.287432,-0.9272,-0.106262
1630588176294,-0.286151,-0.926285,-0.108519
1630588176304,-0.285175,-0.925675,-0.111081
1630588176314,-0.284321,-0.927322,-0.112179
1630588176323,-0.283955,-0.931043,-0.11284999999999999
1630588176333,-0.284931,-0.933788,-0.113277
1630588176342,-0.28499199999999997,-0.936472,-0.11406999999999999
1630588176352,-0.284748,-0.936838,-0.11577799999999999
1630588176362,-0.284565,-0.936106,-0.11712
1630588176371,-0.283711,-0.9362889999999999,-0.117974
1630588176381,-0.28316199999999997,-0.9344589999999999,-0.118828
1630588176390,-0.282674,-0.934215,-0.120048
1630588176400,-0.282003,-0.934581,-0.120048
1630588176410,-0.281271,-0.934581,-0.120536
1630588176419,-0.281759,-0.934581,-0.11992599999999999
1630588176429,-0.281576,-0.935923,-0.119804
1630588176438,-0.28255199999999997,-0.9378139999999999,-0.11956
1630588176448,-0.28224699999999997,-0.939766,-0.119865
1630588176458,-0.282918,-0.939888,-0.120902
1630588176467,-0.281454,-0.940071,-0.121085
1630588176477,-0.28041699999999997,-0.939827,-0.121817
1630588176486,-0.280966,-0.939339,-0.12193899999999999
1630588176496,-0.280478,-0.9394,-0.122
1630588176506,-0.281576,-0.94001,-0.11962099999999999
1630588176515,-0.282369,-0.938912,-0.116449
1630588176525,-0.282491,-0.939095,-0.115961
1630588176534,-0.283223,-0.937448,-0.113887
1630588176544,-0.283589,-0.935923,-0.112728
1630588176554,-0.283894,-0.93452,-0.113033
1630588176563,-0.284443,-0.934337,-0.111325
1630588176573,-0.285541,-0.935618,-0.110776
1630588176582,-0.284748,-0.936533,-0.109068
1630588176592,-0.284199,-0.935801,-0.108519
1630588176602,-0.283284,-0.934642,-0.108092
1630588176611,-0.282186,-0.934337,-0.106811
1630588176621,-0.280661,-0.933666,-0.107665
1630588176630,-0.280966,-0.93269,-0.10729899999999999
1630588176640,-0.279929,-0.931226,-0.109129
1630588176650,-0.279929,-0.932812,-0.109434
1630588176659,-0.278404,-0.933727,-0.110715
1630588176669,-0.279868,-0.934337,-0.110776
1630588176678,-0.27938,-0.934703,-0.112301
1630588176688,-0.277672,-0.934337,-0.112606
1630588176698,-0.277184,-0.934642,-0.112179
1630588176707,-0.278282,-0.9350689999999999,-0.111813
1630588176717,-0.277489,-0.935008,-0.110898
1630588176726,-0.277245,-0.934093,-0.111203
1630588176736,-0.278587,-0.933422,-0.108702
1630588176746,-0.277916,-0.933666,-0.107726
1630588176755,-0.278709,-0.933605,-0.10760399999999999
1630588176765,-0.279441,-0.933788,-0.106811
1630588176774,-0.280173,-0.933666,-0.106018
1630588176784,-0.279807,-0.93391,-0.10553
1630588176794,-0.280173,-0.9341539999999999,-0.103578
1630588176803,-0.2806,-0.933971,-0.103883
1630588176813,-0.280539,-0.932507,-0.103639
1630588176822,-0.280356,-0.932507,-0.10345599999999999
1630588176832,-0.280905,-0.932995,-0.10187
1630588176842,-0.279746,-0.931958,-0.101992
1630588176851,-0.280356,-0.93147,-0.10309
1630588176861,-0.28041699999999997,-0.930311,-0.102907
1630588176870,-0.28133199999999997,-0.930311,-0.102724
1630588176880,-0.282186,-0.9304939999999999,-0.10174799999999999
1630588176890,-0.28346699999999997,-0.93208,-0.100772
1630588176899,-0.284321,-0.933483,-0.100711
1630588176909,-0.28438199999999997,-0.934825,-0.099369
1630588176918,-0.28529699999999997,-0.9344589999999999,-0.099308
1630588176928,-0.28609,-0.935801,-0.098942
1630588176938,-0.286517,-0.9344589999999999,-0.097783
1630588176947,-0.287371,-0.935008,-0.098149
1630588176957,-0.286944,-0.934276,-0.097722
1630588176966,-0.286639,-0.934398,-0.098332
1630588176976,-0.286578,-0.932385,-0.098698
1630588176986,-0.286334,-0.9320189999999999,-0.098576
1630588176995,-0.287249,-0.934032,-0.097966
1630588177005,-0.287188,-0.9341539999999999,-0.095648
1630588177014,-0.287127,-0.934947,-0.094794
1630588177024,-0.288286,-0.933788,-0.095099
1630588177034,-0.288408,-0.932507,-0.09698999999999999
1630588177043,-0.286334,-0.9286639999999999,-0.100162
1630588177053,-0.28499199999999997,-0.927322,-0.10174799999999999
1630588177062,-0.284626,-0.928603,-0.104432
1630588177072,-0.284626,-0.929945,-0.10614
1630588177082,-0.285541,-0.932995,-0.10699399999999999
1630588177091,-0.28621199999999997,-0.9347639999999999,-0.105957
1630588177101,-0.287371,-0.9368989999999999,-0.10668899999999999
1630588177110,-0.28914,-0.937021,-0.106262
1630588177120,-0.288896,-0.936472,-0.107543
1630588177130,-0.288469,-0.934886,-0.108397
1630588177139,-0.287615,-0.93574,-0.10931199999999999
1630588177149,-0.287676,-0.93452,-0.111081
1630588177158,-0.287127,-0.9365939999999999,-0.110105
1630588177168,-0.28792,-0.936655,-0.109068
1630588177178,-0.288896,-0.936716,-0.107543
1630588177187,-0.289811,-0.936167,-0.106628
1630588177197,-0.289872,-0.935191,-0.105713
1630588177206,-0.289384,-0.934947,-0.104615
1630588177216,-0.288652,-0.933666,-0.103517
1630588177226,-0.288103,-0.9335439999999999,-0.102968
1630588177235,-0.287371,-0.934337,-0.104188
1630588177245,-0.287676,-0.933605,-0.10607899999999999
1630588177254,-0.28621199999999997,-0.932446,-0.10577399999999999
1630588177264,-0.287188,-0.931043,-0.105896
1630588177274,-0.28731,-0.9301889999999999,-0.105103
1630588177283,-0.287188,-0.930128,-0.104615
1630588177293,-0.286944,-0.930738,-0.105042
1630588177302,-0.286761,-0.9314089999999999,-0.105408
1630588177312,-0.285053,-0.932141,-0.107116
1630588177322,-0.285114,-0.931226,-0.106628
1630588177331,-0.285114,-0.93025,-0.108092
1630588177341,-0.284809,-0.9307989999999999,-0.108519
1630588177350,-0.28529699999999997,-0.930921,-0.108946
1630588177360,-0.285541,-0.9314089999999999,-0.109129
1630588177370,-0.285419,-0.932263,-0.109556
1630588177379,-0.28609,-0.9323239999999999,-0.109068
1630588177389,-0.28487,-0.932812,-0.108885
1630588177398,-0.285541,-0.934032,-0.108946
1630588177408,-0.284748,-0.93452,-0.109678
1630588177418,-0.284748,-0.935801,-0.110593
1630588177427,-0.28407699999999997,-0.9347639999999999,-0.11114199999999999
1630588177437,-0.284321,-0.93513,-0.11041
1630588177446,-0.28438199999999997,-0.933788,-0.110105
1630588177456,-0.284443,-0.932995,-0.109251
1630588177466,-0.28438199999999997,-0.93208,-0.108885
1630588177475,-0.285419,-0.932446,-0.108519
1630588177485,-0.284504,-0.9335439999999999,-0.108885
1630588177494,-0.28438199999999997,-0.932812,-0.108519
1630588177504,-0.284443,-0.932751,-0.108397
1630588177514,-0.28468699999999997,-0.933117,-0.109129
1630588177523,-0.284504,-0.933361,-0.108885
1630588177533,-0.28468699999999997,-0.9332389999999999,-0.109495
1630588177542,-0.284443,-0.934276,-0.109556
1630588177552,-0.283711,-0.934947,-0.109556
1630588177562,-0.285541,-0.9347639999999999,-0.110166
1630588177571,-0.286334,-0.934886,-0.110044
1630588177581,-0.287798,-0.93513,-0.109129
1630588177590,-0.287981,-0.935313,-0.108519
1630588177600,-0.28914,-0.93574,-0.108519
1630588177610,-0.289628,-0.935862,-0.107421
1630588177619,-0.289262,-0.934825,-0.107543
1630588177629,-0.288774,-0.934337,-0.107787
1630588177638,-0.289262,-0.9341539999999999,-0.108214
1630588177648,-0.287737,-0.934093,-0.108336
1630588177658,-0.287554,-0.932873,-0.10931199999999999
1630588177667,-0.287493,-0.933361,-0.109678
1630588177677,-0.287798,-0.9332389999999999,-0.109739
1630588177686,-0.288164,-0.933483,-0.110654
1630588177696,-0.287432,-0.9341539999999999,-0.11041
1630588177706,-0.288286,-0.9350689999999999,-0.110898
1630588177715,-0.288164,-0.934886,-0.110959
1630588177725,-0.287432,-0.933422,-0.110898
1630588177734,-0.28609,-0.932263,-0.112972
1630588177744,-0.28621199999999997,-0.933178,-0.113643
1630588177754,-0.285358,-0.933605,-0.113643
1630588177763,-0.285968,-0.934215,-0.112606
1630588177773,-0.285114,-0.934581,-0.110349
1630588177782,-0.28609,-0.934093,-0.108824
1630588177792,-0.286944,-0.9317139999999999,-0.10736
1630588177802,-0.28590699999999997,-0.928603,-0.108824
1630588177811,-0.284931,-0.925858,-0.110715
1630588177821,-0.283589,-0.925065,-0.11284999999999999
1630588177830,-0.283528,-0.9259189999999999,-0.11315499999999999
1630588177840,-0.283223,-0.927932,-0.114802
1630588177850,-0.285175,-0.930433,-0.113826
1630588177859,-0.285724,-0.93208,-0.113643
1630588177869,-0.287188,-0.934032,-0.11254499999999999
1630588177878,-0.288652,-0.933788,-0.11315499999999999
1630588177888,-0.288652,-0.932568,-0.114192
1630588177898,-0.288896,-0.931958,-0.114375
1630588177907,-0.288408,-0.932263,-0.114375
1630588177917,-0.287981,-0.931653,-0.113338
1630588177926,-0.288408,-0.931958,-0.112484
1630588177936,-0.28853,-0.931348,-0.110959
1630588177946,-0.289628,-0.9311039999999999,-0.11053199999999999
1630588177955,-0.289933,-0.931836,-0.109678
1630588177965,-0.288896,-0.9317139999999999,-0.110471
1630588177974,-0.289323,-0.9320189999999999,-0.1098
1630588177984,-0.288652,-0.932507,-0.110959
1630588177994,-0.289018,-0.933178,-0.11254499999999999
1630588178003,-0.288896,-0.9338489999999999,-0.112911
1630588178013,-0.287188,-0.934825,-0.112728
1630588178022,-0.287859,-0.934947,-0.111569
1630588178032,-0.288408,-0.93452,-0.111508
1630588178042,-0.288835,-0.934337,-0.11114199999999999
1630588178051,-0.287859,-0.933666,-0.111264
1630588178061,-0.28792,-0.933117,-0.111447
1630588178070,-0.288652,-0.932507,-0.111508
1630588178080,-0.288896,-0.92964,-0.111874
1630588178090,-0.28914,-0.930555,-0.11053199999999999
1630588178099,-0.289994,-0.93147,-0.110959
1630588178109,-0.290238,-0.934032,-0.111081
1630588178118,-0.291336,-0.934703,-0.111386
1630588178128,-0.290787,-0.935923,-0.111874
1630588178138,-0.291641,-0.9350689999999999,-0.110898
1630588178147,-0.291458,-0.9341539999999999,-0.110288
1630588178157,-0.291031,-0.934093,-0.110105
1630588178166,-0.291153,-0.932568,-0.110105
1630588178176,-0.29212899999999997,-0.931165,-0.109434
1630588178186,-0.291763,-0.931592,-0.10961699999999999
1630588178195,-0.291885,-0.9323239999999999,-0.108885
1630588178205,-0.291214,-0.933178,-0.108214
1630588178214,-0.291519,-0.93269,-0.108214
1630588178224,-0.291458,-0.93269,-0.108336
1630588178234,-0.291519,-0.931958,-0.10736
1630588178243,-0.290787,-0.931226,-0.10797
1630588178253,-0.291702,-0.930982,-0.10736
1630588178262,-0.291031,-0.930128,-0.107543
1630588178272,-0.291458,-0.9289689999999999,-0.108031
1630588178282,-0.29212899999999997,-0.928786,-0.108702
1630588178291,-0.291336,-0.929701,-0.108153
1630588178301,-0.291458,-0.930128,-0.108824
1630588178310,-0.292617,-0.92964,-0.109678
1630588178320,-0.292007,-0.929091,-0.108824
1630588178330,-0.29341,-0.929396,-0.109434
1630588178339,-0.293288,-0.9292739999999999,-0.109068
1630588178349,-0.293288,-0.929762,-0.108641
1630588178358,-0.293471,-0.9304939999999999,-0.108702
1630588178368,-0.294142,-0.9298839999999999,-0.10961699999999999
1630588178378,-0.293837,-0.929152,-0.11041
1630588178387,-0.29487399999999997,-0.92964,-0.111386
1630588178397,-0.295606,-0.9304939999999999,-0.109739
1630588178406,-0.29548399999999997,-0.930433,-0.111569
1630588178416,-0.295057,-0.931836,-0.110776
1630588178426,-0.295545,-0.931653,-0.109983
1630588178435,-0.295362,-0.930128,-0.109983
1630588178445,-0.295423,-0.930433,-0.1098
1630588178454,-0.29609399999999997,-0.931775,-0.110288
1630588178464,-0.29585,-0.9314089999999999,-0.109678
1630588178474,-0.294935,-0.9314089999999999,-0.109861
1630588178483,-0.295362,-0.93208,-0.11022699999999999
1630588178493,-0.293898,-0.930738,-0.111447
1630588178502,-0.291824,-0.930738,-0.11223999999999999
1630588178512,-0.292922,-0.930372,-0.11284999999999999
1630588178522,-0.29273899999999997,-0.929213,-0.11284999999999999
1630588178531,-0.292251,-0.930555,-0.11163
1630588178541,-0.29334899999999997,-0.930677,-0.1098
1630588178550,-0.293898,-0.930616,-0.109495
1630588178560,-0.295057,-0.929396,-0.111386
1630588178570,-0.29487399999999997,-0.928481,-0.114558
1630588178579,-0.294142,-0.928847,-0.116754
1630588178589,-0.293288,-0.930616,-0.119377
1630588178598,-0.29334899999999997,-0.933971,-0.121207
1630588178608,-0.29402,-0.9368989999999999,-0.120414
1630588178618,-0.294691,-0.937753,-0.11956
1630588178627,-0.295606,-0.9375089999999999,-0.11870599999999999
1630588178637,-0.295972,-0.936655,-0.119438
1630588178646,-0.29670399999999997,-0.934276,-0.119438
1630588178656,-0.29646,-0.933727,-0.118523
1630588178666,-0.29609399999999997,-0.9326289999999999,-0.117181
1630588178675,-0.295423,-0.932263,-0.116327
1630588178685,-0.295118,-0.93269,-0.115107
1630588178694,-0.294813,-0.931592,-0.114192
1630588178704,-0.29463,-0.9311039999999999,-0.11223999999999999
1630588178714,-0.294142,-0.9292739999999999,-0.111508
1630588178723,-0.294508,-0.928603,-0.111386
1630588178733,-0.293288,-0.929091,-0.10992199999999999
1630588178742,-0.29365399999999997,-0.929091,-0.109983
1630588178752,-0.292556,-0.929762,-0.10961699999999999
1630588178762,-0.291702,-0.929945,-0.109129
1630588178771,-0.29097,-0.93086,-0.108885
1630588178781,-0.291092,-0.929762,-0.107726
1630588178790,-0.292495,-0.92903,-0.10675
1630588178800,-0.29219,-0.929335,-0.10492
1630588178810,-0.291641,-0.929396,-0.10431
1630588178819,-0.291397,-0.930006,-0.10492
1630588178829,-0.290909,-0.928847,-0.103395
1630588178838,-0.290909,-0.92781,-0.103395
1630588178848,-0.291702,-0.926895,-0.102724
1630588178858,-0.292556,-0.925797,-0.10205299999999999
1630588178867,-0.291519,-0.926651,-0.103029
1630588178877,-0.291519,-0.928725,-0.1037
1630588178886,-0.291031,-0.930921,-0.10406599999999999
1630588178896,-0.291031,-0.932812,-0.105347
1630588178906,-0.292068,-0.935313,-0.106262
1630588178915,-0.292312,-0.936533,-0.108214
1630588178925,-0.292678,-0.937875,-0.109678
1630588178934,-0.292007,-0.938485,-0.109556
1630588178944,-0.292556,-0.93818,-0.108458
1630588178954,-0.292922,-0.939705,-0.108336
1630588178963,-0.293776,-0.941352,-0.108885
1630588178973,-0.29426399999999997,-0.9423279999999999,-0.108336
1630588178982,-0.294325,-0.941352,-0.108458
1630588178992,-0.29426399999999997,-0.941535,-0.10668899999999999
1630588179002,-0.292373,-0.940498,-0.104249
1630588179011,-0.291275,-0.9378139999999999,-0.102907
1630588179021,-0.290116,-0.933971,-0.10126
1630588179030,-0.28853,-0.931226,-0.101626
1630588179040,-0.286822,-0.9295789999999999,-0.103395
1630588179050,-0.28548,-0.928786,-0.104249
1630588179059,-0.283406,-0.92903,-0.10345599999999999
1630588179069,-0.283223,-0.929335,-0.10376099999999999
1630588179078,-0.282735,-0.930006,-0.102907
1630588179088,-0.28346699999999997,-0.9304939999999999,-0.101687
1630588179098,-0.28316199999999997,-0.930982,-0.101931
1630588179107,-0.283589,-0.930616,-0.101565
1630588179117,-0.284565,-0.93086,-0.101077
1630588179126,-0.284443,-0.930921,-0.10022299999999999
1630588179136,-0.285419,-0.930982,-0.09790499999999999
1630588179146,-0.285541,-0.931287,-0.09528199999999999
1630588179155,-0.286822,-0.931836,-0.09406199999999999
1630588179165,-0.288835,-0.931531,-0.09174399999999999
1630588179174,-0.289811,-0.931836,-0.089487
1630588179184,-0.290238,-0.931836,-0.087474
1630588179194,-0.290543,-0.933056,-0.085522
1630588179203,-0.291336,-0.933117,-0.084912
1630588179213,-0.290909,-0.933666,-0.083326
1630588179222,-0.290909,-0.933483,-0.082899
1630588179232,-0.291702,-0.932995,-0.082777
1630588179242,-0.291275,-0.932995,-0.083326
1630588179251,-0.291092,-0.934032,-0.084302
1630588179261,-0.290421,-0.934093,-0.083936
1630588179270,-0.290848,-0.935191,-0.084119
1630588179280,-0.288835,-0.935557,-0.08295999999999999
1630588179290,-0.288835,-0.936167,-0.081191
1630588179299,-0.288469,-0.93635,-0.081618
1630588179309,-0.288408,-0.936228,-0.08234999999999999
1630588179318,-0.28590699999999997,-0.9338489999999999,-0.084668
1630588179328,-0.285236,-0.93269,-0.086925
1630588179338,-0.283345,-0.931958,-0.087718
1630588179347,-0.282186,-0.932202,-0.088694
1630588179357,-0.282186,-0.933483,-0.088938
1630588179366,-0.283101,-0.934642,-0.088633
1630588179376,-0.28316199999999997,-0.93574,-0.087962
1630588179386,-0.283284,-0.934825,-0.087596
1630588179395,-0.284321,-0.934032,-0.088084
1630588179405,-0.284504,-0.9333,-0.089548
1630588179414,-0.283711,-0.935191,-0.09089
1630588179424,-0.28316199999999997,-0.935557,-0.089853
1630588179434,-0.283284,-0.934642,-0.088877
1630588179443,-0.285175,-0.9350689999999999,-0.088877
1630588179453,-0.28590699999999997,-0.9338489999999999,-0.087291
1630588179462,-0.286578,-0.9341539999999999,-0.087108
1630588179472,-0.286456,-0.933971,-0.08479
1630588179482,-0.287066,-0.935191,-0.083997
1630588179491,-0.287981,-0.934398,-0.083814
1630588179501,-0.288042,-0.9335439999999999,-0.083082
1630588179510,-0.289201,-0.9329339999999999,-0.08356999999999999
1630588179520,-0.288164,-0.933178,-0.083082
1630588179530,-0.287981,-0.933117,-0.080764
1630588179539,-0.29036,-0.932507,-0.078995
1630588179549,-0.29158,-0.932385,-0.078141
1630588179558,-0.29219,-0.931836,-0.07686
1630588179568,-0.291397,-0.93208,-0.075396
1630588179578,-0.291153,-0.930982,-0.075091
1630588179587,-0.291397,-0.930372,-0.075579
1630588179597,-0.291702,-0.929457,-0.077531
1630588179606,-0.292007,-0.929518,-0.077836
1630588179616,-0.291946,-0.930677,-0.078385
1630588179626,-0.292495,-0.9317139999999999,-0.07972699999999999
1630588179635,-0.29365399999999997,-0.932263,-0.080886
1630588179645,-0.293166,-0.9323239999999999,-0.081618
1630588179654,-0.293715,-0.93391,-0.083082
1630588179664,-0.29273899999999997,-0.933605,-0.083814
1630588179674,-0.29273899999999997,-0.933971,-0.084363
1630588179683,-0.29273899999999997,-0.933178,-0.084363
1630588179693,-0.292678,-0.934276,-0.084668
1630588179702,-0.292678,-0.934642,-0.085705
1630588179712,-0.292251,-0.935496,-0.086071
1630588179722,-0.292068,-0.934886,-0.08662
1630588179731,-0.29304399999999997,-0.9353739999999999,-0.087657
1630588179741,-0.293166,-0.935252,-0.08723
1630588179750,-0.293288,-0.935801,-0.087169
1630588179760,-0.292983,-0.934886,-0.08820599999999999
1630588179770,-0.29304399999999997,-0.934642,-0.08723
1630588179779,-0.293593,-0.935862,-0.088694
1630588179789,-0.291946,-0.935557,-0.089487
1630588179798,-0.292373,-0.935008,-0.08973099999999999
1630588179808,-0.292007,-0.935252,-0.090524
1630588179818,-0.29158,-0.934947,-0.090768
1630588179827,-0.292007,-0.93513,-0.09028
1630588179837,-0.292617,-0.935008,-0.08942599999999999
1630588179846,-0.292068,-0.934398,-0.088633
1630588179856,-0.29243399999999997,-0.934032,-0.08881599999999999
1630588179866,-0.29219,-0.9329339999999999,-0.088023
1630588179875,-0.292617,-0.931775,-0.08906
1630588179885,-0.292983,-0.932202,-0.08845
1630588179894,-0.29243399999999997,-0.9317139999999999,-0.08784
1630588179904,-0.29304399999999997,-0.931653,-0.08723
1630588179914,-0.292556,-0.931958,-0.087352
1630588179923,-0.293105,-0.931592,-0.086986
1630588179933,-0.291458,-0.9311039999999999,-0.086925
1630588179942,-0.292678,-0.93269,-0.086925
1630588179952,-0.292556,-0.931958,-0.086437
1630588179962,-0.29304399999999997,-0.932446,-0.085217
1630588179971,-0.29426399999999997,-0.9314089999999999,-0.085156
1630588179981,-0.293532,-0.930372,-0.084851
1630588179990,-0.292617,-0.931897,-0.086132
1630588180000,-0.292495,-0.9320189999999999,-0.08662
1630588180010,-0.291946,-0.934398,-0.086376
1630588180019,-0.291336,-0.9335439999999999,-0.084546
1630588180029,-0.291824,-0.9338489999999999,-0.083753
1630588180038,-0.293166,-0.933117,-0.083021
1630588180048,-0.29243399999999997,-0.931226,-0.084058
1630588180058,-0.291519,-0.929091,-0.086315
1630588180067,-0.290421,-0.928725,-0.088999
1630588180077,-0.289628,-0.929152,-0.090097
1630588180086,-0.289506,-0.930006,-0.090768
1630588180096,-0.290482,-0.932568,-0.09143899999999999
1630588180106,-0.291092,-0.934642,-0.091378
1630588180115,-0.291702,-0.936167,-0.091378
1630588180125,-0.2928,-0.936655,-0.09174399999999999
1630588180134,-0.29304399999999997,-0.937265,-0.093269
1630588180144,-0.29243399999999997,-0.935618,-0.094306
1630588180154,-0.292617,-0.9350689999999999,-0.095648
1630588180163,-0.293105,-0.935496,-0.09589199999999999
1630588180173,-0.292373,-0.935557,-0.094123
1630588180182,-0.29304399999999997,-0.935313,-0.094123
1630588180192,-0.29365399999999997,-0.93391,-0.091927
1630588180202,-0.29365399999999997,-0.9341539999999999,-0.091317
1630588180211,-0.294081,-0.934337,-0.08881599999999999
1630588180221,-0.293715,-0.934276,-0.08851099999999999
1630588180230,-0.293776,-0.9347639999999999,-0.088023
1630588180240,-0.293166,-0.934032,-0.088328
1630588180250,-0.292983,-0.934032,-0.088633
1630588180259,-0.292617,-0.933117,-0.089365
1630588180269,-0.290848,-0.932446,-0.088267
1630588180278,-0.291275,-0.930982,-0.088999
1630588180288,-0.291458,-0.93147,-0.088389
1630588180298,-0.290299,-0.9301889999999999,-0.088694
1630588180307,-0.290299,-0.9311039999999999,-0.088755
1630588180317,-0.29036,-0.9311039999999999,-0.088694
1630588180326,-0.28975,-0.932446,-0.089365
1630588180336,-0.289079,-0.932507,-0.089975
1630588180346,-0.289933,-0.932141,-0.090402
1630588180355,-0.289994,-0.932263,-0.090402
1630588180365,-0.290055,-0.931592,-0.08973099999999999
1630588180374,-0.290665,-0.932568,-0.090158
1630588180384,-0.291763,-0.93208,-0.089914
1630588180394,-0.292556,-0.9320189999999999,-0.08906
1630588180403,-0.292556,-0.933666,-0.089365
1630588180413,-0.293288,-0.933788,-0.08942599999999999
1630588180422,-0.294142,-0.934886,-0.08845
1630588180432,-0.294935,-0.9338489999999999,-0.087169
1630588180442,-0.296277,-0.9329339999999999,-0.08723
1630588180451,-0.295728,-0.9323239999999999,-0.087657
1630588180461,-0.29487399999999997,-0.9323239999999999,-0.086925
1630588180470,-0.294996,-0.932507,-0.086437
1630588180480,-0.295728,-0.933483,-0.087108
1630588180490,-0.295728,-0.932507,-0.087657
1630588180499,-0.29524,-0.932812,-0.087657
1630588180509,-0.294996,-0.932263,-0.088389
1630588180518,-0.29517899999999997,-0.932812,-0.087962
1630588180528,-0.295301,-0.932568,-0.08662
1630588180538,-0.295423,-0.932507,-0.08680299999999999
1630588180547,-0.29609399999999997,-0.9326289999999999,-0.087352
1630588180557,-0.296216,-0.932873,-0.087535
1630588180566,-0.29609399999999997,-0.93208,-0.087962
1630588180576,-0.295972,-0.931775,-0.088389
1630588180586,-0.29609399999999997,-0.9326289999999999,-0.08723
1630588180595,-0.29639899999999997,-0.933422,-0.08662
1630588180605,-0.29548399999999997,-0.933971,-0.085766
1630588180614,-0.296033,-0.931592,-0.085705
1630588180624,-0.296765,-0.929518,-0.086437
1630588180634,-0.29700899999999997,-0.928237,-0.087718
1630588180643,-0.297436,-0.929335,-0.086864
1630588180653,-0.296643,-0.931348,-0.08588799999999999
1630588180662,-0.29700899999999997,-0.932202,-0.085156
1630588180672,-0.29761899999999997,-0.934093,-0.084424
1630588180682,-0.29768,-0.9329339999999999,-0.085644
1630588180691,-0.297192,-0.933483,-0.085095
1630588180701,-0.296155,-0.934093,-0.084485
1630588180710,-0.296826,-0.9344589999999999,-0.085095
1630588180720,-0.296338,-0.933361,-0.08662
1630588180730,-0.295728,-0.932751,-0.08649799999999999
1630588180739,-0.295606,-0.932812,-0.086132
1630588180749,-0.295057,-0.9344589999999999,-0.086315
1630588180758,-0.29487399999999997,-0.933483,-0.08680299999999999
1630588180768,-0.294447,-0.932751,-0.084729
1630588180778,-0.294752,-0.9329339999999999,-0.082838
1630588180787,-0.294325,-0.9338489999999999,-0.081008
1630588180797,-0.294813,-0.931287,-0.08204499999999999
1630588180806,-0.294386,-0.9286639999999999,-0.084424
1630588180816,-0.29273899999999997,-0.927383,-0.086437
1630588180826,-0.291458,-0.928298,-0.088267
1630588180835,-0.290116,-0.9304939999999999,-0.089304
1630588180845,-0.290116,-0.933483,-0.090402
1630588180854,-0.289994,-0.934886,-0.089487
1630588180864,-0.290482,-0.936106,-0.090524
1630588180874,-0.29158,-0.934337,-0.091378
1630588180883,-0.29219,-0.932995,-0.092598
1630588180893,-0.291641,-0.93025,-0.093818
1630588180902,-0.291946,-0.930372,-0.094123
1630588180912,-0.291214,-0.9311039999999999,-0.094916
1630588180922,-0.291885,-0.93452,-0.093391
1630588180931,-0.29243399999999997,-0.934398,-0.093086
1630588180941,-0.29243399999999997,-0.93452,-0.09211
1630588180950,-0.29304399999999997,-0.932995,-0.091866
1630588180960,-0.293288,-0.932568,-0.091317
1630588180970,-0.294325,-0.931653,-0.091195
1630588180979,-0.293898,-0.931348,-0.089609
1630588180989,-0.294386,-0.93086,-0.089365
1630588180998,-0.294752,-0.9301889999999999,-0.089975
1630588181008,-0.294996,-0.93086,-0.090219
1630588181018,-0.294813,-0.93269,-0.08851099999999999
1630588181027,-0.295362,-0.932446,-0.088267
1630588181037,-0.296643,-0.9320189999999999,-0.087413
1630588181046,-0.297436,-0.932202,-0.087718
1630588181056,-0.297131,-0.931836,-0.08723
1630588181066,-0.29700899999999997,-0.930982,-0.088328
1630588181075,-0.296216,-0.929335,-0.088755
1630588181085,-0.297131,-0.929091,-0.088999
1630588181094,-0.29646,-0.9295789999999999,-0.089487
1630588181104,-0.296277,-0.930006,-0.089304
1630588181114,-0.297131,-0.93025,-0.08973099999999999
1630588181123,-0.298168,-0.929823,-0.08967
1630588181133,-0.297985,-0.931287,-0.08845
1630588181142,-0.298839,-0.9311039999999999,-0.089487
1630588181152,-0.298595,-0.9314089999999999,-0.08942599999999999
1630588181162,-0.299876,-0.931531,-0.08912099999999999
1630588181171,-0.300364,-0.932263,-0.088694
1630588181181,-0.299388,-0.931897,-0.08973099999999999
1630588181190,-0.300486,-0.932385,-0.089304
1630588181200,-0.299693,-0.932568,-0.088389
1630588181210,-0.299388,-0.93208,-0.088389
1630588181219,-0.299693,-0.930555,-0.08881599999999999
1630588181229,-0.299388,-0.93025,-0.089304
1630588181238,-0.299083,-0.930128,-0.08942599999999999
1630588181248,-0.2989,-0.929823,-0.089792
1630588181258,-0.298168,-0.929152,-0.090219
1630588181267,-0.298412,-0.929152,-0.090646
1630588181277,-0.298046,-0.929152,-0.090097
1630588181286,-0.298656,-0.9286639999999999,-0.091256
1630588181296,-0.299266,-0.929396,-0.09174399999999999
1630588181306,-0.299083,-0.930677,-0.090524
1630588181315,-0.300059,-0.930616,-0.090646
1630588181325,-0.299937,-0.931775,-0.090219
1630588181334,-0.30012,-0.932202,-0.090585
1630588181344,-0.300608,-0.932263,-0.090402
1630588181354,-0.300791,-0.932141,-0.089304
1630588181363,-0.300913,-0.931226,-0.089548
1630588181373,-0.30073,-0.931226,-0.088999
1630588181382,-0.300547,-0.929945,-0.090219
1630588181392,-0.301645,-0.9298839999999999,-0.089304
1630588181402,-0.301645,-0.929762,-0.08912099999999999
1630588181411,-0.301889,-0.930372,-0.088389
1630588181421,-0.30195,-0.930982,-0.087718
1630588181430,-0.301828,-0.930921,-0.08820599999999999
1630588181440,-0.301523,-0.931287,-0.08790099999999999
1630588181450,-0.301218,-0.9317139999999999,-0.08820599999999999
1630588181459,-0.300608,-0.93208,-0.088572
1630588181469,-0.300547,-0.932141,-0.089548
1630588181478,-0.300364,-0.930311,-0.090707
1630588181488,-0.298656,-0.9301889999999999,-0.090646
1630588181498,-0.298107,-0.93025,-0.091988
1630588181507,-0.298046,-0.929701,-0.091317
1630588181517,-0.29822899999999997,-0.929701,-0.091988
1630588181526,-0.297375,-0.931226,-0.090646
1630588181536,-0.297497,-0.931531,-0.08967
1630588181546,-0.2989,-0.930433,-0.089182
1630588181555,-0.298595,-0.9289689999999999,-0.089365
1630588181565,-0.298046,-0.927505,-0.090707
1630588181574,-0.296826,-0.92781,-0.093818
1630588181584,-0.295301,-0.928786,-0.09577
1630588181594,-0.294508,-0.9298839999999999,-0.09759999999999999
1630588181603,-0.295057,-0.932141,-0.098088
1630588181613,-0.294691,-0.933422,-0.099125
1630588181622,-0.293776,-0.933483,-0.100162
1630588181632,-0.29548399999999997,-0.932812,-0.101321
1630588181642,-0.294508,-0.932873,-0.101382
1630588181651,-0.29463,-0.933117,-0.102907
1630588181661,-0.293593,-0.934337,-0.10205299999999999
1630588181670,-0.29395899999999997,-0.935252,-0.100772
1630588181680,-0.294142,-0.934825,-0.09991799999999999
1630588181690,-0.294508,-0.934093,-0.099491
1630588181699,-0.29456899999999997,-0.932995,-0.098454
1630588181709,-0.294996,-0.9311039999999999,-0.097478
1630588181718,-0.295362,-0.931165,-0.096136
1630588181728,-0.295728,-0.930738,-0.094794
1630588181738,-0.297253,-0.929457,-0.094245
1630588181747,-0.297497,-0.9283589999999999,-0.093635
1630588181757,-0.297985,-0.928603,-0.094489
1630588181766,-0.29822899999999997,-0.929762,-0.094001
1630588181776,-0.299083,-0.930616,-0.09211
1630588181786,-0.300913,-0.931531,-0.089975
1630588181795,-0.301828,-0.930921,-0.090036
1630588181805,-0.301706,-0.9307989999999999,-0.091195
1630588181814,-0.301279,-0.930433,-0.090585
1630588181824,-0.300852,-0.930006,-0.09028
1630588181834,-0.302011,-0.9298839999999999,-0.090036
1630588181843,-0.302682,-0.92964,-0.089975
1630588181853,-0.30256,-0.929762,-0.089304
1630588181862,-0.302926,-0.928908,-0.088755
1630588181872,-0.304329,-0.928603,-0.088389
1630588181882,-0.303902,-0.928298,-0.087413
1630588181891,-0.303475,-0.9286639999999999,-0.087352
1630588181901,-0.304817,-0.928603,-0.087962
1630588181910,-0.304512,-0.9286639999999999,-0.08851099999999999
1630588181920,-0.304329,-0.92964,-0.088572
1630588181930,-0.304329,-0.930006,-0.08851099999999999
1630588181939,-0.30414599999999997,-0.930311,-0.089792
1630588181949,-0.304939,-0.930067,-0.08912099999999999
1630588181958,-0.304878,-0.930372,-0.089182
1630588181968,-0.30567099999999997,-0.929762,-0.090097
1630588181978,-0.305305,-0.9292739999999999,-0.08973099999999999
1630588181987,-0.305793,-0.929457,-0.089792
1630588181997,-0.30597599999999997,-0.929945,-0.090219
1630588182006,-0.306098,-0.9301889999999999,-0.089304
1630588182016,-0.30658599999999997,-0.9301889999999999,-0.089975
1630588182026,-0.30658599999999997,-0.92964,-0.089243
1630588182035,-0.305793,-0.92903,-0.090707
1630588182045,-0.30597599999999997,-0.929335,-0.090524
1630588182054,-0.30750099999999997,-0.928481,-0.090036
1630588182064,-0.30750099999999997,-0.927932,-0.090097
1630588182074,-0.306464,-0.9283589999999999,-0.08820599999999999
1630588182083,-0.30744,-0.9280539999999999,-0.088084
1630588182093,-0.308355,-0.9280539999999999,-0.08680299999999999
1630588182102,-0.308538,-0.927383,-0.086742
1630588182112,-0.307928,-0.927322,-0.086132
1630588182122,-0.30872099999999997,-0.92842,-0.085766
1630588182131,-0.30872099999999997,-0.927322,-0.085156
1630588182141,-0.30841599999999997,-0.927078,-0.084729
1630588182150,-0.309148,-0.927078,-0.083631
1630588182160,-0.308477,-0.9265289999999999,-0.084119
1630588182170,-0.30872099999999997,-0.9265289999999999,-0.084424
1630588182179,-0.308294,-0.926041,-0.084302
1630588182189,-0.309148,-0.926468,-0.084058
1630588182198,-0.309575,-0.9283589999999999,-0.083631
1630588182208,-0.30872099999999997,-0.928298,-0.084546
1630588182218,-0.309087,-0.929152,-0.084363
1630588182227,-0.308355,-0.928542,-0.08497299999999999
1630588182237,-0.30902599999999997,-0.9292739999999999,-0.084607
1630588182246,-0.308294,-0.928908,-0.085095
1630588182256,-0.307623,-0.92903,-0.085339
1630588182266,-0.306708,-0.9286639999999999,-0.085339
1630588182275,-0.306708,-0.92964,-0.086071
1630588182285,-0.307074,-0.930616,-0.08527799999999999
1630588182294,-0.30536599999999997,-0.931043,-0.084058
1630588182304,-0.305,-0.929945,-0.081801
1630588182314,-0.305427,-0.9295789999999999,-0.081069
1630588182323,-0.30561,-0.927505,-0.08113
1630588182333,-0.304329,-0.925248,-0.083021
1630588182342,-0.303353,-0.924516,-0.084912
1630588182352,-0.301889,-0.9243939999999999,-0.085644
1630588182362,-0.301218,-0.926651,-0.086437
1630588182371,-0.300486,-0.929091,-0.08851099999999999
1630588182381,-0.301218,-0.930311,-0.087962
1630588182390,-0.301706,-0.931348,-0.088999
1630588182400,-0.302072,-0.932385,-0.08942599999999999
1630588182410,-0.302438,-0.931226,-0.091561
1630588182419,-0.302377,-0.93025,-0.091683
1630588182429,-0.301584,-0.931226,-0.09333
1630588182438,-0.300974,-0.93086,-0.093147
1630588182448,-0.301096,-0.9304939999999999,-0.093269
1630588182458,-0.301218,-0.9311039999999999,-0.091683
1630588182467,-0.301767,-0.931348,-0.08906
1630588182477,-0.30195,-0.9314089999999999,-0.088877
1630588182486,-0.30256,-0.9314089999999999,-0.087657
1630588182496,-0.303048,-0.931348,-0.08558299999999999
1630588182506,-0.302377,-0.931165,-0.084607
1630588182515,-0.302621,-0.930738,-0.08527799999999999
1630588182525,-0.302072,-0.928786,-0.084668
1630588182534,-0.30134,-0.927688,-0.086437
1630588182544,-0.300364,-0.928115,-0.086742
1630588182554,-0.299388,-0.9280539999999999,-0.08601
1630588182563,-0.299876,-0.92842,-0.085156
1630588182573,-0.300547,-0.929152,-0.083814
1630588182582,-0.300852,-0.92964,-0.082106
1630588182592,-0.299998,-0.9295789999999999,-0.082838
1630588182602,-0.300059,-0.9286639999999999,-0.08295999999999999
1630588182611,-0.299693,-0.927627,-0.083326
1630588182621,-0.299205,-0.92598,-0.083814
1630588182630,-0.299632,-0.926041,-0.084302
1630588182640,-0.299144,-0.926956,-0.084729
1630588182650,-0.300181,-0.9274439999999999,-0.085034
1630588182659,-0.300974,-0.926773,-0.0854
1630588182669,-0.301645,-0.927688,-0.085644
1630588182678,-0.301035,-0.929518,-0.085339
1630588182688,-0.301584,-0.930006,-0.086254
1630588182698,-0.301096,-0.93025,-0.086254
1630588182707,-0.301279,-0.931958,-0.086376
1630588182717,-0.303292,-0.931165,-0.085705
1630588182726,-0.30414599999999997,-0.931653,-0.08558299999999999
1630588182736,-0.305549,-0.932202,-0.086559
1630588182746,-0.304634,-0.9326289999999999,-0.087291
1630588182755,-0.30384099999999997,-0.933117,-0.088023
1630588182765,-0.303231,-0.934032,-0.089304
1630588182774,-0.302438,-0.933788,-0.090402
1630588182784,-0.301462,-0.932873,-0.09143899999999999
1630588182794,-0.300791,-0.932873,-0.09113399999999999
1630588182803,-0.299815,-0.93269,-0.09113399999999999
1630588182813,-0.30012,-0.931531,-0.090646
1630588182822,-0.301035,-0.930738,-0.09028
1630588182832,-0.300608,-0.9311039999999999,-0.089853
1630588182842,-0.30012,-0.931897,-0.090524
1630588182851,-0.300303,-0.931775,-0.090646
1630588182861,-0.300059,-0.93147,-0.09089
1630588182870,-0.300303,-0.93147,-0.089609
1630588182880,-0.299998,-0.931165,-0.089182
1630588182890,-0.301096,-0.93025,-0.088389
1630588182899,-0.301096,-0.929701,-0.086986
1630588182909,-0.301828,-0.929396,-0.086132
1630588182918,-0.301828,-0.9292739999999999,-0.08527799999999999
1630588182928,-0.302255,-0.928786,-0.084241
1630588182938,-0.303231,-0.9286639999999999,-0.083875
1630588182947,-0.303109,-0.927383,-0.083326
1630588182957,-0.303231,-0.927566,-0.08356999999999999
1630588182966,-0.303109,-0.927383,-0.08418
1630588182976,-0.303292,-0.9272,-0.083448
1630588182986,-0.302621,-0.926956,-0.082899
1630588182995,-0.304085,-0.927017,-0.081984
1630588183005,-0.302255,-0.9272,-0.082777
1630588183014,-0.302743,-0.9277489999999999,-0.083326
1630588183024,-0.302865,-0.927505,-0.08356999999999999
1630588183034,-0.302621,-0.927993,-0.084424
1630588183043,-0.302316,-0.927322,-0.085522
1630588183053,-0.301218,-0.927871,-0.08680299999999999
1630588183062,-0.300547,-0.928786,-0.086132
1630588183072,-0.300913,-0.929823,-0.086254
1630588183082,-0.300608,-0.930616,-0.08418
1630588183091,-0.301218,-0.930982,-0.083387
1630588183101,-0.302682,-0.9304939999999999,-0.083082
1630588183110,-0.301767,-0.929701,-0.084241
1630588183120,-0.300669,-0.926346,-0.086681
1630588183130,-0.298473,-0.925553,-0.089975
1630588183139,-0.297497,-0.9253089999999999,-0.092903
1630588183149,-0.295545,-0.927383,-0.094916
1630588183158,-0.29646,-0.93147,-0.096136
1630588183168,-0.296643,-0.934703,-0.097783
1630588183178,-0.296643,-0.93635,-0.099186
1630588183187,-0.296216,-0.9365939999999999,-0.101687
1630588183197,-0.296338,-0.936045,-0.10431
1630588183206,-0.29707,-0.93574,-0.106445
1630588183216,-0.29646,-0.935801,-0.10797
1630588183226,-0.296521,-0.936411,-0.107543
1630588183235,-0.296033,-0.93757,-0.10614
1630588183245,-0.296643,-0.939339,-0.10553
1630588183254,-0.29768,-0.939705,-0.104188
1630588183264,-0.298595,-0.940803,-0.10187
1630588183274,-0.299205,-0.94245,-0.100406
1630588183283,-0.301218,-0.944097,-0.098576
1630588183293,-0.302438,-0.945622,-0.095648
1630588183302,-0.302194,-0.944097,-0.095648
1630588183312,-0.300913,-0.941535,-0.09516
1630588183322,-0.300425,-0.94062,-0.095709
1630588183331,-0.299876,-0.938668,-0.09497699999999999
1630588183341,-0.297558,-0.935191,-0.09467199999999999
1630588183350,-0.296948,-0.9317139999999999,-0.093391
1630588183360,-0.296826,-0.929762,-0.09211
1630588183370,-0.297497,-0.926651,-0.095038
1630588183379,-0.295911,-0.9231739999999999,-0.09759999999999999
1630588183389,-0.29524,-0.921588,-0.097844
1630588183398,-0.29487399999999997,-0.920307,-0.099064
1630588183408,-0.29395899999999997,-0.921222,-0.09991799999999999
1630588183418,-0.292495,-0.920307,-0.100894
1630588183427,-0.290604,-0.918538,-0.103822
1630588183437,-0.291519,-0.9198189999999999,-0.105225
1630588183446,-0.292495,-0.924516,-0.104432
1630588183456,-0.294752,-0.927261,-0.099552
1630588183466,-0.296643,-0.929335,-0.094184
1630588183475,-0.301035,-0.926468,-0.089609
1630588183485,-0.305244,-0.925675,-0.085522
1630588183494,-0.30866,-0.9250039999999999,-0.083814
1630588183504,-0.310673,-0.9231739999999999,-0.083204
1630588183514,-0.312259,-0.92354,-0.080886
1630588183523,-0.312808,-0.920917,-0.077531
1630588183533,-0.314394,-0.920673,-0.071858
1630588183542,-0.315492,-0.92537,-0.067649
1630588183552,-0.316285,-0.930128,-0.061793
1630588183562,-0.31585799999999997,-0.9289689999999999,-0.058316
1630588183571,-0.314394,-0.928847,-0.053009
1630588183581,-0.315614,-0.933422,-0.050263999999999996
1630588183590,-0.314577,-0.939705,-0.049776
1630588183600,-0.311771,-0.940071,-0.058621
1630588183610,-0.312808,-0.932812,-0.069967
1630588183619,-0.315492,-0.92232,-0.079239
1630588183629,-0.316224,-0.9067649999999999,-0.087108
1630588183638,-0.316285,-0.893894,-0.093513
1630588183648,-0.315492,-0.886025,-0.091256
1630588183658,-0.314333,-0.8760209999999999,-0.08356999999999999
1630588183667,-0.321836,-0.892186,-0.07417599999999999
1630588183677,-0.33672,-0.920978,-0.057583999999999996
1630588183686,-0.34526,-0.933422,-0.040504
1630588183696,-0.35221399999999997,-0.932263,-0.025925
1630588183706,-0.358558,-0.930677,-0.012749
1630588183715,-0.360937,-0.9234789999999999,0.003172
1630588183725,-0.363011,-0.914878,0.014152
1630588183734,-0.366915,-0.9055449999999999,0.026047
1630588183744,-0.372588,-0.902983,0.037393
1630588183754,-0.38112799999999997,-0.902678,0.049227
1630588183763,-0.388143,-0.899079,0.059414
1630588183773,-0.39436499999999997,-0.89304,0.067222
1630588183782,-0.39936699999999997,-0.884805,0.068686
1630588183792,-0.40424699999999997,-0.87779,0.069174
1630588183802,-0.410896,-0.872422,0.068686
1630588183811,-0.415166,-0.8699209999999999,0.069845
1630588183821,-0.419863,-0.869677,0.075701
1630588183830,-0.423645,-0.873337,0.080276
1630588183840,-0.425719,-0.881389,0.087169
1630588183850,-0.423584,-0.8885259999999999,0.094611
1630588183859,-0.42212,-0.894992,0.099003
1630588183869,-0.41687399999999997,-0.8994449999999999,0.10052799999999999
1630588183878,-0.41260399999999997,-0.899018,0.10065
1630588183888,-0.406504,-0.891393,0.097844
1630588183898,-0.40028199999999997,-0.88328,0.096868
1630588183907,-0.395707,-0.879193,0.096075
1630588183917,-0.393999,-0.8812059999999999,0.097112
1630588183926,-0.392108,-0.886574,0.097356
1630588183936,-0.39009499999999997,-0.895907,0.09759999999999999
1630588183946,-0.388143,-0.902251,0.099613
1630588183955,-0.385642,-0.904874,0.102907
1630588183965,-0.385764,-0.905118,0.108336
1630588183974,-0.384788,-0.9067649999999999,0.113582
1630588183984,-0.385459,-0.907558,0.11608299999999999
1630588183994,-0.381067,-0.909754,0.116815
1630588184003,-0.37746799999999997,-0.914817,0.11809599999999999
1630588184013,-0.37149,-0.921161,0.11895
1630588184022,-0.364719,-0.921466,0.117242
1630588184032,-0.35892399999999997,-0.9176839999999999,0.110898
1630588184042,-0.353312,-0.910913,0.10248
1630588184051,-0.349896,-0.905423,0.094611
1630588184061,-0.345809,-0.898286,0.086681
1630588184070,-0.34019699999999997,-0.892369,0.07911699999999999
1630588184080,-0.337574,-0.887367,0.072895
1630588184090,-0.335744,-0.884683,0.067466
1630588184099,-0.336476,-0.884988,0.06527
1630588184109,-0.340258,-0.888404,0.063013
1630588184118,-0.34038,-0.888282,0.060268
1630588184128,-0.338733,-0.885903,0.056242
1630588184138,-0.336964,-0.88145,0.053009
1630588184147,-0.335317,-0.875289,0.048983
1630588184157,-0.336476,-0.8738859999999999,0.043188
1630588184166,-0.341844,-0.878522,0.038125
1630588184176,-0.345321,-0.88084,0.035441
1630588184186,-0.349347,-0.882182,0.033916
1630588184195,-0.354105,-0.880108,0.031049
1630588184205,-0.35648399999999997,-0.876204,0.02867
1630588184214,-0.361791,-0.874252,0.028121
1630588184224,-0.367037,-0.8772409999999999,0.028548
1630588184234,-0.373625,-0.880657,0.029585
1630588184243,-0.380335,-0.885232,0.031293
1630588184253,-0.385459,-0.890051,0.034465
1630588184262,-0.391376,-0.896578,0.036722
1630588184272,-0.39588999999999996,-0.901763,0.041419
1630588184282,-0.399245,-0.906094,0.043432
1630588184291,-0.401075,-0.908046,0.043066
1630588184301,-0.402356,-0.911218,0.04209
1630588184310,-0.402905,-0.915366,0.039406
1630588184320,-0.40516199999999997,-0.917867,0.037576
1630588184330,-0.406809,-0.917257,0.036234
1630588184339,-0.409432,-0.914939,0.034892
1630588184349,-0.411323,-0.910059,0.034099
1630588184358,-0.412848,-0.906704,0.031537
1630588184368,-0.413641,-0.902617,0.028548
1630588184378,-0.413153,-0.902922,0.024644
1630588184387,-0.411445,-0.904264,0.020007999999999998
1630588184397,-0.407846,-0.906826,0.01464
1630588184406,-0.404674,-0.909876,0.008235
1630588184416,-0.40302699999999997,-0.915305,0.000976
1630588184426,-0.403698,-0.92293,-0.0026839999999999998
1630588184435,-0.40687,-0.928237,-0.0028669999999999998
1630588184445,-0.410225,-0.9317139999999999,-0.0011589999999999999
1630588184454,-0.410713,-0.932873,0.001586
1630588184464,-0.412543,-0.932751,0.006405
1630588184474,-0.413153,-0.930982,0.013359
1630588184483,-0.410225,-0.92598,0.017873
1630588184493,-0.407663,-0.920063,0.021777
1630588184502,-0.402539,-0.915,0.022814
1630588184512,-0.398757,-0.909449,0.025376
1630588184522,-0.39375499999999997,-0.905301,0.026108
1630588184531,-0.390217,-0.899079,0.028243
1630588184541,-0.386313,-0.895724,0.029158
1630588184550,-0.382775,-0.891698,0.030683
1630588184560,-0.381311,-0.892003,0.033245
1630588184570,-0.381372,-0.893162,0.034892
1630588184579,-0.381372,-0.8960899999999999,0.036844
1630588184589,-0.38143299999999997,-0.898957,0.038186
1630588184598,-0.38234799999999997,-0.902434,0.039345
1630588184608,-0.38234799999999997,-0.904386,0.040748
1630588184618,-0.382226,-0.904813,0.042456
1630588184627,-0.3843,-0.904264,0.045384
1630588184637,-0.387838,-0.9034099999999999,0.049715
1630588184646,-0.390156,-0.905484,0.052765
1630588184656,-0.392596,-0.906521,0.054534
1630588184666,-0.39466999999999997,-0.9067649999999999,0.055632
1630588184675,-0.395463,-0.906094,0.058193999999999996
1630588184685,-0.395951,-0.906338,0.060024
1630588184694,-0.396195,-0.906094,0.060939
1630588184704,-0.395524,-0.904813,0.062586
1630588184714,-0.393328,-0.901824,0.061854
1630588184723,-0.390583,-0.899567,0.061975999999999996
1630588184733,-0.389241,-0.898957,0.061426999999999995
1630588184742,-0.386923,-0.896029,0.060511999999999996
1630588184752,-0.3843,-0.89304,0.059475
1630588184762,-0.38112799999999997,-0.889929,0.056669
1630588184771,-0.377834,-0.886452,0.05307
1630588184781,-0.375394,-0.886574,0.050386
1630588184790,-0.373015,-0.887672,0.047030999999999996
1630588184800,-0.37002599999999997,-0.891515,0.046421
1630588184810,-0.369782,-0.891149,0.050263999999999996
1630588184819,-0.373442,-0.89304,0.058804
1630588184829,-0.379237,-0.895907,0.069662
1630588184838,-0.386557,-0.898103,0.073322
1630588184848,-0.388204,-0.899201,0.06740499999999999
1630588184858,-0.385642,-0.899994,0.051484
1630588184867,-0.375516,-0.903959,0.03111
1630588184877,-0.363377,-0.903471,0.014274
1630588184886,-0.350323,-0.899628,-0.00042699999999999997
1630588184896,-0.341173,-0.898957,-0.010369999999999999
1630588184906,-0.337452,-0.903959,-0.012931999999999999
1630588184915,-0.336537,-0.9095099999999999,-0.015493999999999999
1630588184925,-0.33794,-0.911462,-0.01586
1630588184934,-0.34080699999999997,-0.912438,-0.017263
1630588184944,-0.341966,-0.91561,-0.017141
1630588184954,-0.34355199999999997,-0.914451,-0.019337
1630588184963,-0.342088,-0.914573,-0.021716
1630588184973,-0.340014,-0.913536,-0.027327999999999998
1630588184982,-0.340319,-0.9134749999999999,-0.032695999999999996
1630588184992,-0.339282,-0.914939,-0.037454
1630588185002,-0.337696,-0.916464,-0.041297
1630588185011,-0.335378,-0.9176839999999999,-0.045262
1630588185021,-0.336049,-0.9198189999999999,-0.049532
1630588185030,-0.338245,-0.922991,-0.050873999999999996
1630588185040,-0.34019699999999997,-0.926407,-0.052337999999999996
1630588185050,-0.341356,-0.9289689999999999,-0.050873999999999996
1630588185059,-0.343796,-0.928847,-0.048556
1630588185069,-0.34477199999999997,-0.927322,-0.044225
1630588185078,-0.347395,-0.925675,-0.041419
1630588185088,-0.347944,-0.924821,-0.04209
1630588185098,-0.348005,-0.926102,-0.041784999999999996
1630588185107,-0.348981,-0.925858,-0.041846
1630588185117,-0.349713,-0.926041,-0.040382
1630588185126,-0.350567,-0.927322,-0.038369
1630588185136,-0.352336,-0.926956,-0.036051
1630588185146,-0.353556,-0.924272,-0.034159999999999996
1630588185155,-0.353068,-0.920307,-0.032513
1630588185165,-0.353983,-0.91622,-0.03233
1630588185174,-0.352458,-0.915366,-0.030195
1630588185184,-0.349835,-0.915122,-0.031171
1630588185194,-0.348676,-0.914451,-0.032208
1630588185203,-0.347517,-0.912682,-0.034099
1630588185213,-0.34690699999999997,-0.911157,-0.035318999999999996
1630588185222,-0.34587,-0.910303,-0.03538
1630588185232,-0.345809,-0.9113399999999999,-0.03599
1630588185242,-0.346419,-0.912804,-0.033489
1630588185251,-0.3477,-0.913353,-0.031049
1630588185261,-0.349774,-0.914329,-0.030744
1630588185270,-0.35075,-0.914024,-0.030560999999999998
1630588185280,-0.352092,-0.915488,-0.02928
1630588185290,-0.352336,-0.915732,-0.028914
1630588185299,-0.352763,-0.91561,-0.029828999999999998
1630588185309,-0.353495,-0.914939,-0.028548
1630588185318,-0.353068,-0.9131699999999999,-0.028609
1630588185328,-0.351848,-0.913414,-0.027023
1630588185338,-0.353556,-0.912377,-0.025254
1630588185347,-0.35258,-0.9119499999999999,-0.022997
1630588185357,-0.35343399999999997,-0.911889,-0.022082
1630588185366,-0.35404399999999997,-0.912499,-0.022203999999999998
1630588185376,-0.353007,-0.912072,-0.023058
1630588185386,-0.353312,-0.912499,-0.023851
1630588185395,-0.35258,-0.9140849999999999,-0.02501
1630588185405,-0.352702,-0.91622,-0.024888
1630588185414,-0.35404399999999997,-0.917928,-0.024461
1630588185424,-0.353678,-0.919026,-0.02257
1630588185434,-0.353495,-0.917867,-0.020739999999999998
1630588185443,-0.354288,-0.916525,-0.019764
1630588185453,-0.35563,-0.915671,-0.020801
1630588185462,-0.354532,-0.915244,-0.021533
1630588185472,-0.354288,-0.917074,-0.023851
1630588185482,-0.35221399999999997,-0.918721,-0.024888
1630588185491,-0.350811,-0.921222,-0.026047
1630588185501,-0.349103,-0.92232,-0.026657
1630588185510,-0.348432,-0.92171,-0.028609
1630588185520,-0.347395,-0.9211,-0.031964
1630588185530,-0.34660199999999997,-0.9210389999999999,-0.032513
1630588185539,-0.345565,-0.920246,-0.033977
1630588185549,-0.34477199999999997,-0.919453,-0.035013999999999997
1630588185558,-0.34355199999999997,-0.918965,-0.033916
1630588185568,-0.342759,-0.918843,-0.034587
1630588185578,-0.342149,-0.9185989999999999,-0.033062
1630588185587,-0.342515,-0.918782,-0.031476
1630588185597,-0.34294199999999997,-0.918416,-0.029341
1630588185606,-0.342881,-0.91866,-0.027877
1630588185616,-0.34282,-0.918416,-0.028548
1630588185626,-0.342698,-0.91622,-0.02684
1630588185635,-0.342881,-0.915244,-0.026718
1630588185645,-0.341539,-0.915244,-0.026047
1630588185654,-0.341356,-0.914634,-0.025559
1630588185664,-0.340868,-0.913902,-0.025986
1630588185674,-0.34111199999999997,-0.914207,-0.025376
1630588185683,-0.340136,-0.914939,-0.023667999999999998
1630588185693,-0.339343,-0.915732,-0.020984
1630588185702,-0.33989199999999997,-0.915,-0.020313
1630588185712,-0.339953,-0.9137799999999999,-0.019764
1630588185722,-0.340685,-0.912316,-0.018788
1630588185731,-0.340258,-0.911157,-0.019459
1630588185741,-0.340014,-0.911218,-0.019581
1630588185750,-0.33855,-0.912072,-0.020923
1630588185760,-0.33855,-0.9131699999999999,-0.021899
1630588185770,-0.338489,-0.914146,-0.022326
1630588185779,-0.336476,-0.915488,-0.023607
1630588185789,-0.33611,-0.914817,-0.023851
1630588185798,-0.336476,-0.915244,-0.024704999999999998
1630588185808,-0.335866,-0.916342,-0.026779
1630588185818,-0.3355,-0.917379,-0.027816
1630588185827,-0.335683,-0.918782,-0.029402
1630588185837,-0.335622,-0.920673,-0.030744
1630588185846,-0.335256,-0.92171,-0.032269
1630588185856,-0.335073,-0.922991,-0.033367
1630588185866,-0.334402,-0.922503,-0.034526
1630588185875,-0.334524,-0.923052,-0.035868
1630588185885,-0.334341,-0.9222589999999999,-0.037271
1630588185894,-0.334646,-0.922442,-0.038308
1630588185904,-0.335378,-0.922747,-0.038857
1630588185914,-0.336232,-0.9243939999999999,-0.039955
1630588185923,-0.336537,-0.925187,-0.041114
1630588185933,-0.336781,-0.9253089999999999,-0.042334
1630588185942,-0.335256,-0.925797,-0.042883
1630588185952,-0.335927,-0.925736,-0.042517
1630588185962,-0.336415,-0.926407,-0.041479999999999996
1630588185971,-0.337025,-0.925797,-0.040320999999999996
1630588185981,-0.336659,-0.925187,-0.039589
1630588185990,-0.336842,-0.92476,-0.038857
1630588186000,-0.336964,-0.9231739999999999,-0.03782
1630588186010,-0.336659,-0.921527,-0.037637
1630588186019,-0.33672,-0.921283,-0.037698
1630588186029,-0.335561,-0.9216489999999999,-0.03782
1630588186038,-0.334951,-0.9213439999999999,-0.038369
1630588186048,-0.334768,-0.9204289999999999,-0.037332
1630588186058,-0.334097,-0.9198189999999999,-0.0366
1630588186067,-0.33458499999999997,-0.920063,-0.035258
1630588186077,-0.334341,-0.9216489999999999,-0.035013999999999997
1630588186086,-0.33366999999999997,-0.9219539999999999,-0.035197
1630588186096,-0.333182,-0.921527,-0.035318999999999996
1630588186106,-0.333243,-0.9219539999999999,-0.034465
1630588186115,-0.332572,-0.919941,-0.034465
1630588186125,-0.331901,-0.920063,-0.034343
1630588186134,-0.331718,-0.920063,-0.033794
1630588186144,-0.332084,-0.91988,-0.033672
1630588186154,-0.332206,-0.9213439999999999,-0.032879
1630588186163,-0.331718,-0.919026,-0.031598
1630588186173,-0.330742,-0.917501,-0.029951
1630588186182,-0.332389,-0.916403,-0.029951
1630588186192,-0.332877,-0.915061,-0.031659
1630588186202,-0.332999,-0.915488,-0.032390999999999996
1630588186211,-0.333121,-0.914939,-0.034221
1630588186221,-0.332511,-0.916769,-0.036112
1630588186230,-0.331718,-0.918233,-0.036539
1630588186240,-0.332023,-0.920185,-0.036844
1630588186250,-0.33244999999999997,-0.9225639999999999,-0.03782
1630588186259,-0.333182,-0.923723,-0.038003
1630588186269,-0.333792,-0.922686,-0.039101
1630588186278,-0.33458499999999997,-0.923601,-0.039894
1630588186288,-0.335988,-0.92232,-0.039162
1630588186298,-0.33672,-0.921893,-0.038491
1630588186307,-0.337879,-0.9207339999999999,-0.037454
1630588186317,-0.33916,-0.921222,-0.036356
1630588186326,-0.339221,-0.9204289999999999,-0.034343
1630588186336,-0.339648,-0.91988,-0.034099
1630588186346,-0.340441,-0.920917,-0.033062
1630588186355,-0.341539,-0.919392,-0.031842
1630588186365,-0.341173,-0.918782,-0.031964
1630588186374,-0.3416,-0.919392,-0.031476
1630588186384,-0.341661,-0.91927,-0.031049
1630588186394,-0.341295,-0.91988,-0.030744
1630588186403,-0.341173,-0.9185989999999999,-0.031232
1630588186413,-0.34099,-0.918477,-0.031903
1630588186422,-0.341051,-0.918721,-0.031964
1630588186432,-0.339709,-0.920856,-0.031354
1630588186442,-0.339038,-0.9213439999999999,-0.031476
1630588186451,-0.339953,-0.9204289999999999,-0.030683
1630588186461,-0.34080699999999997,-0.920063,-0.031049
1630588186470,-0.341051,-0.918965,-0.030378
1630588186480,-0.34050199999999997,-0.917623,-0.031354
1630588186490,-0.340441,-0.917074,-0.031781
1630588186499,-0.33989199999999997,-0.9179889999999999,-0.031415
1630588186509,-0.339343,-0.918782,-0.031232
1630588186518,-0.339648,-0.91988,-0.031049
1630588186528,-0.340136,-0.918965,-0.030927
1630588186538,-0.339831,-0.91988,-0.031476
1630588186547,-0.340258,-0.919697,-0.030560999999999998
1630588186557,-0.34038,-0.9195139999999999,-0.0305
1630588186566,-0.34099,-0.920856,-0.029828999999999998
1630588186576,-0.341661,-0.920917,-0.029096999999999998
1630588186586,-0.341905,-0.920856,-0.028609
1630588186595,-0.34294199999999997,-0.92171,-0.028853
1630588186605,-0.343064,-0.92232,-0.029523999999999998
1630588186614,-0.342271,-0.922198,-0.028548
1630588186624,-0.341844,-0.922137,-0.028304
1630588186634,-0.342576,-0.922137,-0.027572
1630588186643,-0.34141699999999997,-0.920978,-0.027877
1630588186653,-0.3416,-0.919087,-0.028182
1630588186662,-0.341844,-0.918172,-0.027572
1630588186672,-0.341295,-0.917623,-0.028731
1630588186682,-0.341661,-0.917745,-0.028975
1630588186691,-0.342088,-0.916952,-0.028548
1630588186701,-0.34141699999999997,-0.916342,-0.029463
1630588186710,-0.34111199999999997,-0.915488,-0.030073
1630588186720,-0.34172199999999997,-0.916098,-0.028975
1630588186730,-0.34172199999999997,-0.917257,-0.029036
1630588186739,-0.34202699999999997,-0.917806,-0.028853
1630588186749,-0.34294199999999997,-0.917013,-0.027389
1630588186758,-0.342393,-0.918538,-0.027694
1630588186768,-0.343308,-0.918111,-0.027267
1630588186778,-0.343308,-0.91805,-0.026595999999999998
1630588186787,-0.344894,-0.917196,-0.026352
1630588186797,-0.344528,-0.917318,-0.024949
1630588186806,-0.34385699999999997,-0.9179889999999999,-0.025131999999999998
1630588186816,-0.343796,-0.918233,-0.025498
1630588186826,-0.342881,-0.9182939999999999,-0.02562
1630588186835,-0.342454,-0.918111,-0.025925
1630588186845,-0.342515,-0.91622,-0.027389
1630588186854,-0.341844,-0.914817,-0.028243
1630588186864,-0.341173,-0.914695,-0.029096999999999998
1630588186874,-0.339953,-0.914634,-0.030378
1630588186883,-0.34038,-0.914695,-0.030683
1630588186893,-0.341844,-0.917318,-0.030560999999999998
1630588186902,-0.3416,-0.91927,-0.02867
1630588186912,-0.342088,-0.92049,-0.028243
1630588186922,-0.341966,-0.9207339999999999,-0.028304
1630588186931,-0.343064,-0.919026,-0.028304
1630588186941,-0.342576,-0.91805,-0.029646
1630588186950,-0.341966,-0.916586,-0.030987999999999998
1630588186960,-0.340441,-0.91683,-0.032757
1630588186970,-0.34080699999999997,-0.918538,-0.033916
1630588186979,-0.340624,-0.9211,-0.033977
1630588186989,-0.339648,-0.922198,-0.034343
1630588186998,-0.34099,-0.9211,-0.033977
1630588187008,-0.341356,-0.9201239999999999,-0.03477
1630588187018,-0.340685,-0.919331,-0.035136
1630588187027,-0.340014,-0.916952,-0.035868
1630588187037,-0.339648,-0.915427,-0.035563
1630588187046,-0.33977,-0.915854,-0.036356
1630588187056,-0.340441,-0.916037,-0.036478
1630588187066,-0.340441,-0.916586,-0.036417
1630588187075,-0.341051,-0.916281,-0.036478
1630588187085,-0.34111199999999997,-0.91744,-0.036234
1630588187094,-0.341295,-0.917623,-0.03477
1630588187104,-0.34263699999999997,-0.915976,-0.033854999999999996
1630588187114,-0.342515,-0.915183,-0.034159999999999996
1630588187123,-0.34263699999999997,-0.915122,-0.033549999999999996
1630588187133,-0.34282,-0.915976,-0.031171
1630588187142,-0.344406,-0.915488,-0.031476
1630588187152,-0.34587,-0.9140849999999999,-0.032147
1630588187162,-0.346358,-0.912194,-0.031964
1630588187171,-0.346175,-0.913292,-0.031903
1630588187181,-0.34587,-0.913841,-0.029768
1630588187190,-0.346846,-0.916952,-0.026900999999999998
1630588187200,-0.348371,-0.917806,-0.025071
1630588187210,-0.349225,-0.917318,-0.02562
1630588187219,-0.34892,-0.915,-0.026718
1630588187229,-0.348676,-0.914695,-0.027816
1630588187238,-0.348493,-0.914695,-0.027816
1630588187248,-0.347944,-0.915732,-0.028914
1630588187258,-0.348493,-0.916342,-0.029951
1630588187267,-0.348676,-0.917928,-0.031049
1630588187277,-0.348798,-0.918172,-0.033306
1630588187286,-0.34721199999999997,-0.919636,-0.035075
1630588187296,-0.34690699999999997,-0.9201239999999999,-0.036417
1630588187306,-0.346541,-0.9213439999999999,-0.037515
1630588187315,-0.345199,-0.92171,-0.039589
1630588187325,-0.34416199999999997,-0.923052,-0.040931
1630588187334,-0.343735,-0.92171,-0.041174999999999996
1630588187344,-0.342759,-0.9211,-0.042943999999999996
1630588187354,-0.342149,-0.920795,-0.042456
1630588187363,-0.341051,-0.91988,-0.043798
1630588187373,-0.340868,-0.919331,-0.044896
1630588187382,-0.34080699999999997,-0.9192089999999999,-0.045262
1630588187392,-0.340685,-0.919087,-0.045566999999999996
1630588187402,-0.341051,-0.919026,-0.045262
1630588187411,-0.341966,-0.919392,-0.044652
1630588187421,-0.342271,-0.9189039999999999,-0.043615
1630588187430,-0.342515,-0.919026,-0.043554
1630588187440,-0.34294199999999997,-0.91805,-0.043676
1630588187450,-0.343369,-0.918843,-0.043127
1630588187459,-0.34385699999999997,-0.918782,-0.042638999999999996
1630588187469,-0.34404,-0.919026,-0.042395
1630588187478,-0.344406,-0.919087,-0.040626
1630588187488,-0.344589,-0.917745,-0.039345
1630588187498,-0.344589,-0.916891,-0.039406
1630588187507,-0.345138,-0.916952,-0.039223
1630588187517,-0.34465,-0.916098,-0.039345
1630588187526,-0.34385699999999997,-0.916403,-0.038186
1630588187536,-0.343674,-0.916342,-0.039162
1630588187546,-0.343491,-0.915122,-0.039345
1630588187555,-0.343186,-0.915915,-0.04026
1630588187565,-0.343003,-0.91622,-0.041602
1630588187574,-0.341905,-0.915976,-0.04209
1630588187584,-0.341905,-0.917135,-0.043554
1630588187594,-0.341539,-0.916891,-0.043798
1630588187603,-0.34111199999999997,-0.9185989999999999,-0.044957
1630588187613,-0.34050199999999997,-0.91866,-0.045018
1630588187622,-0.339648,-0.919026,-0.04636
1630588187632,-0.340075,-0.9189039999999999,-0.046848
1630588187642,-0.340075,-0.917196,-0.048434
1630588187651,-0.339465,-0.917562,-0.049166
1630588187661,-0.338733,-0.91866,-0.05002
1630588187670,-0.338794,-0.919453,-0.049349
1630588187680,-0.338001,-0.922625,-0.049044
1630588187690,-0.338977,-0.922747,-0.048129
1630588187699,-0.339099,-0.92232,-0.047214
1630588187709,-0.339831,-0.920368,-0.047153
1630588187718,-0.339526,-0.917257,-0.048312
1630588187728,-0.337513,-0.915488,-0.050081
1630588187738,-0.33672,-0.913963,-0.051727999999999996
1630588187747,-0.335439,-0.914878,-0.052948
1630588187757,-0.337025,-0.916586,-0.052948
1630588187766,-0.337452,-0.91927,-0.052277
1630588187776,-0.338062,-0.920612,-0.051545
1630588187786,-0.338611,-0.9216489999999999,-0.051667
1630588187795,-0.339648,-0.9210389999999999,-0.052094
1630588187805,-0.33989199999999997,-0.91927,-0.053131
1630588187814,-0.340441,-0.918965,-0.053558
1630588187824,-0.34111199999999997,-0.918477,-0.054839
1630588187834,-0.340746,-0.91805,-0.054534
1630588187843,-0.340563,-0.918965,-0.05246
1630588187853,-0.341295,-0.919758,-0.05185
1630588187862,-0.341966,-0.91927,-0.051118
1630588187872,-0.34355199999999997,-0.919636,-0.05002
1630588187882,-0.34404,-0.91927,-0.049532
1630588187891,-0.344406,-0.918721,-0.048007
1630588187901,-0.344406,-0.918172,-0.047763
1630588187910,-0.345138,-0.918172,-0.045628
1630588187920,-0.345138,-0.917074,-0.045933
1630588187930,-0.345565,-0.916586,-0.046299
1630588187939,-0.344894,-0.915793,-0.04636
1630588187949,-0.345748,-0.915488,-0.046421
1630588187958,-0.345504,-0.915793,-0.045018
1630588187968,-0.346053,-0.914817,-0.04392
1630588187978,-0.347822,-0.914634,-0.041724
1630588187987,-0.347029,-0.915061,-0.040320999999999996
1630588187997,-0.347456,-0.915244,-0.040504
1630588188006,-0.34709,-0.914329,-0.04087
1630588188016,-0.34660199999999997,-0.913231,-0.041053
1630588188026,-0.347029,-0.913658,-0.041846
1630588188035,-0.348188,-0.913048,-0.041236
1630588188045,-0.347151,-0.9140849999999999,-0.042334
1630588188054,-0.348371,-0.9140849999999999,-0.041419
1630588188064,-0.349164,-0.914024,-0.041907
1630588188074,-0.349408,-0.914939,-0.042029
1630588188083,-0.349713,-0.915854,-0.040320999999999996
1630588188093,-0.350018,-0.916281,-0.040382
1630588188102,-0.349835,-0.916952,-0.040504
1630588188112,-0.350262,-0.91744,-0.041479999999999996
1630588188122,-0.350506,-0.917135,-0.04087
1630588188131,-0.350628,-0.916769,-0.040992
1630588188141,-0.350018,-0.917806,-0.042273
1630588188150,-0.350384,-0.917806,-0.042456
1630588188160,-0.349957,-0.917928,-0.042334
1630588188170,-0.350811,-0.917318,-0.041358
1630588188179,-0.351116,-0.9176839999999999,-0.041663
1630588188189,-0.352153,-0.9179889999999999,-0.041236
1630588188198,-0.353007,-0.919392,-0.040382
1630588188208,-0.354471,-0.919087,-0.03965
1630588188218,-0.354532,-0.918843,-0.039710999999999996
1630588188227,-0.354166,-0.917623,-0.04026
1630588188237,-0.353068,-0.915976,-0.040199
1630588188246,-0.35221399999999997,-0.915,-0.040138
1630588188256,-0.35221399999999997,-0.914268,-0.040626
1630588188266,-0.350994,-0.9140849999999999,-0.039894
1630588188275,-0.350445,-0.913109,-0.039772
1630588188285,-0.350323,-0.9134749999999999,-0.039589
1630588188294,-0.350506,-0.913902,-0.04026
1630588188304,-0.349774,-0.914634,-0.039223
1630588188314,-0.348066,-0.914207,-0.03965
1630588188323,-0.347334,-0.914268,-0.041236
1630588188333,-0.347578,-0.914939,-0.040199
1630588188342,-0.34648,-0.914024,-0.040992
1630588188352,-0.346175,-0.915061,-0.039894
1630588188362,-0.345321,-0.914451,-0.039894
1630588188371,-0.345321,-0.9134749999999999,-0.039833
1630588188381,-0.345321,-0.913414,-0.039589
1630588188390,-0.344528,-0.913414,-0.038918
1630588188400,-0.343674,-0.912926,-0.040077
1630588188410,-0.344528,-0.913414,-0.039101
1630588188419,-0.343674,-0.913536,-0.038735
1630588188429,-0.34294199999999997,-0.914756,-0.039345
1630588188438,-0.342271,-0.915122,-0.039223
1630588188448,-0.343491,-0.915976,-0.039710999999999996
1630588188458,-0.343003,-0.91622,-0.039223
1630588188467,-0.342759,-0.916403,-0.039772
1630588188477,-0.342393,-0.916708,-0.039955
1630588188486,-0.342881,-0.916037,-0.040565
1630588188496,-0.341234,-0.915854,-0.040382
1630588188506,-0.34099,-0.915854,-0.041968
1630588188515,-0.34050199999999997,-0.91683,-0.041541
1630588188525,-0.34111199999999997,-0.9192089999999999,-0.041602
1630588188534,-0.34019699999999997,-0.919392,-0.040199
1630588188544,-0.33958699999999997,-0.918782,-0.039955
1630588188554,-0.34050199999999997,-0.919148,-0.039345
1630588188563,-0.34099,-0.916891,-0.039589
1630588188573,-0.339953,-0.914146,-0.041663
1630588188582,-0.339404,-0.913414,-0.044835
1630588188592,-0.338306,-0.912438,-0.046848
1630588188602,-0.340319,-0.914451,-0.047945999999999996
1630588188611,-0.34172199999999997,-0.916647,-0.04819
1630588188621,-0.3416,-0.920246,-0.047519
1630588188630,-0.343003,-0.923296,-0.046909
1630588188640,-0.344894,-0.924211,-0.046726
1630588188650,-0.346053,-0.923723,-0.046116
1630588188659,-0.345199,-0.9213439999999999,-0.04636
1630588188669,-0.345016,-0.91927,-0.048007
1630588188678,-0.34416199999999997,-0.919026,-0.04758
1630588188688,-0.344284,-0.9192089999999999,-0.047335999999999996
1630588188698,-0.34526,-0.917623,-0.045566999999999996
1630588188707,-0.345565,-0.9179889999999999,-0.044042
1630588188717,-0.34477199999999997,-0.91683,-0.043248999999999996
1630588188726,-0.34660199999999997,-0.915549,-0.042517
1630588188736,-0.34690699999999997,-0.915671,-0.042334
1630588188746,-0.346358,-0.915549,-0.041479999999999996
1630588188755,-0.346724,-0.914756,-0.041846
1630588188765,-0.347456,-0.914573,-0.040565
1630588188774,-0.347578,-0.915122,-0.040931
1630588188784,-0.347883,-0.91561,-0.040382
1630588188794,-0.348005,-0.916281,-0.041846
1630588188803,-0.347151,-0.915671,-0.041479999999999996
1630588188813,-0.348066,-0.915061,-0.040138
1630588188822,-0.349408,-0.914268,-0.037759
1630588188832,-0.350384,-0.913048,-0.036295
1630588188842,-0.35136,-0.913048,-0.034831
1630588188851,-0.351482,-0.9104249999999999,-0.035075
1630588188861,-0.351238,-0.9098149999999999,-0.034465
1630588188870,-0.351299,-0.908656,-0.033916
1630588188880,-0.35197,-0.908961,-0.034221
1630588188890,-0.35258,-0.909449,-0.034892
1630588188899,-0.353312,-0.910242,-0.03477
1630588188909,-0.353068,-0.9116449999999999,-0.035929
1630588188918,-0.354166,-0.913841,-0.036295
1630588188928,-0.353495,-0.914146,-0.036417
1630588188938,-0.354166,-0.914817,-0.0366
1630588188947,-0.35434899999999997,-0.915976,-0.037515
1630588188957,-0.35434899999999997,-0.915915,-0.038064
1630588188966,-0.354837,-0.917135,-0.037942
1630588188976,-0.35495899999999997,-0.918233,-0.037698
1630588188986,-0.354166,-0.919026,-0.03782
1630588188995,-0.35312899999999997,-0.91866,-0.038125
1630588189005,-0.352458,-0.918111,-0.037942
1630588189014,-0.35190899999999997,-0.917318,-0.039162
1630588189024,-0.350445,-0.915671,-0.039528
1630588189034,-0.350018,-0.915061,-0.038857
1630588189043,-0.349652,-0.914329,-0.040504
1630588189053,-0.348676,-0.913902,-0.041174999999999996
1630588189062,-0.347883,-0.913597,-0.041114
1630588189072,-0.347761,-0.913841,-0.04087
1630588189082,-0.347639,-0.915061,-0.041602
1630588189091,-0.34690699999999997,-0.915915,-0.04087
1630588189101,-0.346785,-0.917013,-0.04087
1630588189110,-0.346968,-0.916708,-0.041358
1630588189120,-0.346785,-0.917745,-0.041907
1630588189130,-0.347517,-0.918538,-0.041053
1630588189139,-0.347151,-0.917379,-0.039955
1630588189149,-0.347578,-0.917074,-0.040565
1630588189158,-0.348188,-0.917562,-0.040626
1630588189168,-0.347334,-0.916769,-0.040504
1630588189178,-0.346846,-0.916281,-0.039467
1630588189187,-0.346419,-0.916342,-0.039101
1630588189197,-0.34709,-0.916037,-0.039589
1630588189206,-0.347029,-0.914512,-0.039284
1630588189216,-0.346541,-0.913536,-0.039345
1630588189226,-0.34568699999999997,-0.914817,-0.038491
1630588189235,-0.345443,-0.915305,-0.039162
1630588189245,-0.345321,-0.914939,-0.038674
1630588189254,-0.34404,-0.915,-0.040320999999999996
1630588189264,-0.344406,-0.915488,-0.040138
1630588189274,-0.343674,-0.915488,-0.041297
1630588189283,-0.34416199999999997,-0.915061,-0.041663
1630588189293,-0.343674,-0.914207,-0.042943999999999996
1630588189302,-0.343918,-0.915061,-0.043554
1630588189312,-0.34294199999999997,-0.916037,-0.043859
1630588189322,-0.34233199999999997,-0.916403,-0.044286
1630588189331,-0.34233199999999997,-0.918233,-0.044407999999999996
1630588189341,-0.34202699999999997,-0.917806,-0.045079
1630588189350,-0.34263699999999997,-0.918111,-0.04575
1630588189360,-0.34221,-0.9179889999999999,-0.047030999999999996
1630588189370,-0.341295,-0.916769,-0.047763
1630588189379,-0.340075,-0.916098,-0.047519
1630588189389,-0.341356,-0.916891,-0.047945999999999996
1630588189398,-0.340319,-0.916708,-0.04636
1630588189408,-0.341905,-0.91805,-0.045384
1630588189418,-0.342149,-0.918843,-0.043188
1630588189427,-0.341478,-0.917318,-0.042943999999999996
1630588189437,-0.34294199999999997,-0.915183,-0.043554
1630588189446,-0.343125,-0.913048,-0.044102999999999996
1630588189456,-0.342881,-0.912743,-0.044896
1630588189466,-0.342271,-0.9131699999999999,-0.047519
1630588189475,-0.341051,-0.915671,-0.049409999999999996
1630588189485,-0.341234,-0.918965,-0.050263999999999996
1630588189494,-0.34111199999999997,-0.921161,-0.051118
1630588189504,-0.343125,-0.921405,-0.05063
1630588189514,-0.34355199999999997,-0.920673,-0.050752
1630588189523,-0.345321,-0.920368,-0.049837
1630588189533,-0.345748,-0.919026,-0.050447
1630588189542,-0.344894,-0.918477,-0.051789
1630588189552,-0.345504,-0.917928,-0.053619
1630588189562,-0.34538199999999997,-0.918538,-0.052399
1630588189571,-0.344528,-0.918172,-0.053009
1630588189581,-0.34507699999999997,-0.918538,-0.051727999999999996
1630588189590,-0.344833,-0.9189039999999999,-0.052094
1630588189600,-0.345443,-0.918111,-0.051057
1630588189610,-0.345199,-0.918172,-0.050203
1630588189619,-0.346114,-0.9182939999999999,-0.049166
1630588189629,-0.34690699999999997,-0.91683,-0.047945999999999996
1630588189638,-0.346968,-0.916403,-0.047397
1630588189648,-0.345809,-0.915793,-0.046787
1630588189658,-0.347944,-0.915366,-0.046421
1630588189667,-0.346846,-0.916403,-0.047275
1630588189677,-0.34538199999999997,-0.916586,-0.045079
1630588189686,-0.34648,-0.915732,-0.044347
1630588189696,-0.347151,-0.914268,-0.043188
1630588189706,-0.347517,-0.913536,-0.043371
1630588189715,-0.346846,-0.912987,-0.045201
1630588189725,-0.345504,-0.912438,-0.046176999999999996
1630588189734,-0.34648,-0.913353,-0.047214
1630588189744,-0.34721199999999997,-0.913719,-0.047640999999999996
1630588189754,-0.34648,-0.914207,-0.047335999999999996
1630588189763,-0.34721199999999997,-0.913902,-0.048373
1630588189773,-0.346846,-0.91439,-0.049898
1630588189782,-0.346785,-0.916464,-0.050508
1630588189792,-0.346846,-0.917257,-0.050142
1630588189802,-0.34709,-0.91866,-0.049837
1630588189811,-0.348127,-0.919575,-0.050263999999999996
1630588189821,-0.346846,-0.91927,-0.051789
1630588189830,-0.347334,-0.9192089999999999,-0.051545
1630588189840,-0.34709,-0.918172,-0.05124
1630588189850,-0.347456,-0.9182939999999999,-0.051727999999999996
1630588189859,-0.34709,-0.917806,-0.051057
1630588189869,-0.346724,-0.917928,-0.050386
1630588189878,-0.34660199999999997,-0.918111,-0.049837
1630588189888,-0.346236,-0.918538,-0.050447
1630588189898,-0.34568699999999997,-0.917562,-0.051606
1630588189907,-0.344894,-0.917379,-0.051545
1630588189917,-0.344284,-0.91622,-0.052337999999999996
1630588189926,-0.345138,-0.914878,-0.051727999999999996
1630588189936,-0.34416199999999997,-0.916037,-0.051911
1630588189946,-0.344955,-0.915,-0.050935
1630588189955,-0.345809,-0.915122,-0.051179
1630588189965,-0.346114,-0.914146,-0.050752
1630588189974,-0.34507699999999997,-0.914268,-0.050081
1630588189984,-0.346724,-0.914634,-0.049471
1630588189994,-0.346724,-0.914634,-0.05002
1630588190003,-0.346968,-0.914878,-0.048861
1630588190013,-0.34690699999999997,-0.915366,-0.047397
1630588190022,-0.34648,-0.914756,-0.047030999999999996
1630588190032,-0.347456,-0.915,-0.047153
1630588190042,-0.347517,-0.914756,-0.047885
1630588190051,-0.346846,-0.915732,-0.046116
1630588190061,-0.348005,-0.914756,-0.04636
1630588190070,-0.348188,-0.913963,-0.046909
1630588190080,-0.3477,-0.914268,-0.045994
1630588190090,-0.347456,-0.914634,-0.045628
1630588190099,-0.347578,-0.914451,-0.046604
1630588190109,-0.34721199999999997,-0.915549,-0.046604
1630588190118,-0.347334,-0.915427,-0.047153
1630588190128,-0.34587,-0.915366,-0.047458
1630588190138,-0.347517,-0.914634,-0.048251
1630588190147,-0.346541,-0.914146,-0.049349
1630588190157,-0.346114,-0.914146,-0.050081
1630588190166,-0.345809,-0.914878,-0.049654
1630588190176,-0.345626,-0.915549,-0.049958999999999996
1630588190186,-0.345199,-0.915549,-0.049776
1630588190195,-0.34599199999999997,-0.916098,-0.049166
1630588190205,-0.346053,-0.917135,-0.049898
1630588190214,-0.34660199999999997,-0.916525,-0.049409999999999996
1630588190224,-0.34709,-0.91744,-0.049166
1630588190234,-0.347273,-0.917562,-0.049776
1630588190243,-0.34709,-0.917379,-0.049776
1630588190253,-0.346419,-0.91622,-0.049958999999999996
1630588190262,-0.346724,-0.917806,-0.049471
1630588190272,-0.347639,-0.917806,-0.047763
1630588190282,-0.347822,-0.91866,-0.047519
1630588190291,-0.3477,-0.9176839999999999,-0.046421
1630588190301,-0.348798,-0.917318,-0.04453
1630588190310,-0.348188,-0.914756,-0.043737
1630588190320,-0.349042,-0.913048,-0.044652
1630588190330,-0.348005,-0.911096,-0.046238
1630588190339,-0.347578,-0.910852,-0.048434
1630588190349,-0.345748,-0.912133,-0.049532
1630588190358,-0.346846,-0.914329,-0.049958999999999996
1630588190368,-0.346846,-0.916891,-0.050263999999999996
1630588190378,-0.34831,-0.9179889999999999,-0.049288
1630588190387,-0.349042,-0.918111,-0.049044
1630588190397,-0.350262,-0.916525,-0.049898
1630588190406,-0.350872,-0.916769,-0.050996
1630588190416,-0.350018,-0.914939,-0.051422999999999996
1630588190426,-0.35014,-0.913841,-0.05246
1630588190435,-0.351421,-0.913231,-0.05185
1630588190445,-0.350994,-0.9137799999999999,-0.05185
1630588190454,-0.35075,-0.913963,-0.050752
1630588190464,-0.352092,-0.914451,-0.049776
1630588190474,-0.352153,-0.914695,-0.048434
1630588190483,-0.352885,-0.915427,-0.047214
1630588190493,-0.353068,-0.914573,-0.047458
1630588190502,-0.352397,-0.913292,-0.046421
1630588190512,-0.35190899999999997,-0.912621,-0.046055
1630588190522,-0.351482,-0.912682,-0.046604
1630588190531,-0.351177,-0.912377,-0.047824
1630588190541,-0.35136,-0.913109,-0.047702
1630588190550,-0.351299,-0.913414,-0.047335999999999996
1630588190560,-0.349896,-0.912499,-0.04636
1630588190570,-0.352458,-0.912621,-0.045506
1630588190579,-0.35197,-0.913109,-0.044712999999999996
1630588190589,-0.351787,-0.9128649999999999,-0.044652
1630588190598,-0.351482,-0.912316,-0.04514
1630588190608,-0.35136,-0.9119499999999999,-0.046482
1630588190618,-0.351665,-0.910913,-0.047214
1630588190627,-0.35136,-0.911218,-0.047214
1630588190637,-0.350628,-0.912743,-0.047335999999999996
1630588190646,-0.351238,-0.913536,-0.047030999999999996
1630588190656,-0.35190899999999997,-0.914573,-0.047640999999999996
1630588190666,-0.351299,-0.914146,-0.048494999999999996
1630588190675,-0.351299,-0.915061,-0.048556
1630588190685,-0.351421,-0.915915,-0.049288
1630588190694,-0.35197,-0.916464,-0.049227
1630588190704,-0.350994,-0.91683,-0.049715
1630588190714,-0.350811,-0.917013,-0.050752
1630588190723,-0.350567,-0.91744,-0.050935
1630588190733,-0.350079,-0.917196,-0.051727999999999996
1630588190742,-0.349774,-0.917135,-0.05185
1630588190752,-0.350567,-0.916586,-0.052765
1630588190762,-0.349896,-0.916647,-0.051484
1630588190771,-0.349652,-0.915854,-0.051972
1630588190781,-0.348188,-0.916159,-0.052765
1630588190790,-0.348798,-0.916342,-0.052032999999999996
1630588190800,-0.349103,-0.91622,-0.051484
1630588190810,-0.348188,-0.915915,-0.052094
1630588190819,-0.347944,-0.915366,-0.051789
1630588190829,-0.347944,-0.915183,-0.051362
1630588190838,-0.348432,-0.914146,-0.051606
1630588190848,-0.348432,-0.914817,-0.050935
1630588190858,-0.348371,-0.915122,-0.050508
1630588190867,-0.349652,-0.915183,-0.049837
1630588190877,-0.348737,-0.915,-0.049288
1630588190886,-0.350384,-0.9140849999999999,-0.049532
1630588190896,-0.350628,-0.913719,-0.049349
1630588190906,-0.35014,-0.913841,-0.048678
1630588190915,-0.350689,-0.913536,-0.048922
1630588190925,-0.35014,-0.913658,-0.049044
1630588190934,-0.350079,-0.913292,-0.048617
1630588190944,-0.350201,-0.913719,-0.04819
1630588190954,-0.349774,-0.9137799999999999,-0.047824
1630588190963,-0.349652,-0.9137799999999999,-0.047824
1630588190973,-0.349835,-0.913902,-0.048312
1630588190982,-0.348981,-0.9140849999999999,-0.048799999999999996
1630588190992,-0.349652,-0.913414,-0.050142
1630588191002,-0.348981,-0.9137799999999999,-0.05063
1630588191011,-0.34831,-0.9131699999999999,-0.051118
1630588191021,-0.348859,-0.914634,-0.051727999999999996
1630588191030,-0.347944,-0.915244,-0.052216
1630588191040,-0.347578,-0.915427,-0.052948
1630588191050,-0.347029,-0.915244,-0.054229
1630588191059,-0.346846,-0.914451,-0.055265999999999996
1630588191069,-0.34690699999999997,-0.915183,-0.054168
1630588191078,-0.34709,-0.915061,-0.055022
1630588191088,-0.347395,-0.915915,-0.055022
1630588191098,-0.347822,-0.916464,-0.05368
1630588191107,-0.3477,-0.91683,-0.053558
1630588191117,-0.3477,-0.917196,-0.053863
1630588191126,-0.348554,-0.916708,-0.052643
1630588191136,-0.348615,-0.915793,-0.052582
1630588191146,-0.34721199999999997,-0.915122,-0.05307
1630588191155,-0.34660199999999997,-0.915549,-0.05246
1630588191165,-0.347761,-0.916769,-0.051972
1630588191174,-0.348066,-0.918111,-0.050508
1630588191184,-0.347822,-0.916525,-0.050752
1630588191194,-0.347517,-0.916891,-0.048312
1630588191203,-0.348005,-0.916342,-0.048129
1630588191213,-0.348005,-0.914329,-0.048312
1630588191222,-0.347395,-0.9113399999999999,-0.049471
1630588191232,-0.34690699999999997,-0.9095099999999999,-0.051362
1630588191242,-0.345748,-0.909449,-0.053558
1630588191251,-0.346114,-0.911157,-0.054534
1630588191261,-0.345809,-0.914207,-0.054534
1630588191270,-0.347517,-0.916464,-0.053375
1630588191280,-0.349591,-0.917745,-0.051789
1630588191290,-0.351238,-0.917928,-0.051545
1630588191299,-0.351421,-0.916891,-0.052155
1630588191309,-0.352763,-0.915122,-0.052277
1630588191318,-0.35319,-0.913658,-0.053496999999999996
1630588191328,-0.352641,-0.913536,-0.054107
1630588191338,-0.35258,-0.913841,-0.052765
1630588191347,-0.352946,-0.914512,-0.052094
1630588191357,-0.35343399999999997,-0.9140849999999999,-0.051606
1630588191366,-0.354227,-0.913048,-0.050386
1630588191376,-0.354471,-0.913414,-0.049349
1630588191386,-0.354715,-0.914878,-0.048861
1630588191395,-0.35441,-0.914939,-0.048556
1630588191405,-0.353922,-0.915,-0.048373
1630588191414,-0.35319,-0.914451,-0.047702
1630588191424,-0.352885,-0.9131699999999999,-0.047885
1630588191434,-0.351482,-0.913414,-0.049044
1630588191443,-0.351543,-0.912987,-0.049837
1630588191453,-0.351238,-0.912682,-0.05002
1630588191462,-0.350994,-0.912926,-0.048983
1630588191472,-0.351299,-0.912743,-0.047397
1630588191482,-0.351665,-0.912377,-0.046909
1630588191491,-0.351848,-0.913109,-0.045323
1630588191501,-0.35160399999999997,-0.913231,-0.045506
1630588191510,-0.351055,-0.912072,-0.04575
1630588191520,-0.351848,-0.911462,-0.046238
1630588191530,-0.350933,-0.911889,-0.046726
1630588191539,-0.352397,-0.912072,-0.046176999999999996
1630588191549,-0.35251899999999997,-0.911706,-0.046482
1630588191558,-0.354227,-0.912987,-0.046543
1630588191568,-0.35465399999999997,-0.915122,-0.046176999999999996
1630588191578,-0.353922,-0.914817,-0.046055
1630588191587,-0.35373899999999997,-0.915671,-0.046543
1630588191597,-0.3538,-0.914878,-0.047214
1630588191606,-0.3538,-0.914695,-0.047458
1630588191616,-0.351787,-0.915732,-0.048983
1630588191626,-0.35197,-0.916037,-0.049471
1630588191635,-0.35075,-0.915427,-0.049593
1630588191645,-0.350079,-0.91561,-0.050203
1630588191654,-0.349896,-0.915427,-0.052155
1630588191664,-0.349103,-0.915549,-0.051727999999999996
1630588191674,-0.348798,-0.915488,-0.052032999999999996
1630588191683,-0.349286,-0.916281,-0.052582
1630588191693,-0.348005,-0.916464,-0.053191999999999996
1630588191702,-0.348249,-0.917379,-0.053436
1630588191712,-0.347944,-0.916891,-0.053375
1630588191722,-0.347456,-0.917745,-0.052948
1630588191731,-0.347944,-0.917318,-0.051911
1630588191741,-0.34660199999999997,-0.91683,-0.051606
1630588191750,-0.347395,-0.916891,-0.051057
1630588191760,-0.3477,-0.91683,-0.049104999999999996
1630588191770,-0.347395,-0.915549,-0.048251
1630588191779,-0.347029,-0.915854,-0.048434
1630588191789,-0.346785,-0.916159,-0.048434
1630588191798,-0.34660199999999997,-0.916159,-0.04819
1630588191808,-0.345809,-0.915793,-0.047335999999999996
1630588191818,-0.34538199999999997,-0.915061,-0.047214
1630588191827,-0.34507699999999997,-0.914573,-0.047153
1630588191837,-0.344894,-0.913902,-0.047885
1630588191846,-0.344345,-0.913536,-0.047275
1630588191856,-0.345016,-0.913658,-0.047763
1630588191866,-0.343003,-0.915,-0.04758
1630588191875,-0.343369,-0.914268,-0.047275
1630588191885,-0.343064,-0.914146,-0.047824
1630588191894,-0.342515,-0.914207,-0.04758
1630588191904,-0.343674,-0.914817,-0.048494999999999996
1630588191914,-0.34404,-0.915732,-0.048556
1630588191923,-0.343613,-0.916769,-0.049044
1630588191933,-0.344345,-0.916098,-0.049104999999999996
1630588191942,-0.345443,-0.914817,-0.049898
1630588191952,-0.34538199999999997,-0.914146,-0.048678
1630588191962,-0.344955,-0.914146,-0.050203
1630588191971,-0.34507699999999997,-0.914146,-0.050568999999999996
1630588191981,-0.345199,-0.914573,-0.051422999999999996
1630588191990,-0.345443,-0.914695,-0.050752
1630588192000,-0.345626,-0.915793,-0.050996
1630588192010,-0.346236,-0.917135,-0.052216
1630588192019,-0.34599199999999997,-0.917562,-0.052094
1630588192029,-0.34587,-0.918843,-0.051789
1630588192038,-0.345443,-0.9195139999999999,-0.052399
1630588192048,-0.345199,-0.917806,-0.05307
1630588192058,-0.344528,-0.917562,-0.05368
1630588192067,-0.344589,-0.918721,-0.054168
1630588192077,-0.344833,-0.92049,-0.05246
1630588192086,-0.34477199999999997,-0.921527,-0.051545
1630588192096,-0.34404,-0.9207339999999999,-0.050325
1630588192106,-0.344406,-0.91988,-0.049288
1630588192115,-0.344711,-0.916891,-0.047214
1630588192125,-0.344528,-0.916037,-0.047702
1630588192134,-0.344955,-0.914146,-0.047885
1630588192144,-0.343125,-0.912499,-0.049654
1630588192154,-0.34202699999999997,-0.912194,-0.051179
1630588192163,-0.34221,-0.915122,-0.05185
1630588192173,-0.34221,-0.916952,-0.050752
1630588192182,-0.343064,-0.9192089999999999,-0.049288
1630588192192,-0.34465,-0.919453,-0.048739
1630588192202,-0.345748,-0.919331,-0.048312
1630588192211,-0.346846,-0.918111,-0.048983
1630588192221,-0.34721199999999997,-0.91622,-0.049776
1630588192230,-0.347029,-0.916342,-0.050447
1630588192240,-0.347273,-0.915976,-0.049227
1630588192250,-0.347883,-0.917074,-0.048494999999999996
1630588192259,-0.349347,-0.91622,-0.047275
1630588192269,-0.349469,-0.917501,-0.045994
1630588192278,-0.348737,-0.917196,-0.043554
1630588192288,-0.349591,-0.916464,-0.04331
1630588192298,-0.348981,-0.915244,-0.042029
1630588192307,-0.347578,-0.915915,-0.041784999999999996
1630588192317,-0.346785,-0.914878,-0.041419
1630588192326,-0.345748,-0.914756,-0.042212
1630588192336,-0.343918,-0.914512,-0.043248999999999996
1630588192346,-0.343308,-0.913902,-0.044347
1630588192355,-0.34233199999999997,-0.914817,-0.044407999999999996
1630588192365,-0.341539,-0.914878,-0.042883
1630588192374,-0.342454,-0.916098,-0.04209
1630588192384,-0.341783,-0.916464,-0.041968
1630588192394,-0.342271,-0.917196,-0.040626
1630588192403,-0.341966,-0.915976,-0.041541
1630588192413,-0.34099,-0.915244,-0.042456
1630588192422,-0.340563,-0.914512,-0.043066
1630588192432,-0.340014,-0.915,-0.043737
1630588192442,-0.339099,-0.915854,-0.043859
1630588192451,-0.339099,-0.916952,-0.043554
1630588192461,-0.339038,-0.918111,-0.043554
1630588192470,-0.339648,-0.918477,-0.044164
1630588192480,-0.338794,-0.918477,-0.044286
1630588192490,-0.33958699999999997,-0.919026,-0.044042
1630588192499,-0.339038,-0.92049,-0.045811
1630588192509,-0.339648,-0.922015,-0.046055
1630588192518,-0.339465,-0.9213439999999999,-0.046787
1630588192528,-0.33977,-0.9213439999999999,-0.047702
1630588192538,-0.339648,-0.921405,-0.047702
1630588192547,-0.339099,-0.921283,-0.047945999999999996
1630588192557,-0.339038,-0.9207339999999999,-0.047945999999999996
1630588192566,-0.338306,-0.91988,-0.047885
1630588192576,-0.338367,-0.919087,-0.048068
1630588192586,-0.33733,-0.920063,-0.047702
1630588192595,-0.337391,-0.9201239999999999,-0.049288
1630588192605,-0.338428,-0.918538,-0.049166
