timestamp,ax,ay,az
1630588374915,0.044835,-0.478606,-0.883097
1630588374924,0.042638999999999996,-0.47238399999999997,-0.880474
1630588374934,0.037759,-0.463661,-0.87718
1630588374943,0.030255999999999998,-0.455487,-0.879742
1630588374953,0.025193,-0.44834999999999997,-0.882853
1630588374963,0.021471999999999998,-0.44121299999999997,-0.8845
1630588374972,0.019886,-0.438407,-0.8845609999999999
1630588374982,0.017934,-0.43663799999999997,-0.88267
1630588374991,0.014945,-0.433954,-0.88328
1630588375001,0.014213,-0.434076,-0.882304
1630588375011,0.01342,-0.434259,-0.884744
1630588375020,0.01281,-0.434442,-0.882975
1630588375030,0.013847,-0.43676,-0.8854759999999999
1630588375039,0.012017,-0.439505,-0.884683
1630588375049,0.012261,-0.44469,-0.88938
1630588375059,0.015433,-0.450302,-0.891637
1630588375068,0.01647,-0.45505999999999996,-0.8906
1630588375078,0.017385,-0.460306,-0.890966
1630588375087,0.020252,-0.46341699999999997,-0.88938
1630588375097,0.020374,-0.462868,-0.885232
1630588375107,0.017873,-0.464088,-0.88572
1630588375116,0.017934,-0.46421,-0.890173
1630588375126,0.017506999999999998,-0.46341699999999997,-0.892491
1630588375135,0.015006,-0.462563,-0.8939549999999999
1630588375145,0.015311,-0.464393,-0.895053
1630588375155,0.015433,-0.46372199999999997,-0.893772
1630588375164,0.016226,-0.465125,-0.891027
1630588375174,0.016042999999999998,-0.46463699999999997,-0.889319
1630588375183,0.012688,-0.460611,-0.8857809999999999
1630588375193,0.007442,-0.457866,-0.881572
1630588375203,0.001952,-0.455792,-0.8781559999999999
1630588375212,-6.1e-05,-0.452742,-0.878522
1630588169000,-0.10553,-0.46128199999999997,-0.885964
1630588169009,-0.107177,-0.46616199999999997,-0.887977
1630588169019,-0.10729899999999999,-0.47238399999999997,-0.898164
1630588169029,-0.10729899999999999,-0.47970399999999996,-0.899506
1630588169038,-0.105225,-0.48379099999999997,-0.897371
1630588169048,-0.104859,-0.482144,-0.8954799999999999
1630588169057,-0.102114,-0.47763,-0.896273
1630588169067,-0.09881999999999999,-0.470493,-0.897737
1630588169077,-0.093879,-0.46463699999999997,-0.8954799999999999
1630588169086,-0.091805,-0.46177,-0.891637
1630588169096,-0.090585,-0.459391,-0.888465
1630588169105,-0.09204899999999999,-0.453474,-0.8842559999999999
1630588169115,-0.094184,-0.44712999999999997,-0.8836459999999999
1630588169125,-0.094428,-0.442677,-0.88633
1630588169134,-0.094611,-0.4392,-0.88877
1630588169144,-0.092598,-0.435357,-0.890661
1630588169153,-0.09272,-0.432185,-0.889685
1630588169163,-0.093696,-0.429135,-0.892735
1630588169173,-0.095526,-0.427793,-0.894626
1630588169182,-0.097722,-0.42401099999999997,-0.895602
1630588169192,-0.099552,-0.420839,-0.894809
1630588169201,-0.10187,-0.416996,-0.8960899999999999
1630588169211,-0.105652,-0.41260399999999997,-0.896517
1630588169221,-0.107116,-0.408761,-0.897554
1630588169230,-0.108763,-0.40302699999999997,-0.903349
1630588169240,-0.109068,-0.395097,-0.910608
1630588169249,-0.110898,-0.388509,-0.918355
1630588169259,-0.109678,-0.382775,-0.922442
1630588169269,-0.111508,-0.37881,-0.924028
1630588169278,-0.11102,-0.376004,-0.923357
1630588169288,-0.111081,-0.373503,-0.922137
1630588169297,-0.112423,-0.37088,-0.923662
1630588169307,-0.112118,-0.367342,-0.92537
1630588169317,-0.114009,-0.36453599999999997,-0.924638
1630588169326,-0.113033,-0.362462,-0.9219539999999999
1630588169336,-0.111752,-0.35556899999999997,-0.9243939999999999
1630588169345,-0.10931199999999999,-0.350018,-0.92842
1630588169355,-0.107726,-0.34385699999999997,-0.933117
1630588169365,-0.109068,-0.338733,-0.93391
1630588169374,-0.10858,-0.335134,-0.932751
1630588169384,-0.108092,-0.332938,-0.926163
1630588169393,-0.10729899999999999,-0.32970499999999997,-0.922503
1630588169403,-0.105713,-0.324032,-0.920307
1630588169413,-0.10492,-0.321104,-0.922625
1630588169422,-0.1037,-0.321714,-0.929518
1630588169432,-0.101565,-0.324459,-0.930738
1630588169441,-0.102358,-0.3233,-0.924272
1630588169451,-0.10376099999999999,-0.32073799999999997,-0.912499
1630588169461,-0.10467599999999999,-0.31842,-0.8991399999999999
1630588169470,-0.106445,-0.316224,-0.888648
1630588169480,-0.109556,-0.312991,-0.8876109999999999
1630588169489,-0.111447,-0.311588,-0.889075
1630588169499,-0.114741,-0.307562,-0.890966
1630588169509,-0.117181,-0.30536599999999997,-0.892613
1630588169518,-0.120902,-0.302804,-0.895541
1630588169528,-0.12364699999999999,-0.300364,-0.900604
1630588169537,-0.126331,-0.296887,-0.904203
1630588169547,-0.129442,-0.29036,-0.905118
1630588169557,-0.133041,-0.283711,-0.903532
1630588169566,-0.137433,-0.278038,-0.901153
1630588169576,-0.140117,-0.27388999999999997,-0.897066
1630588169585,-0.144509,-0.271877,-0.896456
1630588169595,-0.146339,-0.273524,-0.896883
1630588169605,-0.148169,-0.274317,-0.898042
1630588169614,-0.152134,-0.27419499999999997,-0.905484
1630588169624,-0.15420799999999998,-0.270413,-0.909266
1630588169633,-0.15884399999999999,-0.264069,-0.912194
1630588169643,-0.163053,-0.263154,-0.912133
1630588169653,-0.16836,-0.266387,-0.909937
1630588169662,-0.174338,-0.27083999999999997,-0.907558
1630588169672,-0.179096,-0.275537,-0.909937
1630588169681,-0.180926,-0.277855,-0.913536
1630588169691,-0.18178,-0.277306,-0.913536
1630588169701,-0.18239,-0.277001,-0.912743
1630588169710,-0.185379,-0.280539,-0.905667
1630588169720,-0.189771,-0.285419,-0.910852
1630588169729,-0.195627,-0.291336,-0.9298839999999999
1630588169739,-0.202093,-0.2989,-0.941474
1630588169749,-0.208071,-0.305244,-0.944829
1630588169758,-0.206668,-0.303597,-0.934825
1630588169768,-0.203618,-0.295667,-0.915732
1630588169777,-0.203313,-0.287005,-0.9104249999999999
1630588169787,-0.205387,-0.276574,-0.918172
1630588169797,-0.207339,-0.267485,-0.92293
1630588169806,-0.210267,-0.259372,-0.921893
1630588169816,-0.209108,-0.250771,-0.909266
1630588169825,-0.202642,-0.248087,-0.866749
1630588169835,-0.210023,-0.258762,-0.894138
1630588169845,-0.205204,-0.265228,-0.911218
1630588169854,-0.205814,-0.270901,-0.927261
1630588169864,-0.20166599999999998,-0.276025,-0.928908
1630588169873,-0.201422,-0.277672,-0.921588
1630588169883,-0.205265,-0.27358499999999997,-0.925736
1630588169893,-0.203984,-0.266265,-0.938729
1630588169902,-0.200629,-0.24888,-0.928725
1630588169912,-0.20014099999999999,-0.231068,-0.914512
1630588169921,-0.20496,-0.222406,-0.9073749999999999
1630588169931,-0.20813199999999998,-0.221918,-0.914024
1630588169941,-0.211487,-0.229787,-0.924638
1630588169950,-0.214354,-0.24387799999999998,-0.9359839999999999
1630588169960,-0.214842,-0.261141,-0.949221
1630588169969,-0.206241,-0.264557,-0.943121
1630588169979,-0.200568,-0.268156,-0.92415
1630588169989,-0.197823,-0.28182,-0.902617
1630588169998,-0.194407,-0.291153,-0.894443
1630588170008,-0.196969,-0.300547,-0.888099
1630588170017,-0.202154,-0.300547,-0.8997499999999999
1630588170027,-0.20874199999999998,-0.299876,-0.908351
1630588170037,-0.212036,-0.298351,-0.918721
1630588170046,-0.21398799999999998,-0.29731399999999997,-0.920856
1630588170056,-0.216184,-0.295667,-0.92598
1630588170065,-0.214476,-0.291336,-0.929091
1630588170075,-0.216977,-0.291519,-0.939522
1630588170085,-0.222101,-0.29212899999999997,-0.952515
1630588170094,-0.228506,-0.293105,-0.9600179999999999
1630588170104,-0.23399599999999998,-0.303658,-0.9591029999999999
1630588170113,-0.231068,-0.311954,-0.956236
1630588170123,-0.234728,-0.327997,-0.946537
1630588170133,-0.232105,-0.345626,-0.951661
1630588170142,-0.229238,-0.367647,-0.951356
1630588170152,-0.227957,-0.386069,-0.95953
1630588170161,-0.228018,-0.395097,-0.967399
1630588170171,-0.23241,-0.403759,-0.979355
1630588170181,-0.230519,-0.421388,-1.003694
1630588170190,-0.217404,-0.447618,-1.004609
1630588170200,-0.208803,-0.48861,-1.034316
1630588170209,-0.193919,-0.530883,-1.079334
1630588170219,-0.17702199999999998,-0.5657139999999999,-1.087996
1630588170229,-0.155977,-0.587064,-1.066402
1630588170238,-0.135603,-0.595726,-1.0304119999999999
1630588170248,-0.126575,-0.604815,-1.007842
1630588170257,-0.115717,-0.630801,-0.994605
1630588170267,-0.101321,-0.653554,-0.979355
1630588170277,-0.096746,-0.668377,-0.980514
1630588170286,-0.09333,-0.677893,-0.994483
1630588170296,-0.080093,-0.676673,-0.995398
1630588170305,-0.059047999999999996,-0.676917,-0.9618479999999999
1630588170315,-0.044164,-0.672037,-0.931531
1630588170325,-0.0305,-0.663741,-0.88267
1630588170334,-0.018483,-0.6655099999999999,-0.817278
1630588170344,-0.011956,-0.666791,-0.774456
1630588170353,-0.000549,-0.663741,-0.74237
1630588170363,0.005246,-0.651114,-0.722301
1630588170373,0.005612,-0.631838,-0.718519
1630588170382,0.00366,-0.611891,-0.723338
1630588170392,0.001769,-0.598166,-0.7175429999999999
1630588170401,0.001037,-0.588772,-0.701073
1630588170411,-6.1e-05,-0.5684589999999999,-0.69601
1630588170421,-0.004026,-0.548634,-0.6846639999999999
1630588170430,-0.015982,-0.541497,-0.667401
1630588170440,-0.02745,-0.551745,-0.652212
1630588170449,-0.035441,-0.583465,-0.663863
1630588170459,-0.035502,-0.620248,-0.692106
1630588170469,-0.029646,-0.645258,-0.707844
1630588170478,-0.03538,-0.667706,-0.714005
1630588170488,-0.047214,-0.68747,-0.720776
1630588170497,-0.059414,-0.713334,-0.712846
1630588170507,-0.067527,-0.739686,-0.698572
1630588170517,-0.063013,-0.756522,-0.672464
1630588170526,-0.057767,-0.762439,-0.665449
1630588170536,-0.041419,-0.772626,-0.6861889999999999
1630588170545,-0.025315,-0.777994,-0.710894
1630588170555,-0.010919,-0.786046,-0.721874
1630588170565,-0.0044529999999999995,-0.793854,-0.719129
1630588170574,0.0008539999999999999,-0.796111,-0.7086979999999999
1630588170584,0.0059169999999999995,-0.796355,-0.704977
1630588170593,0.008905999999999999,-0.803187,-0.701195
1630588170603,0.009271999999999999,-0.8113,-0.701134
1630588170613,0.012261,-0.813618,-0.6893
1630588170622,0.014945,-0.816241,-0.663558
1630588170632,0.016165,-0.816912,-0.642879
1630588170641,0.020191,-0.814533,-0.621468
1630588170651,0.022753,-0.81069,-0.602985
1630588170661,0.024095,-0.804956,-0.5848679999999999
1630588170670,0.024217,-0.79788,-0.56669
1630588170680,0.020618,-0.790377,-0.566812
1630588170689,0.01891,-0.773175,-0.58804
1630588170699,0.017811999999999998,-0.747982,-0.6079869999999999
1630588170709,0.016714,-0.718519,-0.614209
1630588170718,0.014335,-0.687958,-0.60939
1630588170728,0.012199999999999999,-0.662216,-0.587735
1630588170737,0.007076,-0.6423909999999999,-0.5623589999999999
1630588170747,0.0023179999999999997,-0.630435,-0.560102
1630588170757,-0.0032329999999999998,-0.625189,-0.576938
1630588170766,-0.021777,-0.622017,-0.618601
1630588170776,-0.039772,-0.621468,-0.672281
1630588170785,-0.05551,-0.617808,-0.712602
1630588170795,-0.069113,-0.604388,-0.745603
1630588170805,-0.081008,-0.579012,-0.769088
1630588170814,-0.096075,-0.547902,-0.7850699999999999
1630588170824,-0.115046,-0.511058,-0.8036139999999999
1630588170833,-0.134444,-0.47268899999999997,-0.82655
1630588170843,-0.152256,-0.44591,-0.856135
1630588170853,-0.167628,-0.43249,-0.9046299999999999
1630588170862,-0.176961,-0.43249,-0.963312
1630588170872,-0.18348799999999998,-0.440725,-1.019066
1630588170881,-0.186782,-0.451156,-1.063352
1630588170891,-0.183427,-0.459391,-1.0885449999999999
1630588170901,-0.173179,-0.470066,-1.096536
1630588170910,-0.16500499999999999,-0.481534,-1.087752
1630588170920,-0.156465,-0.48861,-1.066524
1630588170929,-0.151768,-0.486414,-1.0444419999999999
1630588170939,-0.149694,-0.482327,-1.032974
1630588170949,-0.149755,-0.47512899999999997,-1.033401
1630588170958,-0.148291,-0.462258,-1.030168
1630588170968,-0.146949,-0.450668,-1.01626
1630588170977,-0.144448,-0.441884,-1.002352
1630588170987,-0.143472,-0.43615,-0.993812
1630588170997,-0.13847,-0.433893,-0.9800869999999999
1630588171006,-0.132187,-0.427732,-0.963983
1630588171016,-0.134383,-0.41839899999999997,-0.955992
1630588171025,-0.138409,-0.405284,-0.957395
1630588171035,-0.144326,-0.386191,-0.951661
1630588171045,-0.153232,-0.362218,-0.947879
1630588171054,-0.160491,-0.333182,-0.939522
1630588171064,-0.166591,-0.296765,-0.915366
1630588171073,-0.177388,-0.26169,-0.8954799999999999
1630588171083,-0.17208099999999998,-0.246196,-0.898896
1630588171093,-0.159637,-0.243512,-0.9219539999999999
1630588171102,-0.149938,-0.24156,-0.938302
1630588171112,-0.139934,-0.237656,-0.947757
1630588171121,-0.130235,-0.234789,-0.9577
1630588171131,-0.12285399999999999,-0.233508,-0.9618479999999999
1630588171141,-0.114558,-0.23741199999999998,-0.959835
1630588171150,-0.10577399999999999,-0.234667,-0.945622
1630588171160,-0.097844,-0.229116,-0.936106
1630588171169,-0.089914,-0.224907,-0.933178
1630588171179,-0.077653,-0.221735,-0.926407
1630588171189,-0.07198,-0.218868,-0.916952
1630588171198,-0.071797,-0.216245,-0.915366
1630588171208,-0.07015,-0.217465,-0.917562
1630588171217,-0.062891,-0.222772,-0.911218
1630588171227,-0.053009,-0.227164,-0.906216
1630588171237,-0.047092,-0.233325,-0.900482
1630588171246,-0.044102999999999996,-0.232654,-0.893711
1630588171256,-0.044347,-0.230458,-0.891393
1630588171265,-0.04819,-0.226798,-0.891942
1630588171275,-0.053801999999999996,-0.22082,-0.898713
1630588171285,-0.064538,-0.22075899999999998,-0.912804
1630588171294,-0.073688,-0.223321,-0.934703
1630588171304,-0.078629,-0.22722499999999998,-0.950075
1630588171313,-0.080947,-0.227652,-0.955321
1630588171323,-0.083021,-0.225334,-0.955687
1630588171333,-0.08680299999999999,-0.219112,-0.958005
1630588171342,-0.09394,-0.211792,-0.964471
1630588171352,-0.10205299999999999,-0.203069,-0.974658
1630588171361,-0.11345999999999999,-0.195688,-0.977708
1630588171371,-0.126148,-0.186111,-0.973194
1630588171381,-0.132248,-0.192272,-0.970083
1630588171390,-0.122122,-0.208559,-0.96563
1630588171400,-0.111325,-0.224724,-0.958981
1630588171409,-0.104737,-0.237473,-0.95343
1630588171419,-0.095648,-0.24509799999999998,-0.9508679999999999
1630588171429,-0.09028,-0.249368,-0.956297
1630588171438,-0.087718,-0.252906,-0.967033
1630588171448,-0.087718,-0.25864,-0.97539
1630588171457,-0.087108,-0.263764,-0.977891
1630588171467,-0.087596,-0.264618,-0.976549
1630588171477,-0.091012,-0.266326,-0.976183
1630588171486,-0.096563,-0.25729799999999997,-0.9767319999999999
1630588171496,-0.100162,-0.251564,-0.97234
1630588171505,-0.101016,-0.248758,-0.951661
1630588171515,-0.09820999999999999,-0.258335,-0.940681
1630588171525,-0.09638,-0.262727,-0.942877
1630588171534,-0.102114,-0.268339,-0.937753
1630588171544,-0.10919,-0.27114499999999997,-0.921588
1630588171553,-0.116876,-0.268339,-0.911462
1630588171563,-0.12322,-0.26474,-0.9061549999999999
1630588171573,-0.131455,-0.256322,-0.910181
1630588171582,-0.137982,-0.249246,-0.917013
1630588171592,-0.141154,-0.242902,-0.922442
1630588171601,-0.14945,-0.236314,-0.9295789999999999
1630588171611,-0.159881,-0.228262,-0.933788
1630588171621,-0.171227,-0.219112,-0.931958
1630588171630,-0.181536,-0.20691199999999998,-0.928786
1630588171640,-0.189222,-0.197274,-0.931043
1630588171649,-0.195444,-0.18971,-0.935008
1630588171659,-0.20166599999999998,-0.181536,-0.941474
1630588171669,-0.20691199999999998,-0.174399,-0.943731
1630588171678,-0.211609,-0.16561499999999998,-0.937448
1630588171688,-0.215696,-0.155672,-0.925553
1630588171697,-0.218746,-0.148474,-0.918965
1630588171707,-0.22014899999999998,-0.148718,-0.9304939999999999
1630588171717,-0.223382,-0.149816,-0.95343
1630588171726,-0.226432,-0.1525,-0.966606
1630588171736,-0.230092,-0.155916,-0.965996
1630588171745,-0.235277,-0.160308,-0.959774
1630588171755,-0.240889,-0.165249,-0.955382
1630588171765,-0.249307,-0.168726,-0.957517
1630588171774,-0.257237,-0.171959,-0.9684969999999999
1630588171784,-0.264069,-0.168604,-0.9828319999999999
1630588171793,-0.26961999999999997,-0.162748,-0.996862
1630588171803,-0.276269,-0.155489,-1.006866
1630588171813,-0.284504,-0.147803,-1.011441
1630588171822,-0.291885,-0.139324,-1.011075
1630588171832,-0.297985,-0.127917,-1.007781
1630588171841,-0.30378,-0.115534,-1.009001
1630588171851,-0.30750099999999997,-0.105896,-1.011929
1630588171861,-0.310002,-0.095953,-1.014796
1630588171870,-0.30866,-0.08662,-1.013881
1630588171880,-0.309087,-0.080276,-1.00894
1630588171889,-0.30841599999999997,-0.072834,-0.996679
1630588171899,-0.305,-0.062708,-0.986065
1630588171909,-0.301401,-0.048068,-0.976976
1630588171918,-0.29585,-0.033794,-0.9727669999999999
1630588171928,-0.29402,-0.021594,-0.972889
1630588171937,-0.29402,-0.015738,-0.973499
1630588171947,-0.294447,-0.014518,-0.970388
1630588171957,-0.297375,-0.014395999999999999,-0.963739
1630588171966,-0.29768,-0.015127999999999999,-0.951844
1630588171976,-0.29761899999999997,-0.0183,-0.939583
1630588171985,-0.29395899999999997,-0.019886,-0.9265289999999999
1630588171995,-0.291885,-0.023912,-0.918721
1630588172005,-0.28548,-0.026413,-0.916403
1630588172014,-0.279075,-0.027145,-0.919026
1630588172024,-0.270474,-0.024583,-0.921771
1630588172033,-0.264984,-0.024034,-0.922381
1630588172043,-0.26291,-0.026962,-0.920185
1630588172053,-0.26474,-0.027206,-0.913353
1630588172062,-0.266082,-0.025498,-0.908107
1630588172072,-0.26718,-0.024217,-0.910547
1630588172081,-0.266204,-0.023912,-0.920063
1630588172091,-0.265472,-0.024034,-0.9271389999999999
1630588172101,-0.26352,-0.024522,-0.9350689999999999
1630588172110,-0.261202,-0.023424,-0.942816
1630588172120,-0.258457,-0.019215,-0.9520879999999999
1630588172129,-0.258884,-0.017811999999999998,-0.9594079999999999
1630588172139,-0.25943299999999997,-0.014335,-0.964837
1630588172149,-0.26047,-0.011346,-0.9699
1630588172158,-0.26108,-0.00793,-0.97539
1630588172168,-0.259799,-0.0060999999999999995,-0.980758
1630588172177,-0.25437,-0.005673,-0.984906
1630588172187,-0.250161,-0.0034159999999999998,-0.987529
1630588172197,-0.244,0.0008539999999999999,-0.989664
1630588172206,-0.244061,0.006588,-0.989664
1630588172216,-0.235399,0.0034159999999999998,-0.997472
1630588172225,-0.229909,0.005246,-0.999058
1630588172235,-0.223382,0.006039,-0.993934
1630588172245,-0.217404,0.003904,-0.995093
1630588172254,-0.212097,0.0053679999999999995,-1.001681
1630588172264,-0.207034,0.0050019999999999995,-1.007232
1630588172273,-0.204533,0.003294,-1.010404
1630588172283,-0.201605,0.001586,-1.009062
1630588172293,-0.199043,-0.001464,-1.003389
1630588172302,-0.19794499999999998,-0.009333,-0.9900909999999999
1630588172312,-0.19519999999999998,-0.018361,-0.975024
1630588172321,-0.191967,-0.027877,-0.9678869999999999
1630588172331,-0.19154,-0.039406,-0.959591
1630588172341,-0.190747,-0.049654,-0.9539179999999999
1630588172350,-0.188612,-0.056181,-0.954955
1630588172360,-0.18257299999999999,-0.065026,-0.954406
1630588172369,-0.176473,-0.072529,-0.955687
1630588172379,-0.172264,-0.080276,-0.962031
1630588172389,-0.167567,-0.086864,-0.966423
1630588172398,-0.162626,-0.0915,-0.968436
1630588172408,-0.15853899999999999,-0.093513,-0.968741
1630588172417,-0.154391,-0.096197,-0.9697169999999999
1630588172427,-0.151158,-0.101504,-0.9657519999999999
1630588172437,-0.147498,-0.110776,-0.962031
1630588172446,-0.144997,-0.121695,-0.960079
1630588172456,-0.139995,-0.137006,-0.9609329999999999
1630588172465,-0.133895,-0.155794,-0.9594079999999999
1630588172475,-0.12871,-0.174033,-0.957334
1630588172485,-0.122732,-0.18873399999999999,-0.955321
1630588172494,-0.120902,-0.199287,-0.9511729999999999
1630588172504,-0.11962099999999999,-0.206485,-0.9453779999999999
1630588172513,-0.120353,-0.21215799999999999,-0.937021
1630588172523,-0.119743,-0.213866,-0.925553
1630588172533,-0.120353,-0.217221,-0.912011
1630588172542,-0.12078,-0.22265,-0.901519
1630588172552,-0.12139,-0.232654,-0.900116
1630588172561,-0.122976,-0.242292,-0.911096
1630588172571,-0.12505,-0.249368,-0.928908
1630588172581,-0.129015,-0.25668799999999997,-0.9414129999999999
1630588172590,-0.131882,-0.26474,-0.950014
1630588172600,-0.136091,-0.271999,-0.954284
1630588172609,-0.141459,-0.276818,-0.9566629999999999
1630588172619,-0.14774199999999998,-0.281454,-0.957761
1630588172629,-0.154635,-0.285175,-0.959286
1630588172638,-0.160491,-0.287615,-0.95892
1630588172648,-0.165432,-0.286761,-0.9627629999999999
1630588172657,-0.169519,-0.281271,-0.965691
1630588172667,-0.174094,-0.276391,-0.962336
1630588172677,-0.17812,-0.274439,-0.955016
1630588172686,-0.17854699999999998,-0.271633,-0.9536129999999999
1630588172696,-0.178791,-0.267424,-0.953735
1630588172705,-0.17915699999999998,-0.26187299999999997,-0.9577
1630588172715,-0.17946199999999998,-0.255834,-0.9594079999999999
1630588172725,-0.17934,-0.250039,-0.9606279999999999
1630588172734,-0.179584,-0.24601299999999998,-0.962702
1630588172744,-0.180926,-0.246684,-0.965691
1630588172753,-0.180133,-0.254248,-0.964288
1630588172763,-0.17629,-0.270047,-0.958981
1630588172773,-0.17263,-0.28072199999999997,-0.953674
1630588172782,-0.168238,-0.28407699999999997,-0.956236
1630588172792,-0.166713,-0.280051,-0.960506
1630588172801,-0.166652,-0.270596,-0.964471
1630588172811,-0.167872,-0.25943299999999997,-0.964837
1630588172821,-0.16994599999999999,-0.249795,-0.964471
1630588172830,-0.17299599999999998,-0.243207,-0.9615429999999999
1630588172840,-0.176778,-0.240645,-0.957761
1630588172849,-0.180377,-0.240645,-0.95404
1630588172859,-0.181841,-0.24522,-0.948306
1630588172869,-0.176595,-0.262056,-0.942206
1630588172878,-0.171898,-0.274744,-0.939827
1630588172888,-0.167262,-0.278892,-0.938973
1630588172897,-0.165493,-0.275293,-0.937753
1630588172907,-0.166286,-0.268156,-0.93574
1630588172917,-0.166957,-0.263154,-0.94001
1630588172926,-0.168665,-0.259982,-0.94611
1630588172936,-0.168299,-0.259189,-0.950319
1630588172945,-0.168665,-0.25498,-0.9490379999999999
1630588172955,-0.169153,-0.25437,-0.947025
1630588172965,-0.167933,-0.256139,-0.944585
1630588172974,-0.167506,-0.26108,-0.9420229999999999
1630588172984,-0.164029,-0.266204,-0.9426329999999999
1630588172993,-0.15914899999999998,-0.268766,-0.945805
1630588173003,-0.156709,-0.268522,-0.948916
1630588173013,-0.155672,-0.267912,-0.952942
1630588173022,-0.155062,-0.265411,-0.957761
1630588173032,-0.155733,-0.263886,-0.958859
1630588173041,-0.156038,-0.26187299999999997,-0.958432
1630588173051,-0.155611,-0.260531,-0.9569679999999999
1630588173061,-0.15555,-0.259189,-0.954406
1630588173070,-0.154086,-0.258335,-0.953186
1630588173080,-0.15420799999999998,-0.257115,-0.950319
1630588173089,-0.15420799999999998,-0.253272,-0.948855
1630588173099,-0.155977,-0.249917,-0.950014
1630588173109,-0.157441,-0.24570799999999998,-0.950807
1630588173118,-0.158478,-0.243451,-0.951112
1630588173128,-0.159576,-0.241865,-0.950929
1630588173137,-0.161223,-0.241072,-0.950197
1630588173147,-0.16097899999999998,-0.241194,-0.95038
1630588173157,-0.162748,-0.242292,-0.947452
1630588173166,-0.163968,-0.245647,-0.94611
1630588173176,-0.163114,-0.248636,-0.944585
1630588173185,-0.163541,-0.249612,-0.9447679999999999
1630588173195,-0.165432,-0.250466,-0.944707
1630588173205,-0.16591999999999998,-0.250832,-0.945195
1630588173214,-0.16683499999999998,-0.2501,-0.944646
1630588173224,-0.167506,-0.250466,-0.943182
1630588173233,-0.167628,-0.2501,-0.942694
1630588173243,-0.169702,-0.250344,-0.940376
1630588173253,-0.16836,-0.249978,-0.94123
1630588173262,-0.16836,-0.250466,-0.939217
1630588173272,-0.168238,-0.251381,-0.939766
1630588173281,-0.166652,-0.253089,-0.939766
1630588173291,-0.165249,-0.254126,-0.94062
1630588173301,-0.164029,-0.255468,-0.939156
1630588173310,-0.163358,-0.257664,-0.93879
1630588173320,-0.162992,-0.26095799999999997,-0.936655
1630588173329,-0.161833,-0.264496,-0.932141
1630588173339,-0.161162,-0.269986,-0.926468
1630588173349,-0.162382,-0.274317,-0.91866
1630588173358,-0.162809,-0.27419499999999997,-0.916098
1630588173368,-0.157685,-0.27266999999999997,-0.927017
1630588173377,-0.153049,-0.271267,-0.935801
1630588173387,-0.150609,-0.27144999999999997,-0.942145
1630588173397,-0.149023,-0.271328,-0.947757
1630588173406,-0.150853,-0.275354,-0.950441
1630588173416,-0.152256,-0.281088,-0.9508679999999999
1630588173425,-0.15359799999999998,-0.287981,-0.952332
1630588173435,-0.15268299999999999,-0.293166,-0.9520879999999999
1630588173445,-0.15298799999999999,-0.29609399999999997,-0.9514779999999999
1630588173454,-0.155062,-0.298778,-0.950624
1630588173464,-0.156526,-0.300974,-0.9499529999999999
1630588173473,-0.156709,-0.301706,-0.949404
1630588173483,-0.156648,-0.30195,-0.948367
1630588173493,-0.156526,-0.300669,-0.945866
1630588173502,-0.157136,-0.300242,-0.943975
1630588173512,-0.157014,-0.299144,-0.94001
1630588173521,-0.157746,-0.297375,-0.9368989999999999
1630588173531,-0.157502,-0.295362,-0.932873
1630588173541,-0.158356,-0.29395899999999997,-0.930982
1630588173550,-0.157685,-0.294752,-0.930311
1630588173560,-0.157746,-0.294813,-0.930616
1630588173569,-0.156343,-0.29646,-0.931958
1630588173579,-0.155184,-0.295972,-0.93269
1630588173589,-0.154025,-0.297863,-0.9335439999999999
1630588173598,-0.153171,-0.298412,-0.932263
1630588173608,-0.153415,-0.300181,-0.93147
1630588173617,-0.152561,-0.300852,-0.933056
1630588173627,-0.152622,-0.301767,-0.9333
1630588173637,-0.152439,-0.302072,-0.9326289999999999
1630588173646,-0.153537,-0.302926,-0.930555
1630588173656,-0.15268299999999999,-0.302987,-0.930128
1630588173665,-0.153232,-0.303658,-0.928176
1630588173675,-0.15372,-0.304207,-0.93025
1630588173685,-0.153232,-0.305,-0.931531
1630588173694,-0.153659,-0.305549,-0.9320189999999999
1630588173704,-0.15359799999999998,-0.306464,-0.9347639999999999
1630588173713,-0.15433,-0.30683,-0.935862
1630588173723,-0.15433,-0.307318,-0.936228
1630588173733,-0.15494,-0.307318,-0.933422
1630588173742,-0.153964,-0.30866,-0.9326289999999999
1630588173752,-0.154452,-0.312137,-0.93391
1630588173761,-0.153232,-0.313906,-0.9353739999999999
1630588173771,-0.153964,-0.314882,-0.935191
1630588173781,-0.15298799999999999,-0.317017,-0.935801
1630588173790,-0.151341,-0.317444,-0.9368989999999999
1630588173800,-0.152256,-0.317749,-0.937936
1630588173809,-0.151829,-0.3172,-0.939095
1630588173819,-0.153659,-0.31677299999999997,-0.938058
1630588173829,-0.152195,-0.317505,-0.938363
1630588173838,-0.152256,-0.31781,-0.937936
1630588173848,-0.152317,-0.318176,-0.937692
1630588173857,-0.153781,-0.31476,-0.9368989999999999
1630588173867,-0.152744,-0.315248,-0.936777
1630588173877,-0.15372,-0.312747,-0.9372039999999999
1630588173886,-0.15481799999999998,-0.31055099999999997,-0.937021
1630588173896,-0.15512299999999998,-0.30902599999999997,-0.93757
1630588173905,-0.15451299999999998,-0.308172,-0.936716
1630588173915,-0.155489,-0.307318,-0.93574
1630588173925,-0.155672,-0.306159,-0.934947
1630588173934,-0.155611,-0.304512,-0.933605
1630588173944,-0.156404,-0.304085,-0.931958
1630588173953,-0.156282,-0.302621,-0.931287
1630588173963,-0.156038,-0.302682,-0.9301889999999999
1630588173973,-0.156526,-0.302316,-0.9329339999999999
1630588173982,-0.155306,-0.301462,-0.9341539999999999
1630588173992,-0.155428,-0.30073,-0.934215
1630588174001,-0.15677,-0.299754,-0.934886
1630588174011,-0.15738,-0.29731399999999997,-0.934886
1630588174021,-0.15799,-0.29646,-0.934337
1630588174030,-0.157685,-0.297375,-0.934703
1630588174040,-0.156709,-0.298473,-0.93513
1630588174049,-0.156465,-0.299815,-0.93452
1630588174059,-0.155245,-0.301218,-0.9332389999999999
1630588174069,-0.154879,-0.299815,-0.9338489999999999
1630588174078,-0.15268299999999999,-0.301584,-0.9341539999999999
1630588174088,-0.154757,-0.29707,-0.9332389999999999
1630588174097,-0.155916,-0.294996,-0.9347639999999999
1630588174107,-0.156038,-0.29517899999999997,-0.936167
1630588174117,-0.157014,-0.294996,-0.9372039999999999
1630588174126,-0.155367,-0.295972,-0.93513
1630588174136,-0.155428,-0.29524,-0.934093
1630588174145,-0.154757,-0.296277,-0.935862
1630588174155,-0.154574,-0.297375,-0.935496
1630588174165,-0.153232,-0.299144,-0.935191
1630588174174,-0.150792,-0.300486,-0.935008
1630588174184,-0.151463,-0.303353,-0.9347639999999999
1630588174193,-0.151524,-0.303292,-0.935191
1630588174203,-0.149999,-0.303414,-0.935435
1630588174213,-0.149572,-0.30384099999999997,-0.93452
1630588174222,-0.149145,-0.303475,-0.933971
1630588174232,-0.149633,-0.305305,-0.934947
1630588174241,-0.148474,-0.308172,-0.933727
1630588174251,-0.146644,-0.30988,-0.93147
1630588174261,-0.147681,-0.310429,-0.930433
1630588174270,-0.147376,-0.310673,-0.9301889999999999
1630588174280,-0.14762,-0.31055099999999997,-0.9304939999999999
1630588174289,-0.147376,-0.309758,-0.930433
1630588174299,-0.14762,-0.310673,-0.930372
1630588174309,-0.146644,-0.312198,-0.929823
1630588174318,-0.147498,-0.312869,-0.930616
1630588174328,-0.147864,-0.31415,-0.9314089999999999
1630588174337,-0.147864,-0.315553,-0.931653
1630588174347,-0.147071,-0.31646799999999997,-0.9298839999999999
1630588174357,-0.147803,-0.316041,-0.92964
1630588174366,-0.14743699999999998,-0.315004,-0.93025
1630588174376,-0.14835199999999998,-0.313967,-0.931348
1630588174385,-0.14945,-0.313174,-0.9311039999999999
1630588174395,-0.149877,-0.31232,-0.931043
1630588174405,-0.150731,-0.309758,-0.931836
1630588174414,-0.150548,-0.309575,-0.93208
1630588174424,-0.151646,-0.308233,-0.931165
1630588174433,-0.151341,-0.307928,-0.9323239999999999
1630588174443,-0.149938,-0.30841599999999997,-0.932202
1630588174453,-0.149816,-0.30872099999999997,-0.9332389999999999
1630588174462,-0.14945,-0.309758,-0.9326289999999999
1630588174472,-0.149877,-0.310429,-0.9329339999999999
1630588174481,-0.14884,-0.310734,-0.9323239999999999
1630588174491,-0.147681,-0.313723,-0.933727
1630588174501,-0.147498,-0.315675,-0.934276
1630588174510,-0.145973,-0.316346,-0.9347639999999999
1630588174520,-0.147864,-0.317566,-0.93513
1630588174529,-0.14823,-0.31860299999999997,-0.934825
1630588174539,-0.14865699999999998,-0.318786,-0.935008
1630588174549,-0.149023,-0.32043299999999997,-0.934886
1630588174558,-0.14823,-0.32043299999999997,-0.93452
1630588174568,-0.147254,-0.320616,-0.9344589999999999
1630588174577,-0.14804699999999998,-0.319579,-0.932995
1630588174587,-0.147681,-0.31903,-0.9317139999999999
1630588174597,-0.149511,-0.317932,-0.93086
1630588174606,-0.149572,-0.316834,-0.930616
1630588174616,-0.149084,-0.316041,-0.930982
1630588174625,-0.148718,-0.316834,-0.931653
1630588174635,-0.148169,-0.31781,-0.9307989999999999
1630588174645,-0.14804699999999998,-0.317932,-0.930982
1630588174654,-0.147681,-0.318481,-0.930677
1630588174664,-0.147254,-0.318176,-0.928786
1630588174673,-0.147071,-0.31860299999999997,-0.9283589999999999
1630588174683,-0.146766,-0.31964,-0.928298
1630588174693,-0.146888,-0.318969,-0.929701
1630588174702,-0.14652199999999999,-0.318542,-0.929213
1630588174712,-0.148108,-0.316712,-0.929518
1630588174721,-0.147925,-0.31646799999999997,-0.929091
1630588174731,-0.148596,-0.316224,-0.930433
1630588174741,-0.148169,-0.315736,-0.9295789999999999
1630588174750,-0.149633,-0.31537,-0.92964
1630588174760,-0.149389,-0.316407,-0.930372
1630588174769,-0.148596,-0.316346,-0.9280539999999999
1630588174779,-0.14774199999999998,-0.318115,-0.928542
1630588174789,-0.14762,-0.31890799999999997,-0.93025
1630588174798,-0.148779,-0.320372,-0.9292739999999999
1630588174808,-0.15067,-0.31860299999999997,-0.927505
1630588174817,-0.151402,-0.317444,-0.928115
1630588174827,-0.151341,-0.31781,-0.930128
1630588174837,-0.150731,-0.317932,-0.93208
1630588174846,-0.149816,-0.318237,-0.932995
1630588174856,-0.148413,-0.319579,-0.932568
1630588174865,-0.147803,-0.319945,-0.934093
1630588174875,-0.147559,-0.319457,-0.935618
1630588174885,-0.146766,-0.320982,-0.933483
1630588174894,-0.145851,-0.32104299999999997,-0.931897
1630588174904,-0.144814,-0.320494,-0.9326289999999999
1630588174913,-0.143472,-0.320372,-0.932263
1630588174923,-0.143411,-0.320067,-0.930738
1630588174933,-0.141703,-0.320006,-0.929762
1630588174942,-0.140605,-0.320372,-0.928481
1630588174952,-0.140239,-0.320677,-0.928237
1630588174961,-0.13969,-0.320311,-0.9274439999999999
1630588174971,-0.140178,-0.321775,-0.927993
1630588174981,-0.14005599999999999,-0.32025,-0.927383
1630588174990,-0.140544,-0.321775,-0.92842
1630588175000,-0.141337,-0.32104299999999997,-0.9292739999999999
1630588175009,-0.141032,-0.32147,-0.9292739999999999
1630588175019,-0.141825,-0.321287,-0.929396
1630588175029,-0.142374,-0.320555,-0.929152
1630588175038,-0.143167,-0.319884,-0.9292739999999999
1630588175048,-0.143716,-0.319091,-0.929518
1630588175057,-0.142984,-0.321592,-0.930006
1630588175067,-0.145241,-0.319579,-0.929213
1630588175077,-0.143472,-0.32073799999999997,-0.93086
1630588175086,-0.14579,-0.317322,-0.9320189999999999
1630588175096,-0.146705,-0.316651,-0.931348
1630588175105,-0.145668,-0.316041,-0.93147
1630588175115,-0.146705,-0.314882,-0.930555
1630588175125,-0.1464,-0.314455,-0.9307989999999999
1630588175134,-0.146705,-0.314028,-0.930311
1630588175144,-0.1464,-0.314577,-0.932202
1630588175153,-0.145668,-0.315614,-0.931775
1630588175163,-0.146766,-0.31585799999999997,-0.9314089999999999
1630588175173,-0.146461,-0.316041,-0.9317139999999999
1630588175182,-0.146034,-0.317139,-0.931958
1630588175192,-0.145729,-0.318481,-0.930616
1630588175201,-0.144692,-0.31890799999999997,-0.930433
1630588175211,-0.144204,-0.31982299999999997,-0.931287
1630588175221,-0.143655,-0.321165,-0.932812
1630588175230,-0.144143,-0.32208,-0.933483
1630588175240,-0.14310599999999998,-0.322446,-0.9326289999999999
1630588175249,-0.143899,-0.322629,-0.9314089999999999
1630588175259,-0.142984,-0.323239,-0.931592
1630588175269,-0.14310599999999998,-0.323422,-0.931836
1630588175278,-0.144082,-0.324032,-0.930982
1630588175288,-0.142984,-0.323605,-0.9314089999999999
1630588175297,-0.143594,-0.32226299999999997,-0.932507
1630588175307,-0.144448,-0.322507,-0.932141
1630588175317,-0.143655,-0.32147,-0.9307989999999999
1630588175326,-0.144692,-0.319457,-0.9311039999999999
1630588175336,-0.145607,-0.319274,-0.930006
1630588175345,-0.146095,-0.318542,-0.930311
1630588175355,-0.145546,-0.31781,-0.9292739999999999
1630588175365,-0.146644,-0.31738299999999997,-0.930311
1630588175374,-0.146888,-0.3172,-0.931348
1630588175384,-0.146949,-0.317749,-0.9304939999999999
1630588175393,-0.146583,-0.317139,-0.928786
1630588175403,-0.145424,-0.316529,-0.927627
1630588175413,-0.14621699999999999,-0.316834,-0.928481
1630588175422,-0.144448,-0.317749,-0.929945
1630588175432,-0.144692,-0.318664,-0.9292739999999999
1630588175441,-0.144692,-0.31903,-0.9289689999999999
1630588175451,-0.145119,-0.318969,-0.928298
1630588175461,-0.144997,-0.319945,-0.929213
1630588175470,-0.144448,-0.321104,-0.92964
1630588175480,-0.14457,-0.32226299999999997,-0.9304939999999999
1630588175489,-0.144936,-0.32195799999999997,-0.931226
1630588175499,-0.144936,-0.321409,-0.9301889999999999
1630588175509,-0.143899,-0.321836,-0.929396
1630588175518,-0.143716,-0.322385,-0.92781
1630588175528,-0.14335,-0.32256799999999997,-0.929091
1630588175537,-0.142618,-0.323544,-0.92964
1630588175547,-0.144204,-0.323361,-0.927566
1630588175557,-0.146156,-0.322324,-0.925858
1630588175566,-0.146583,-0.320677,-0.928542
1630588175576,-0.146583,-0.318786,-0.93391
1630588175585,-0.14652199999999999,-0.318969,-0.93574
1630588175595,-0.14457,-0.318969,-0.9365939999999999
1630588175605,-0.144387,-0.32195799999999997,-0.9344589999999999
1630588175614,-0.143045,-0.323056,-0.932812
1630588175624,-0.143167,-0.323788,-0.932446
1630588175633,-0.144143,-0.324215,-0.931958
1630588175643,-0.143228,-0.324459,-0.930921
1630588175653,-0.141093,-0.32391,-0.9320189999999999
1630588175662,-0.139385,-0.322995,-0.932568
1630588175672,-0.139812,-0.32195799999999997,-0.932141
1630588175681,-0.138531,-0.322507,-0.9301889999999999
1630588175691,-0.139019,-0.32226299999999997,-0.929457
1630588175701,-0.140117,-0.323849,-0.928725
1630588175710,-0.139995,-0.323666,-0.927383
1630588175720,-0.14127599999999998,-0.32287299999999997,-0.92842
1630588175729,-0.14066599999999999,-0.325435,-0.92659
1630588175739,-0.141459,-0.326838,-0.927017
1630588175749,-0.140788,-0.327143,-0.9280539999999999
1630588175758,-0.14188599999999998,-0.327204,-0.9286639999999999
1630588175768,-0.14152,-0.326594,-0.929945
1630588175777,-0.14152,-0.326838,-0.930616
1630588175787,-0.141032,-0.32635,-0.930738
1630588175797,-0.141215,-0.325069,-0.930921
1630588175806,-0.141764,-0.323788,-0.927871
1630588175816,-0.142679,-0.321836,-0.9280539999999999
1630588175825,-0.142984,-0.320494,-0.9304939999999999
1630588175835,-0.142618,-0.319457,-0.929762
1630588175845,-0.143594,-0.317627,-0.929213
1630588175854,-0.144265,-0.317139,-0.929213
1630588175864,-0.144143,-0.314821,-0.930616
1630588175873,-0.144265,-0.313967,-0.929823
1630588175883,-0.14396,-0.313662,-0.929518
1630588175893,-0.143716,-0.31293,-0.928908
1630588175902,-0.143045,-0.31354,-0.928603
1630588175912,-0.142069,-0.313601,-0.927932
1630588175921,-0.14213,-0.314516,-0.9283589999999999
1630588175931,-0.141154,-0.315065,-0.930067
1630588175941,-0.141215,-0.316224,-0.93086
1630588175950,-0.14127599999999998,-0.316407,-0.931653
1630588175960,-0.140849,-0.316712,-0.931958
1630588175969,-0.141398,-0.317261,-0.931775
1630588175979,-0.14036099999999999,-0.316895,-0.932995
1630588175989,-0.140544,-0.3172,-0.9317139999999999
1630588175998,-0.1403,-0.317261,-0.931653
1630588176008,-0.138958,-0.318115,-0.9317139999999999
1630588176017,-0.138775,-0.319152,-0.931958
1630588176027,-0.138592,-0.320494,-0.932812
1630588176037,-0.136762,-0.319274,-0.9333
1630588176046,-0.136396,-0.319945,-0.933788
1630588176056,-0.135603,-0.319762,-0.9333
1630588176065,-0.134444,-0.32134799999999997,-0.9333
1630588176075,-0.134261,-0.320677,-0.9333
1630588176085,-0.133895,-0.32086,-0.934215
1630588176094,-0.133468,-0.320494,-0.932995
1630588176104,-0.132126,-0.321226,-0.932202
1630588176113,-0.133041,-0.321714,-0.931043
1630588176123,-0.132858,-0.323056,-0.930738
1630588176133,-0.132126,-0.32256799999999997,-0.930006
1630588176142,-0.132065,-0.323544,-0.930006
1630588176152,-0.13078399999999998,-0.32452,-0.931226
1630588176161,-0.131638,-0.325679,-0.931836
1630588176171,-0.131943,-0.32696,-0.931043
1630588176181,-0.131577,-0.326289,-0.9311039999999999
1630588176190,-0.131577,-0.325984,-0.930006
1630588176200,-0.132309,-0.326655,-0.928908
1630588176209,-0.132187,-0.326716,-0.928847
1630588176219,-0.13359,-0.326777,-0.927932
1630588176229,-0.13359,-0.326899,-0.92903
1630588176238,-0.133346,-0.326289,-0.929213
1630588176248,-0.134688,-0.326899,-0.927322
1630588176257,-0.135603,-0.328119,-0.9268339999999999
1630588176267,-0.134993,-0.327021,-0.927627
1630588176277,-0.137006,-0.326838,-0.9274439999999999
1630588176286,-0.137982,-0.326289,-0.925248
1630588176296,-0.139751,-0.32452,-0.9256139999999999
1630588176305,-0.139934,-0.324032,-0.9286639999999999
1630588176315,-0.139263,-0.324032,-0.93147
1630588176325,-0.137738,-0.324947,-0.932263
1630588176334,-0.137067,-0.326594,-0.9295789999999999
1630588176344,-0.137372,-0.328058,-0.929152
1630588176353,-0.137555,-0.328241,-0.929091
1630588176363,-0.13663999999999998,-0.33122999999999997,-0.927322
1630588176373,-0.13602999999999998,-0.332511,-0.928542
1630588176382,-0.134139,-0.335317,-0.927688
1630588176392,-0.132736,-0.336354,-0.927688
1630588176401,-0.13176,-0.337269,-0.927078
1630588176411,-0.130601,-0.337818,-0.926285
1630588176421,-0.130662,-0.337818,-0.927261
1630588176430,-0.13078399999999998,-0.338367,-0.9268339999999999
1630588176440,-0.131516,-0.337208,-0.925492
1630588176449,-0.131394,-0.338367,-0.9256139999999999
1630588176459,-0.131394,-0.338428,-0.926102
1630588176469,-0.131455,-0.339648,-0.9259189999999999
1630588176478,-0.130357,-0.341295,-0.92659
1630588176488,-0.131455,-0.341356,-0.927566
1630588176497,-0.131882,-0.341905,-0.927261
1630588176507,-0.131577,-0.341966,-0.927993
1630588176517,-0.132614,-0.34221,-0.928237
1630588176526,-0.131455,-0.343003,-0.925187
1630588176536,-0.132187,-0.342515,-0.924028
1630588176545,-0.133102,-0.340319,-0.9237839999999999
1630588176555,-0.134383,-0.340136,-0.924943
1630588176565,-0.13359,-0.33989199999999997,-0.92415
1630588176574,-0.13419999999999999,-0.339038,-0.923906
1630588176584,-0.133956,-0.339038,-0.924211
1630588176593,-0.134993,-0.338062,-0.925736
1630588176603,-0.13694499999999998,-0.335744,-0.926651
1630588176613,-0.138287,-0.334707,-0.9280539999999999
1630588176622,-0.139934,-0.333426,-0.928481
1630588176632,-0.142313,-0.331657,-0.928481
1630588176641,-0.14249599999999998,-0.331108,-0.928115
1630588176651,-0.143472,-0.330071,-0.927932
1630588176661,-0.144814,-0.329217,-0.9274439999999999
1630588176670,-0.14518,-0.327814,-0.92781
1630588176680,-0.144875,-0.327265,-0.927871
1630588176689,-0.145119,-0.326655,-0.92842
1630588176699,-0.145119,-0.326716,-0.928298
1630588176709,-0.144936,-0.327082,-0.9292739999999999
1630588176718,-0.144936,-0.32696,-0.928176
1630588176728,-0.145729,-0.327997,-0.928542
1630588176737,-0.145668,-0.326838,-0.929396
1630588176747,-0.145363,-0.326716,-0.929091
1630588176757,-0.14652199999999999,-0.326716,-0.927993
1630588176766,-0.147254,-0.326472,-0.928542
1630588176776,-0.14896199999999998,-0.325984,-0.9289689999999999
1630588176785,-0.148169,-0.326228,-0.929335
1630588176795,-0.14865699999999998,-0.326045,-0.929396
1630588176805,-0.149084,-0.325862,-0.930006
1630588176814,-0.14896199999999998,-0.326289,-0.929762
1630588176824,-0.149328,-0.325862,-0.930067
1630588176833,-0.149084,-0.324886,-0.9301889999999999
1630588176843,-0.148718,-0.325801,-0.930128
1630588176853,-0.149145,-0.325313,-0.9307989999999999
1630588176862,-0.149633,-0.324764,-0.929518
1630588176872,-0.150487,-0.324398,-0.928908
1630588176881,-0.149816,-0.322141,-0.927688
1630588176891,-0.15006,-0.322019,-0.926956
1630588176901,-0.14926699999999998,-0.321287,-0.928115
1630588176910,-0.148779,-0.321592,-0.928542
1630588176920,-0.14926699999999998,-0.320372,-0.928115
1630588176929,-0.149511,-0.320311,-0.92903
1630588176939,-0.149633,-0.321592,-0.929213
1630588176949,-0.149023,-0.32208,-0.928115
1630588176958,-0.148718,-0.32208,-0.92781
1630588176968,-0.14865699999999998,-0.321836,-0.9274439999999999
1630588176977,-0.149206,-0.322446,-0.9277489999999999
1630588176987,-0.147803,-0.321897,-0.927627
1630588176997,-0.148596,-0.322385,-0.9268339999999999
1630588177006,-0.148291,-0.32195799999999997,-0.926895
1630588177016,-0.147986,-0.321226,-0.927993
1630588177025,-0.147254,-0.322141,-0.928603
1630588177035,-0.149755,-0.320799,-0.926346
1630588177045,-0.151097,-0.320494,-0.9268339999999999
1630588177054,-0.15067,-0.319762,-0.929762
1630588177064,-0.149938,-0.320006,-0.932202
1630588177073,-0.14835199999999998,-0.32208,-0.933178
1630588177083,-0.146583,-0.321836,-0.932202
1630588177093,-0.145912,-0.322385,-0.932141
1630588177102,-0.145485,-0.32165299999999997,-0.930738
1630588177112,-0.144631,-0.322629,-0.93025
1630588177121,-0.143777,-0.323178,-0.928237
1630588177131,-0.14280099999999998,-0.323971,-0.928481
1630588177141,-0.141642,-0.324825,-0.9280539999999999
1630588177150,-0.140544,-0.32574,-0.927993
1630588177160,-0.139629,-0.326533,-0.92842
1630588177169,-0.138409,-0.327509,-0.928176
1630588177179,-0.138409,-0.328058,-0.928115
1630588177189,-0.137982,-0.32848499999999997,-0.9283589999999999
1630588177198,-0.138226,-0.329339,-0.9283589999999999
1630588177208,-0.137799,-0.328973,-0.928298
1630588177217,-0.138714,-0.32970499999999997,-0.927871
1630588177227,-0.139568,-0.32848499999999997,-0.927627
1630588177237,-0.138958,-0.330376,-0.927078
1630588177246,-0.138775,-0.329827,-0.9259189999999999
1630588177256,-0.14005599999999999,-0.330193,-0.925126
1630588177265,-0.140727,-0.330437,-0.926773
1630588177275,-0.140605,-0.330498,-0.9283589999999999
1630588177285,-0.140422,-0.329949,-0.9271389999999999
1630588177294,-0.140788,-0.327936,-0.926102
1630588177304,-0.141032,-0.325557,-0.928176
1630588177313,-0.142313,-0.324154,-0.929518
1630588177323,-0.144082,-0.323971,-0.929091
1630588177333,-0.14396,-0.323605,-0.928115
1630588177342,-0.144204,-0.3233,-0.92781
1630588177352,-0.143838,-0.322202,-0.929213
1630588177361,-0.144265,-0.32147,-0.930372
1630588177371,-0.14518,-0.321409,-0.930067
1630588177381,-0.144692,-0.320372,-0.930677
1630588177390,-0.144814,-0.320311,-0.929091
1630588177400,-0.144814,-0.32025,-0.930006
1630588177409,-0.144326,-0.32147,-0.9289689999999999
1630588177419,-0.14335,-0.32256799999999997,-0.928176
1630588177429,-0.143045,-0.323056,-0.928542
1630588177438,-0.142252,-0.325008,-0.927566
1630588177448,-0.141642,-0.326228,-0.9292739999999999
1630588177457,-0.141825,-0.328607,-0.930128
1630588177467,-0.141154,-0.329583,-0.9298839999999999
1630588177477,-0.142069,-0.32939999999999997,-0.93086
1630588177486,-0.142618,-0.32970499999999997,-0.930067
1630588177496,-0.142374,-0.32909499999999997,-0.92964
1630588177505,-0.14249599999999998,-0.329217,-0.929335
1630588177515,-0.142862,-0.328973,-0.929396
1630588177525,-0.14280099999999998,-0.327997,-0.928908
1630588177534,-0.14152,-0.328119,-0.928298
1630588177544,-0.14249599999999998,-0.328058,-0.9286639999999999
1630588177553,-0.143228,-0.329034,-0.9283589999999999
1630588177563,-0.143228,-0.328546,-0.9286639999999999
1630588177573,-0.143167,-0.328668,-0.92842
1630588177582,-0.14219099999999998,-0.330681,-0.92842
1630588177592,-0.14097099999999999,-0.330193,-0.9289689999999999
1630588177601,-0.141154,-0.330742,-0.92903
1630588177611,-0.140178,-0.330193,-0.9289689999999999
1630588177621,-0.140788,-0.329156,-0.929152
1630588177630,-0.139202,-0.328546,-0.9286639999999999
1630588177640,-0.1403,-0.32939999999999997,-0.928176
1630588177649,-0.1403,-0.32939999999999997,-0.926346
1630588177659,-0.140849,-0.330681,-0.92659
1630588177669,-0.140178,-0.329766,-0.927322
1630588177678,-0.139629,-0.330193,-0.927932
1630588177688,-0.139873,-0.33000999999999997,-0.92903
1630588177697,-0.139324,-0.329949,-0.928176
1630588177707,-0.139202,-0.329644,-0.928847
1630588177717,-0.139629,-0.32878999999999997,-0.927566
1630588177726,-0.139141,-0.328668,-0.928115
1630588177736,-0.138348,-0.32787499999999997,-0.9272
1630588177745,-0.139446,-0.326899,-0.927078
1630588177755,-0.139263,-0.325984,-0.926285
1630588177765,-0.139629,-0.326228,-0.925736
1630588177774,-0.139629,-0.326289,-0.926407
1630588177784,-0.140178,-0.326472,-0.9298839999999999
1630588177793,-0.141032,-0.326289,-0.928237
1630588177803,-0.142374,-0.325191,-0.9272
1630588177813,-0.143472,-0.323971,-0.929152
1630588177822,-0.144509,-0.323971,-0.9314089999999999
1630588177832,-0.142923,-0.324459,-0.932202
1630588177841,-0.140849,-0.324947,-0.932202
1630588177851,-0.14152,-0.325435,-0.931653
1630588177861,-0.14097099999999999,-0.326106,-0.931775
1630588177870,-0.140544,-0.327143,-0.9314089999999999
1630588177880,-0.139934,-0.327082,-0.92964
1630588177889,-0.139324,-0.32757,-0.928237
1630588177899,-0.137616,-0.327265,-0.927932
1630588177909,-0.136396,-0.32817999999999997,-0.928115
1630588177918,-0.135359,-0.32817999999999997,-0.928298
1630588177928,-0.13511499999999999,-0.327997,-0.927322
1630588177937,-0.135298,-0.328302,-0.9262239999999999
1630588177947,-0.134688,-0.329583,-0.9259189999999999
1630588177957,-0.135359,-0.329278,-0.926285
1630588177966,-0.135237,-0.331047,-0.926102
1630588177976,-0.135359,-0.330437,-0.927566
1630588177985,-0.136396,-0.331657,-0.927627
1630588177995,-0.135664,-0.331901,-0.927261
1630588178005,-0.135969,-0.332206,-0.928176
1630588178014,-0.135542,-0.33153499999999997,-0.926895
1630588178024,-0.136884,-0.331718,-0.927566
1630588178033,-0.136457,-0.33061999999999997,-0.929213
1630588178043,-0.137189,-0.329644,-0.9271389999999999
1630588178053,-0.137921,-0.328241,-0.926346
1630588178062,-0.138348,-0.327021,-0.9280539999999999
1630588178072,-0.13908,-0.326838,-0.930372
1630588178081,-0.139324,-0.327204,-0.930128
1630588178091,-0.139751,-0.325984,-0.929152
1630588178101,-0.140239,-0.325862,-0.929457
1630588178110,-0.139446,-0.323849,-0.930677
1630588178120,-0.139202,-0.323788,-0.9304939999999999
1630588178129,-0.138714,-0.324398,-0.930433
1630588178139,-0.138348,-0.325618,-0.929762
1630588178149,-0.137982,-0.325984,-0.930433
1630588178158,-0.137433,-0.326838,-0.9301889999999999
1630588178168,-0.137616,-0.325862,-0.930738
1630588178177,-0.138531,-0.326472,-0.92964
1630588178187,-0.13786,-0.325801,-0.928725
1630588178197,-0.136579,-0.324764,-0.929762
1630588178206,-0.136762,-0.324764,-0.930311
1630588178216,-0.138592,-0.324154,-0.929701
1630588178225,-0.139202,-0.324154,-0.930006
1630588178235,-0.139324,-0.324703,-0.9311039999999999
1630588178245,-0.139629,-0.324825,-0.930128
1630588178254,-0.139751,-0.324215,-0.930982
1630588178264,-0.139995,-0.32452,-0.930982
1630588178273,-0.14005599999999999,-0.32513,-0.930677
1630588178283,-0.1403,-0.322812,-0.9307989999999999
1630588178293,-0.140178,-0.32134799999999997,-0.930921
1630588178302,-0.139873,-0.321104,-0.93086
1630588178312,-0.140178,-0.320799,-0.931226
1630588178321,-0.140727,-0.320555,-0.9307989999999999
1630588178331,-0.139873,-0.32073799999999997,-0.9320189999999999
1630588178341,-0.13969,-0.320006,-0.931531
1630588178350,-0.139446,-0.318481,-0.9314089999999999
1630588178360,-0.139446,-0.318969,-0.931165
1630588178369,-0.138653,-0.31842,-0.931043
1630588178379,-0.137982,-0.319091,-0.930982
1630588178389,-0.138165,-0.319335,-0.929701
1630588178398,-0.137006,-0.318176,-0.928908
1630588178408,-0.136701,-0.318847,-0.929335
1630588178417,-0.136274,-0.318786,-0.92964
1630588178427,-0.135908,-0.319579,-0.9311039999999999
1630588178437,-0.13541999999999998,-0.321165,-0.9311039999999999
1630588178446,-0.13511499999999999,-0.32147,-0.931531
1630588178456,-0.135542,-0.321897,-0.9292739999999999
1630588178465,-0.135603,-0.32147,-0.929396
1630588178475,-0.135786,-0.32226299999999997,-0.929396
1630588178485,-0.135969,-0.32269,-0.930067
1630588178494,-0.135542,-0.323178,-0.92964
1630588178504,-0.135542,-0.323788,-0.931043
1630588178513,-0.135664,-0.323239,-0.932202
1630588178523,-0.13450499999999999,-0.323422,-0.930372
1630588178533,-0.135298,-0.324398,-0.928542
1630588178542,-0.134993,-0.323727,-0.930555
1630588178552,-0.13541999999999998,-0.323666,-0.933117
1630588178561,-0.13602999999999998,-0.323239,-0.930982
1630588178571,-0.137189,-0.321531,-0.9307989999999999
1630588178581,-0.13725,-0.320311,-0.932568
1630588178590,-0.136884,-0.321165,-0.934886
1630588178600,-0.13511499999999999,-0.32025,-0.93757
1630588178609,-0.133468,-0.32226299999999997,-0.936838
1630588178619,-0.131638,-0.324642,-0.93635
1630588178629,-0.13054,-0.326411,-0.934276
1630588178638,-0.129137,-0.327326,-0.93208
1630588178648,-0.129137,-0.327387,-0.930616
1630588178657,-0.128893,-0.327387,-0.929762
1630588178667,-0.127856,-0.327265,-0.9292739999999999
1630588178677,-0.127307,-0.327021,-0.92964
1630588178686,-0.127429,-0.326899,-0.929152
1630588178696,-0.12834399999999999,-0.327387,-0.928115
1630588178705,-0.129076,-0.32787499999999997,-0.9274439999999999
1630588178715,-0.128893,-0.327936,-0.927322
1630588178725,-0.12925899999999999,-0.327936,-0.927261
1630588178734,-0.130662,-0.328241,-0.9274439999999999
1630588178744,-0.131455,-0.326716,-0.928115
1630588178753,-0.131638,-0.327265,-0.928237
1630588178763,-0.133041,-0.326899,-0.928481
1630588178773,-0.134322,-0.325679,-0.929091
1630588178782,-0.135237,-0.323178,-0.929823
1630588178792,-0.136823,-0.322019,-0.929152
1630588178801,-0.137555,-0.321592,-0.927566
1630588178811,-0.139629,-0.318847,-0.927688
1630588178821,-0.141093,-0.31598,-0.929518
1630588178830,-0.142252,-0.314394,-0.931165
1630588178840,-0.14310599999999998,-0.313967,-0.929823
1630588178849,-0.14188599999999998,-0.315187,-0.929518
1630588178859,-0.143472,-0.314699,-0.9301889999999999
1630588178869,-0.143716,-0.314943,-0.931836
1630588178878,-0.14335,-0.313723,-0.9298839999999999
1630588178888,-0.144082,-0.314394,-0.930372
1630588178897,-0.143472,-0.315126,-0.9304939999999999
1630588178907,-0.143167,-0.317139,-0.9307989999999999
1630588178917,-0.142557,-0.320372,-0.9311039999999999
1630588178926,-0.140849,-0.323361,-0.9307989999999999
1630588178936,-0.140178,-0.325618,-0.9304939999999999
1630588178945,-0.138836,-0.327814,-0.9317139999999999
1630588178955,-0.138836,-0.328668,-0.933056
1630588178965,-0.137738,-0.328912,-0.9335439999999999
1630588178974,-0.139019,-0.328668,-0.932202
1630588178984,-0.139507,-0.330437,-0.931165
1630588178993,-0.138653,-0.330742,-0.931836
1630588179003,-0.138836,-0.332206,-0.931897
1630588179013,-0.137738,-0.33305999999999997,-0.931653
1630588179022,-0.137799,-0.334707,-0.929396
1630588179032,-0.138165,-0.334707,-0.926407
1630588179041,-0.139751,-0.33336499999999997,-0.927383
1630588179051,-0.14127599999999998,-0.331962,-0.926651
1630588179061,-0.14274,-0.330803,-0.92659
1630588179070,-0.145119,-0.328546,-0.928847
1630588179080,-0.147193,-0.325496,-0.929945
1630588179089,-0.14865699999999998,-0.323788,-0.930921
1630588179099,-0.150609,-0.32073799999999997,-0.932141
1630588179109,-0.15189,-0.31707799999999997,-0.931592
1630588179118,-0.153049,-0.31415,-0.931226
1630588179128,-0.154757,-0.311649,-0.930555
1630588179137,-0.154269,-0.310002,-0.930128
1630588179147,-0.155367,-0.307989,-0.92964
1630588179157,-0.155062,-0.307745,-0.928542
1630588179166,-0.156465,-0.308294,-0.92781
1630588179176,-0.155672,-0.308477,-0.9268339999999999
1630588179185,-0.155794,-0.309209,-0.927871
1630588179195,-0.15616,-0.310368,-0.928115
1630588179205,-0.156465,-0.311466,-0.9283589999999999
1630588179214,-0.156404,-0.312503,-0.928786
1630588179224,-0.156587,-0.313784,-0.9283589999999999
1630588179233,-0.158356,-0.315492,-0.927871
1630588179243,-0.156526,-0.316285,-0.9283589999999999
1630588179253,-0.15738,-0.317139,-0.930311
1630588179262,-0.158051,-0.3172,-0.930433
1630588179272,-0.158173,-0.31738299999999997,-0.931043
1630588179281,-0.158722,-0.317261,-0.930311
1630588179291,-0.158051,-0.317505,-0.931043
1630588179301,-0.159332,-0.316102,-0.9317139999999999
1630588179310,-0.160003,-0.314882,-0.9301889999999999
1630588179320,-0.162138,-0.313113,-0.929213
1630588179329,-0.16348,-0.313174,-0.9301889999999999
1630588179339,-0.16408999999999999,-0.312381,-0.9323239999999999
1630588179349,-0.163968,-0.312381,-0.934032
1630588179358,-0.163907,-0.312686,-0.933056
1630588179368,-0.164822,-0.311893,-0.933056
1630588179377,-0.164761,-0.311466,-0.933666
1630588179387,-0.165493,-0.310612,-0.933666
1630588179397,-0.166347,-0.310429,-0.9320189999999999
1630588179406,-0.166286,-0.30963599999999997,-0.932873
1630588179416,-0.165554,-0.310002,-0.932568
1630588179425,-0.164761,-0.309392,-0.931958
1630588179435,-0.163907,-0.309087,-0.932141
1630588179445,-0.163541,-0.30902599999999997,-0.9314089999999999
1630588179454,-0.16348,-0.308904,-0.931592
1630588179464,-0.164151,-0.308355,-0.931043
1630588179473,-0.163236,-0.307257,-0.93086
1630588179483,-0.163968,-0.305915,-0.9314089999999999
1630588179493,-0.16408999999999999,-0.306159,-0.930616
1630588179502,-0.163785,-0.306525,-0.93086
1630588179512,-0.16348,-0.305854,-0.93086
1630588179521,-0.163846,-0.30622,-0.929762
1630588179531,-0.163297,-0.30622,-0.930006
1630588179541,-0.16348,-0.307562,-0.930921
1630588179550,-0.163968,-0.30805,-0.9317139999999999
1630588179560,-0.162748,-0.30805,-0.928786
1630588179569,-0.163724,-0.307318,-0.92842
1630588179579,-0.164212,-0.306708,-0.93025
1630588179589,-0.164151,-0.30597599999999997,-0.9298839999999999
1630588179598,-0.163602,-0.306708,-0.928847
1630588179608,-0.164883,-0.30689099999999997,-0.9280539999999999
1630588179617,-0.16439499999999999,-0.307013,-0.92903
1630588179627,-0.164334,-0.306403,-0.930433
1630588179637,-0.163175,-0.306403,-0.9304939999999999
1630588179646,-0.162748,-0.305854,-0.9311039999999999
1630588179656,-0.162565,-0.305732,-0.931165
1630588179665,-0.162016,-0.30561,-0.931226
1630588179675,-0.161406,-0.305854,-0.9323239999999999
1630588179685,-0.161528,-0.306708,-0.930738
1630588179694,-0.160491,-0.307257,-0.930006
1630588179704,-0.159637,-0.307745,-0.930616
1630588179713,-0.159088,-0.307318,-0.930921
1630588179723,-0.15921,-0.308355,-0.931287
1630588179733,-0.158722,-0.308294,-0.931348
1630588179742,-0.15975899999999998,-0.308843,-0.931958
1630588179752,-0.159027,-0.310734,-0.932446
1630588179761,-0.158356,-0.31049,-0.932568
1630588179771,-0.158112,-0.310612,-0.931775
1630588179781,-0.157502,-0.311527,-0.9326289999999999
1630588179790,-0.156282,-0.311344,-0.932812
1630588179800,-0.156953,-0.312625,-0.93269
1630588179809,-0.156282,-0.312686,-0.9323239999999999
1630588179819,-0.156221,-0.314272,-0.93147
1630588179829,-0.155794,-0.313967,-0.9326289999999999
1630588179838,-0.15616,-0.314394,-0.93208
1630588179848,-0.156526,-0.313967,-0.9323239999999999
1630588179857,-0.156953,-0.313906,-0.9323239999999999
1630588179867,-0.155916,-0.31293,-0.932202
1630588179877,-0.156404,-0.312198,-0.93147
1630588179886,-0.156526,-0.311222,-0.93147
1630588179896,-0.157014,-0.310185,-0.931287
1630588179905,-0.15555,-0.30927,-0.93025
1630588179915,-0.157075,-0.309209,-0.930616
1630588179925,-0.156648,-0.308904,-0.930372
1630588179934,-0.157624,-0.30866,-0.930677
1630588179944,-0.157441,-0.30872099999999997,-0.931348
1630588179953,-0.157502,-0.30841599999999997,-0.931226
1630588179963,-0.157685,-0.308538,-0.931348
1630588179973,-0.15792899999999999,-0.30927,-0.931226
1630588179982,-0.157746,-0.308904,-0.930921
1630588179992,-0.158783,-0.308538,-0.930433
1630588180001,-0.158783,-0.307562,-0.930128
1630588180011,-0.157807,-0.30805,-0.930128
1630588180021,-0.158356,-0.30902599999999997,-0.928481
1630588180030,-0.158112,-0.309392,-0.930311
1630588180040,-0.157746,-0.310734,-0.931897
1630588180049,-0.158661,-0.3111,-0.929762
1630588180059,-0.160613,-0.309392,-0.929213
1630588180069,-0.159881,-0.308538,-0.930372
1630588180078,-0.159698,-0.308538,-0.932568
1630588180088,-0.15982,-0.308904,-0.933666
1630588180097,-0.1586,-0.310063,-0.93391
1630588180107,-0.157258,-0.311222,-0.933971
1630588180117,-0.15792899999999999,-0.311466,-0.933971
1630588180126,-0.15738,-0.31171,-0.932568
1630588180136,-0.156831,-0.311771,-0.931958
1630588180145,-0.155672,-0.31171,-0.931836
1630588180155,-0.15390299999999998,-0.311405,-0.9320189999999999
1630588180165,-0.154086,-0.312015,-0.931958
1630588180174,-0.151829,-0.312259,-0.931165
1630588180184,-0.151585,-0.314028,-0.93147
1630588180193,-0.15128,-0.312808,-0.930982
1630588180203,-0.151158,-0.313174,-0.930555
1630588180213,-0.15128,-0.313723,-0.930555
1630588180222,-0.151463,-0.313601,-0.929457
1630588180232,-0.152439,-0.314028,-0.92964
1630588180241,-0.153049,-0.315797,-0.930128
1630588180251,-0.152866,-0.315248,-0.9307989999999999
1630588180261,-0.153537,-0.31598,-0.929518
1630588180270,-0.153659,-0.31659,-0.929335
1630588180280,-0.15451299999999998,-0.31598,-0.930128
1630588180289,-0.154452,-0.316224,-0.932263
1630588180299,-0.155245,-0.315431,-0.930311
1630588180309,-0.156404,-0.313174,-0.930067
1630588180318,-0.158112,-0.31055099999999997,-0.931653
1630588180328,-0.157502,-0.309392,-0.933056
1630588180337,-0.15914899999999998,-0.309514,-0.932141
1630588180347,-0.15884399999999999,-0.308233,-0.93269
1630588180357,-0.15975899999999998,-0.308538,-0.932812
1630588180366,-0.158661,-0.307379,-0.933178
1630588180376,-0.159393,-0.306464,-0.93269
1630588180385,-0.15921,-0.306342,-0.932446
1630588180395,-0.15945399999999998,-0.30628099999999997,-0.9314089999999999
1630588180405,-0.158783,-0.30719599999999997,-0.932568
1630588180414,-0.158051,-0.308782,-0.932507
1630588180424,-0.157014,-0.30963599999999997,-0.933422
1630588180433,-0.155672,-0.310795,-0.9333
1630588180443,-0.15494,-0.31232,-0.932568
1630588180453,-0.155977,-0.312808,-0.93147
1630588180462,-0.155001,-0.313967,-0.931775
1630588180472,-0.154086,-0.31293,-0.9314089999999999
1630588180481,-0.15451299999999998,-0.313174,-0.931653
1630588180491,-0.15390299999999998,-0.313052,-0.9311039999999999
1630588180501,-0.15451299999999998,-0.312564,-0.930311
1630588180510,-0.15451299999999998,-0.312564,-0.931287
1630588180520,-0.154086,-0.312747,-0.9323239999999999
1630588180529,-0.15433,-0.312076,-0.93269
1630588180539,-0.15420799999999998,-0.310978,-0.932873
1630588180549,-0.15512299999999998,-0.309575,-0.93269
1630588180558,-0.155367,-0.30841599999999997,-0.9317139999999999
1630588180568,-0.154757,-0.307623,-0.932812
1630588180577,-0.154635,-0.307562,-0.932385
1630588180587,-0.155428,-0.306952,-0.93208
1630588180597,-0.155245,-0.306342,-0.931836
1630588180606,-0.155733,-0.30597599999999997,-0.931287
1630588180616,-0.156221,-0.307257,-0.9317139999999999
1630588180625,-0.156892,-0.306647,-0.931775
1630588180635,-0.156282,-0.306037,-0.931043
1630588180645,-0.156526,-0.30597599999999997,-0.932202
1630588180654,-0.155916,-0.306342,-0.933422
1630588180664,-0.155367,-0.306525,-0.933605
1630588180673,-0.155794,-0.306159,-0.934703
1630588180683,-0.156587,-0.30597599999999997,-0.933361
1630588180693,-0.156465,-0.30683,-0.9329339999999999
1630588180702,-0.156709,-0.30780599999999997,-0.933117
1630588180712,-0.156587,-0.308233,-0.933056
1630588180721,-0.156648,-0.30811099999999997,-0.931531
1630588180731,-0.15616,-0.308355,-0.9301889999999999
1630588180741,-0.155794,-0.308965,-0.931287
1630588180750,-0.155855,-0.308538,-0.932873
1630588180760,-0.155489,-0.309453,-0.930311
1630588180769,-0.156526,-0.310124,-0.930311
1630588180779,-0.157136,-0.310124,-0.931348
1630588180789,-0.157807,-0.30927,-0.934215
1630588180798,-0.157136,-0.308477,-0.932446
1630588180808,-0.159027,-0.30780599999999997,-0.929152
1630588180817,-0.160613,-0.30750099999999997,-0.930372
1630588180827,-0.160613,-0.306464,-0.93269
1630588180837,-0.16036899999999998,-0.307318,-0.93513
1630588180846,-0.158478,-0.308782,-0.935618
1630588180856,-0.158966,-0.309514,-0.936045
1630588180865,-0.158173,-0.312198,-0.935557
1630588180875,-0.1586,-0.313113,-0.933971
1630588180885,-0.158478,-0.312747,-0.931592
1630588180894,-0.15853899999999999,-0.311283,-0.931043
1630588180904,-0.157014,-0.310307,-0.932141
1630588180913,-0.156465,-0.308782,-0.931775
1630588180923,-0.154879,-0.305854,-0.931775
1630588180933,-0.154757,-0.30628099999999997,-0.93147
1630588180942,-0.155184,-0.306342,-0.931165
1630588180952,-0.153964,-0.307867,-0.930616
1630588180961,-0.154147,-0.30927,-0.928481
1630588180971,-0.154452,-0.309514,-0.929091
1630588180981,-0.154086,-0.310307,-0.930372
1630588180990,-0.153232,-0.312015,-0.930311
1630588181000,-0.15359799999999998,-0.311832,-0.931531
1630588181009,-0.153964,-0.3111,-0.932568
1630588181019,-0.154086,-0.310917,-0.93208
1630588181029,-0.155306,-0.309514,-0.933666
1630588181038,-0.153964,-0.30963599999999997,-0.935252
1630588181048,-0.154696,-0.31049,-0.933422
1630588181057,-0.155062,-0.310612,-0.931531
1630588181067,-0.15481799999999998,-0.30866,-0.9335439999999999
1630588181077,-0.155306,-0.30811099999999997,-0.9341539999999999
1630588181086,-0.155001,-0.307135,-0.933117
1630588181096,-0.154879,-0.30622,-0.932995
1630588181105,-0.155001,-0.304817,-0.934276
1630588181115,-0.15481799999999998,-0.30414599999999997,-0.934703
1630588181125,-0.154574,-0.30414599999999997,-0.93391
1630588181134,-0.154879,-0.304207,-0.934825
1630588181144,-0.154269,-0.305183,-0.933117
1630588181153,-0.15420799999999998,-0.304878,-0.933605
1630588181163,-0.153842,-0.30414599999999997,-0.933727
1630588181173,-0.153232,-0.303597,-0.9344589999999999
1630588181182,-0.152561,-0.304512,-0.933971
1630588181192,-0.15311,-0.303902,-0.93452
1630588181201,-0.15372,-0.303719,-0.933788
1630588181211,-0.152744,-0.304634,-0.934825
1630588181221,-0.153171,-0.304695,-0.93513
1630588181230,-0.152195,-0.304512,-0.935435
1630588181240,-0.153171,-0.305183,-0.9353739999999999
1630588181249,-0.153964,-0.304878,-0.935008
1630588181259,-0.152927,-0.30475599999999997,-0.93513
1630588181269,-0.153537,-0.304634,-0.934825
1630588181278,-0.15298799999999999,-0.304817,-0.9350689999999999
1630588181288,-0.152744,-0.304207,-0.935618
1630588181297,-0.1525,-0.303292,-0.934581
1630588181307,-0.152744,-0.302865,-0.936228
1630588181317,-0.152805,-0.302194,-0.9347639999999999
1630588181326,-0.15329299999999998,-0.302194,-0.934398
1630588181336,-0.15268299999999999,-0.30195,-0.935191
1630588181345,-0.15189,-0.302316,-0.934398
1630588181355,-0.15237799999999999,-0.302865,-0.934703
1630588181365,-0.151707,-0.302377,-0.9350689999999999
1630588181374,-0.151768,-0.303597,-0.934093
1630588181384,-0.151951,-0.305,-0.933422
1630588181393,-0.15128,-0.306037,-0.933727
1630588181403,-0.149877,-0.306464,-0.933422
1630588181413,-0.150853,-0.306708,-0.9329339999999999
1630588181422,-0.150487,-0.30628099999999997,-0.933605
1630588181432,-0.149999,-0.307074,-0.933727
1630588181441,-0.151097,-0.30689099999999997,-0.933422
1630588181451,-0.15006,-0.30744,-0.932812
1630588181461,-0.14896199999999998,-0.307684,-0.9314089999999999
1630588181470,-0.150121,-0.30811099999999997,-0.930921
1630588181480,-0.14926699999999998,-0.30988,-0.931958
1630588181489,-0.149328,-0.310307,-0.932202
1630588181499,-0.148474,-0.309697,-0.9329339999999999
1630588181509,-0.14865699999999998,-0.309209,-0.932141
1630588181518,-0.149023,-0.309819,-0.93025
1630588181528,-0.14884,-0.310307,-0.929518
1630588181537,-0.149389,-0.309392,-0.9314089999999999
1630588181547,-0.149511,-0.30866,-0.932141
1630588181557,-0.150304,-0.308294,-0.930616
1630588181566,-0.150853,-0.306525,-0.9311039999999999
1630588181576,-0.151524,-0.30567099999999997,-0.932568
1630588181585,-0.151341,-0.30445099999999997,-0.934825
1630588181595,-0.151158,-0.304268,-0.93635
1630588181605,-0.150792,-0.306098,-0.93635
1630588181614,-0.150609,-0.307379,-0.936167
1630588181624,-0.150487,-0.308538,-0.935801
1630588181633,-0.150243,-0.30902599999999997,-0.936655
1630588181643,-0.150548,-0.307928,-0.935008
1630588181653,-0.149572,-0.307867,-0.935801
1630588181662,-0.149511,-0.306708,-0.936167
1630588181672,-0.149023,-0.306769,-0.935435
1630588181681,-0.14835199999999998,-0.307013,-0.9333
1630588181691,-0.147864,-0.309148,-0.932507
1630588181701,-0.147254,-0.311161,-0.932568
1630588181710,-0.146705,-0.313479,-0.9323239999999999
1630588181720,-0.1464,-0.315919,-0.932812
1630588181729,-0.144936,-0.318664,-0.933788
1630588181739,-0.146461,-0.319091,-0.9326289999999999
1630588181749,-0.146339,-0.319396,-0.933422
1630588181758,-0.14701,-0.319884,-0.9329339999999999
1630588181768,-0.14652199999999999,-0.319274,-0.933422
1630588181777,-0.147071,-0.3172,-0.934703
1630588181787,-0.14682699999999999,-0.315614,-0.9350689999999999
1630588181797,-0.146156,-0.31537,-0.934215
1630588181806,-0.147315,-0.313357,-0.932141
1630588181816,-0.147864,-0.309575,-0.932568
1630588181825,-0.14865699999999998,-0.30805,-0.9338489999999999
1630588181835,-0.148596,-0.306342,-0.9338489999999999
1630588181845,-0.148413,-0.304878,-0.932263
1630588181854,-0.148169,-0.30378,-0.93269
1630588181864,-0.149023,-0.302804,-0.933666
1630588181873,-0.149816,-0.301523,-0.934276
1630588181883,-0.149633,-0.300608,-0.934642
1630588181893,-0.150304,-0.299998,-0.93452
1630588181902,-0.150243,-0.299388,-0.9344589999999999
1630588181912,-0.14926699999999998,-0.298778,-0.93513
1630588181921,-0.149877,-0.299754,-0.933971
1630588181931,-0.149633,-0.300059,-0.93391
1630588181941,-0.149694,-0.301218,-0.935252
1630588181950,-0.149328,-0.301035,-0.935191
1630588181960,-0.149816,-0.30195,-0.936045
1630588181969,-0.149145,-0.301889,-0.936472
1630588181979,-0.148901,-0.302743,-0.936228
1630588181989,-0.148779,-0.300974,-0.9378139999999999
1630588181998,-0.148779,-0.301279,-0.938058
1630588182008,-0.148474,-0.300669,-0.937631
1630588182017,-0.148108,-0.300608,-0.9378139999999999
1630588182027,-0.147803,-0.299876,-0.938302
1630588182037,-0.148108,-0.299632,-0.937875
1630588182046,-0.148291,-0.299571,-0.9368989999999999
1630588182056,-0.14823,-0.299144,-0.936228
1630588182065,-0.14804699999999998,-0.298961,-0.937265
1630588182075,-0.148169,-0.297375,-0.936716
1630588182085,-0.148413,-0.297131,-0.93696
1630588182094,-0.147986,-0.296948,-0.936167
1630588182104,-0.14804699999999998,-0.296155,-0.935862
1630588182113,-0.148779,-0.296216,-0.9359839999999999
1630588182123,-0.149206,-0.296216,-0.935862
1630588182133,-0.149145,-0.29609399999999997,-0.9372039999999999
1630588182142,-0.149633,-0.296216,-0.936838
1630588182152,-0.148901,-0.29609399999999997,-0.937387
1630588182161,-0.149389,-0.29670399999999997,-0.937326
1630588182171,-0.149023,-0.296033,-0.93574
1630588182181,-0.149755,-0.296643,-0.935313
1630588182190,-0.149572,-0.29609399999999997,-0.93574
1630588182200,-0.15006,-0.295911,-0.936411
1630588182209,-0.149389,-0.29609399999999997,-0.936777
1630588182219,-0.149572,-0.296216,-0.937021
1630588182229,-0.150548,-0.29700899999999997,-0.936838
1630588182238,-0.149938,-0.29670399999999997,-0.936655
1630588182248,-0.150182,-0.29768,-0.9362889999999999
1630588182257,-0.15067,-0.298412,-0.936045
1630588182267,-0.150365,-0.29829,-0.936655
1630588182277,-0.150304,-0.29707,-0.9353739999999999
1630588182286,-0.150243,-0.29768,-0.934337
1630588182296,-0.150975,-0.298839,-0.934642
1630588182305,-0.151036,-0.299876,-0.934886
1630588182315,-0.151097,-0.299937,-0.93635
1630588182325,-0.15128,-0.299693,-0.934398
1630588182334,-0.15298799999999999,-0.298595,-0.933483
1630588182344,-0.15481799999999998,-0.297558,-0.934947
1630588182353,-0.153842,-0.29670399999999997,-0.937326
1630588182363,-0.153354,-0.297741,-0.938912
1630588182373,-0.154635,-0.298473,-0.939156
1630588182382,-0.154086,-0.299388,-0.939034
1630588182392,-0.154269,-0.299754,-0.938668
1630588182401,-0.154025,-0.300303,-0.9375089999999999
1630588182411,-0.15372,-0.300303,-0.937387
1630588182421,-0.15311,-0.30073,-0.9365939999999999
1630588182430,-0.153232,-0.299937,-0.93757
1630588182440,-0.150914,-0.300242,-0.936777
1630588182449,-0.150487,-0.299083,-0.9365939999999999
1630588182459,-0.149755,-0.299998,-0.935252
1630588182469,-0.149145,-0.299632,-0.934703
1630588182478,-0.149572,-0.301157,-0.9335439999999999
1630588182488,-0.14884,-0.301889,-0.933117
1630588182497,-0.149328,-0.302438,-0.932141
1630588182507,-0.149389,-0.30414599999999997,-0.9323239999999999
1630588182517,-0.149389,-0.307135,-0.932507
1630588182526,-0.150365,-0.307257,-0.93269
1630588182536,-0.149877,-0.307745,-0.932873
1630588182545,-0.151585,-0.306708,-0.933727
1630588182555,-0.152012,-0.306464,-0.9335439999999999
1630588182565,-0.152805,-0.30597599999999997,-0.934276
1630588182574,-0.152317,-0.306342,-0.9356789999999999
1630588182584,-0.152927,-0.30683,-0.935252
1630588182593,-0.153781,-0.30561,-0.932873
1630588182603,-0.155245,-0.303048,-0.935435
1630588182613,-0.156343,-0.300791,-0.934825
1630588182622,-0.156221,-0.300974,-0.933727
1630588182632,-0.156404,-0.299754,-0.934093
1630588182641,-0.15616,-0.297558,-0.933666
1630588182651,-0.156648,-0.296765,-0.934703
1630588182661,-0.15677,-0.296216,-0.935008
1630588182670,-0.156465,-0.295606,-0.934886
1630588182680,-0.156038,-0.295972,-0.935252
1630588182689,-0.156282,-0.29548399999999997,-0.936167
1630588182699,-0.15555,-0.295667,-0.936228
1630588182709,-0.155611,-0.298107,-0.934581
1630588182718,-0.154025,-0.299754,-0.935008
1630588182728,-0.15268299999999999,-0.301889,-0.93391
1630588182737,-0.152439,-0.301889,-0.933971
1630588182747,-0.152866,-0.301462,-0.9347639999999999
1630588182757,-0.1525,-0.300791,-0.934337
1630588182766,-0.152317,-0.300669,-0.935496
1630588182776,-0.151646,-0.302255,-0.936411
1630588182785,-0.150487,-0.304573,-0.9365939999999999
1630588182795,-0.150304,-0.305305,-0.937082
1630588182805,-0.149755,-0.307318,-0.936106
1630588182814,-0.148718,-0.307928,-0.936472
1630588182824,-0.149999,-0.308477,-0.935618
1630588182833,-0.150243,-0.30658599999999997,-0.9347639999999999
1630588182843,-0.151585,-0.304939,-0.936045
1630588182853,-0.1525,-0.304634,-0.936716
1630588182862,-0.153232,-0.303414,-0.937021
1630588182872,-0.152805,-0.302621,-0.936533
1630588182881,-0.153232,-0.302865,-0.937448
1630588182891,-0.152866,-0.302804,-0.937265
1630588182901,-0.15311,-0.302499,-0.9365939999999999
1630588182910,-0.153354,-0.302133,-0.935862
1630588182920,-0.153781,-0.30134,-0.935862
1630588182929,-0.15481799999999998,-0.300181,-0.936411
1630588182939,-0.15481799999999998,-0.300364,-0.936106
1630588182949,-0.155001,-0.299144,-0.9353739999999999
1630588182958,-0.155428,-0.298778,-0.935801
1630588182968,-0.155001,-0.298412,-0.9341539999999999
1630588182977,-0.154025,-0.299632,-0.9341539999999999
1630588182987,-0.154452,-0.299022,-0.934276
1630588182997,-0.154269,-0.299022,-0.935008
1630588183006,-0.153964,-0.299449,-0.934032
1630588183016,-0.15451299999999998,-0.29951,-0.9341539999999999
1630588183025,-0.153842,-0.299327,-0.933666
1630588183035,-0.153476,-0.299754,-0.932446
1630588183045,-0.153415,-0.2989,-0.932568
1630588183054,-0.15390299999999998,-0.299266,-0.9333
1630588183064,-0.154147,-0.299815,-0.933483
1630588183073,-0.15268299999999999,-0.300913,-0.933178
1630588183083,-0.152866,-0.301462,-0.931653
1630588183093,-0.153232,-0.300913,-0.932141
1630588183102,-0.153659,-0.300486,-0.932446
1630588183112,-0.153354,-0.301706,-0.9314089999999999
1630588183121,-0.153171,-0.302621,-0.930616
1630588183131,-0.15433,-0.30073,-0.933422
1630588183141,-0.15359799999999998,-0.302011,-0.934581
1630588183150,-0.15329299999999998,-0.304695,-0.9362889999999999
1630588183160,-0.151585,-0.30622,-0.937997
1630588183169,-0.150731,-0.307318,-0.936838
1630588183179,-0.149206,-0.309514,-0.93574
1630588183189,-0.149694,-0.310795,-0.9356789999999999
1630588183198,-0.149816,-0.312137,-0.93574
1630588183208,-0.149389,-0.31171,-0.935618
1630588183217,-0.14762,-0.31232,-0.935862
1630588183227,-0.145973,-0.311954,-0.937143
1630588183237,-0.144143,-0.310978,-0.938668
1630588183246,-0.142984,-0.31049,-0.937387
1630588183256,-0.142618,-0.311039,-0.935618
1630588183265,-0.142618,-0.312503,-0.934276
1630588183275,-0.142435,-0.314089,-0.93269
1630588183285,-0.142618,-0.31616299999999997,-0.932446
1630588183294,-0.142313,-0.319335,-0.933422
1630588183304,-0.143777,-0.32134799999999997,-0.93574
1630588183313,-0.144448,-0.32208,-0.940376
1630588183323,-0.145912,-0.32195799999999997,-0.9459879999999999
1630588183333,-0.146949,-0.32134799999999997,-0.946476
1630588183342,-0.1464,-0.32195799999999997,-0.94306
1630588183352,-0.148108,-0.321592,-0.9417179999999999
1630588183361,-0.14701,-0.32025,-0.93879
1630588183371,-0.14621699999999999,-0.31921299999999997,-0.93513
1630588183381,-0.14743699999999998,-0.315187,-0.929701
1630588183390,-0.148108,-0.31024599999999997,-0.929152
1630588183400,-0.147986,-0.307013,-0.93208
1630588183409,-0.148291,-0.301645,-0.932507
1630588183419,-0.149206,-0.29761899999999997,-0.932995
1630588183429,-0.150914,-0.29463,-0.933117
1630588183438,-0.151097,-0.292556,-0.931836
1630588183448,-0.15128,-0.292861,-0.9304939999999999
1630588183457,-0.147376,-0.296338,-0.927932
1630588183467,-0.146888,-0.299083,-0.926956
1630588183477,-0.145729,-0.301645,-0.93269
1630588183486,-0.146644,-0.303048,-0.932385
1630588183496,-0.148169,-0.301889,-0.928725
1630588183505,-0.149511,-0.299266,-0.926163
1630588183515,-0.149938,-0.29517899999999997,-0.928847
1630588183525,-0.15006,-0.291397,-0.932751
1630588183534,-0.149511,-0.289262,-0.9333
1630588183544,-0.149084,-0.289018,-0.934032
1630588183553,-0.147925,-0.289201,-0.9335439999999999
1630588183563,-0.149389,-0.289262,-0.931531
1630588183573,-0.152256,-0.293227,-0.93086
1630588183582,-0.15390299999999998,-0.296826,-0.933361
1630588183592,-0.154574,-0.301462,-0.929701
1630588183601,-0.155428,-0.30994099999999997,-0.925126
1630588183611,-0.155916,-0.322324,-0.926285
1630588183621,-0.15298799999999999,-0.33733,-0.92842
1630588183630,-0.147376,-0.35075,-0.927871
1630588183640,-0.138714,-0.3538,-0.935252
1630588183649,-0.134322,-0.348005,-0.948245
1630588183659,-0.13450499999999999,-0.331413,-0.96136
1630588183669,-0.136884,-0.310124,-0.9703269999999999
1630588183678,-0.141093,-0.285724,-0.975939
1630588183688,-0.147803,-0.261995,-0.96441
1630588183697,-0.159942,-0.24418299999999998,-0.961177
1630588183707,-0.176229,-0.22997,-0.988444
1630588183717,-0.187697,-0.207766,-1.004243
1630588183726,-0.199165,-0.184342,-0.9983259999999999
1630588183736,-0.20014099999999999,-0.172264,-0.9846619999999999
1630588183745,-0.210145,-0.152622,-0.970571
1630588183755,-0.207644,-0.14219099999999998,-0.9551379999999999
1630588183765,-0.205021,-0.134688,-0.93879
1630588183774,-0.20630199999999999,-0.128039,-0.931897
1630588183784,-0.20496,-0.124135,-0.930921
1630588183793,-0.202825,-0.122793,-0.931958
1630588183803,-0.199165,-0.120597,-0.927993
1630588183813,-0.196176,-0.117852,-0.9268339999999999
1630588183822,-0.19093,-0.115961,-0.928603
1630588183832,-0.185867,-0.11163,-0.934642
1630588183841,-0.183915,-0.104798,-0.939705
1630588183851,-0.18531799999999998,-0.097783,-0.941962
1630588183861,-0.188551,-0.093086,-0.9435479999999999
1630588183870,-0.194346,-0.09143899999999999,-0.946537
1630588183880,-0.198311,-0.093574,-0.942145
1630588183889,-0.20435,-0.09577,-0.942389
1630588183899,-0.207888,-0.10083299999999999,-0.943792
1630588183909,-0.208986,-0.104859,-0.940925
1630588183918,-0.209474,-0.107116,-0.9365939999999999
1630588183928,-0.210206,-0.106262,-0.933361
1630588183937,-0.214171,-0.10675,-0.934276
1630588183947,-0.217831,-0.110288,-0.938485
1630588183957,-0.22265,-0.114924,-0.9481229999999999
1630588183966,-0.226554,-0.120109,-0.955809
1630588183976,-0.231617,-0.125355,-0.959957
1630588183985,-0.236863,-0.12834399999999999,-0.964532
1630588183995,-0.242536,-0.12956399999999998,-0.9666669999999999
1630588184005,-0.248575,-0.129198,-0.9703269999999999
1630588184014,-0.252784,-0.1281,-0.975329
1630588184024,-0.25638299999999997,-0.12986899999999998,-0.9785619999999999
1630588184033,-0.262239,-0.132309,-0.9776469999999999
1630588184043,-0.266692,-0.137372,-0.975573
1630588184053,-0.270413,-0.142435,-0.970754
1630588184062,-0.269559,-0.145668,-0.966301
1630588184072,-0.266631,-0.146339,-0.964532
1630588184081,-0.263642,-0.147498,-0.964776
1630588184091,-0.26004299999999997,-0.14804699999999998,-0.9627629999999999
1630588184101,-0.25681,-0.14774199999999998,-0.958981
1630588184110,-0.254736,-0.14743699999999998,-0.9572729999999999
1630588184120,-0.252296,-0.147071,-0.9591029999999999
1630588184129,-0.252174,-0.145973,-0.963861
1630588184139,-0.252296,-0.144143,-0.97356
1630588184149,-0.249856,-0.141825,-0.9736819999999999
1630588184158,-0.247477,-0.138775,-0.9638
1630588184168,-0.242292,-0.137738,-0.952454
1630588184177,-0.236253,-0.136701,-0.9384239999999999
1630588184187,-0.231373,-0.134444,-0.932751
1630588184197,-0.226676,-0.134749,-0.93818
1630588184206,-0.22326,-0.134871,-0.94306
1630588184216,-0.218807,-0.13541999999999998,-0.946415
1630588184225,-0.214476,-0.133224,-0.944951
1630588184235,-0.210938,-0.129625,-0.9423279999999999
1630588184245,-0.20660699999999999,-0.12864899999999999,-0.941535
1630588184254,-0.203313,-0.126636,-0.9441579999999999
1630588184264,-0.198616,-0.126575,-0.9465979999999999
1630588184273,-0.196786,-0.127185,-0.94794
1630588184283,-0.194529,-0.12925899999999999,-0.950746
1630588184293,-0.19367499999999999,-0.13115,-0.953369
1630588184302,-0.192638,-0.135664,-0.9545279999999999
1630588184312,-0.189405,-0.14188599999999998,-0.9554429999999999
1630588184321,-0.18781899999999999,-0.150121,-0.9551379999999999
1630588184331,-0.184281,-0.159088,-0.954711
1630588184341,-0.180377,-0.168055,-0.956907
1630588184350,-0.178486,-0.175375,-0.965081
1630588184360,-0.177571,-0.178608,-0.974353
1630588184369,-0.176473,-0.17793699999999998,-0.980636
1630588184379,-0.176351,-0.174521,-0.984296
1630588184389,-0.176839,-0.169031,-0.988078
1630588184398,-0.177449,-0.162809,-0.99003
1630588184408,-0.17732699999999998,-0.160186,-0.992287
1630588184417,-0.17568,-0.159088,-0.993568
1630588184427,-0.174094,-0.161467,-0.990884
1630588184437,-0.168055,-0.168482,-0.982588
1630588184446,-0.164578,-0.176656,-0.980758
1630588184456,-0.160247,-0.184952,-0.981795
1630588184465,-0.158661,-0.189405,-0.985028
1630588184475,-0.158966,-0.189222,-0.987468
1630588184485,-0.15884399999999999,-0.188246,-0.988322
1630588184494,-0.162016,-0.18409799999999998,-0.986004
1630588184504,-0.166713,-0.177876,-0.982161
1630588184513,-0.170434,-0.171898,-0.9752069999999999
1630588184523,-0.173484,-0.168848,-0.96868
1630588184533,-0.175619,-0.165127,-0.965264
1630588184542,-0.17915699999999998,-0.162382,-0.963068
1630588184552,-0.182939,-0.15823399999999999,-0.9615429999999999
1630588184561,-0.185989,-0.154574,-0.962031
1630588184571,-0.191296,-0.151158,-0.960079
1630588184581,-0.194651,-0.14701,-0.959347
1630588184590,-0.199165,-0.14396,-0.959835
1630588184600,-0.20258099999999998,-0.140422,-0.962824
1630588184609,-0.20691199999999998,-0.139324,-0.96685
1630588184619,-0.209291,-0.138226,-0.971425
1630588184629,-0.211243,-0.139995,-0.974658
1630588184638,-0.210999,-0.141032,-0.975695
1630588184648,-0.210938,-0.14127599999999998,-0.973865
1630588184657,-0.211304,-0.14091,-0.9703269999999999
1630588184667,-0.211121,-0.138958,-0.969168
1630588184677,-0.211731,-0.138043,-0.970083
1630588184686,-0.21167,-0.13908,-0.971608
1630588184696,-0.21045,-0.14036099999999999,-0.971486
1630588184705,-0.21045,-0.141398,-0.9718519999999999
1630588184715,-0.210694,-0.142313,-0.9739869999999999
1630588184725,-0.21185299999999999,-0.144143,-0.9758169999999999
1630588184734,-0.21106,-0.146766,-0.9745969999999999
1630588184744,-0.210206,-0.149145,-0.97051
1630588184753,-0.210267,-0.15268299999999999,-0.965203
1630588184763,-0.209474,-0.15555,-0.96075
1630588184773,-0.208925,-0.156404,-0.957944
1630588184782,-0.207034,-0.157502,-0.955382
1630588184792,-0.205936,-0.156648,-0.952942
1630588184801,-0.204777,-0.155489,-0.950502
1630588184811,-0.204411,-0.15555,-0.948062
1630588184821,-0.205082,-0.154574,-0.9459879999999999
1630588184830,-0.204899,-0.15237799999999999,-0.943426
1630588184840,-0.205326,-0.15006,-0.937875
1630588184849,-0.208071,-0.144265,-0.934032
1630588184859,-0.21398799999999998,-0.13572499999999998,-0.928176
1630588184869,-0.216794,-0.127124,-0.928542
1630588184878,-0.21770899999999999,-0.125538,-0.937692
1630588184888,-0.212646,-0.138958,-0.951234
1630588184897,-0.20599699999999999,-0.161711,-0.969351
1630588184907,-0.19794499999999998,-0.184952,-0.9749019999999999
1630588184917,-0.190808,-0.203435,-0.971486
1630588184926,-0.185074,-0.217404,-0.963861
1630588184936,-0.18409799999999998,-0.22539499999999998,-0.958981
1630588184945,-0.185257,-0.226981,-0.955626
1630588184955,-0.184586,-0.226432,-0.952637
1630588184965,-0.18544,-0.22228399999999998,-0.955016
1630588184974,-0.186355,-0.218441,-0.960445
1630588184984,-0.188002,-0.214842,-0.961665
1630588184993,-0.187636,-0.211487,-0.961299
1630588185003,-0.186721,-0.20923,-0.961665
1630588185013,-0.182756,-0.210816,-0.962397
1630588185022,-0.180621,-0.21106,-0.963068
1630588185032,-0.17641199999999999,-0.214781,-0.960079
1630588185041,-0.172752,-0.219783,-0.952027
1630588185051,-0.168421,-0.224358,-0.948306
1630588185061,-0.166896,-0.226188,-0.952027
1630588185070,-0.164334,-0.23058,-0.953735
1630588185080,-0.164456,-0.232654,-0.955199
1630588185089,-0.16348,-0.234667,-0.953857
1630588185099,-0.162748,-0.23680199999999998,-0.953125
1630588185109,-0.162931,-0.239608,-0.953186
1630588185118,-0.161711,-0.242231,-0.953369
1630588185128,-0.159637,-0.24522,-0.9539179999999999
1630588185137,-0.157624,-0.247416,-0.954711
1630588185147,-0.156709,-0.24973399999999998,-0.954162
1630588185157,-0.156221,-0.249795,-0.953186
1630588185166,-0.158966,-0.247111,-0.952759
1630588185176,-0.156709,-0.24570799999999998,-0.950502
1630588185185,-0.159942,-0.24143799999999999,-0.948306
1630588185195,-0.15975899999999998,-0.238266,-0.950197
1630588185205,-0.16226,-0.235704,-0.950746
1630588185214,-0.164639,-0.234423,-0.9516
1630588185224,-0.166408,-0.234911,-0.9545279999999999
1630588185233,-0.167018,-0.233569,-0.9563579999999999
1630588185243,-0.166957,-0.232105,-0.9584929999999999
1630588185253,-0.166774,-0.229909,-0.9569679999999999
1630588185262,-0.167506,-0.228018,-0.955382
1630588185272,-0.167994,-0.225456,-0.9514779999999999
1630588185281,-0.168421,-0.223199,-0.94977
1630588185291,-0.16897,-0.220942,-0.950014
1630588185301,-0.169092,-0.21984399999999998,-0.951905
1630588185310,-0.170129,-0.218075,-0.9536129999999999
1630588185320,-0.171044,-0.218441,-0.9548329999999999
1630588185329,-0.170373,-0.216733,-0.9560529999999999
1630588185339,-0.169763,-0.216184,-0.955809
1630588185349,-0.16994599999999999,-0.216367,-0.954284
1630588185358,-0.169885,-0.214354,-0.9520879999999999
1630588185368,-0.1708,-0.21459799999999998,-0.951417
1630588185377,-0.17055599999999999,-0.21472,-0.948916
1630588185387,-0.17330099999999998,-0.213866,-0.948062
1630588185397,-0.173728,-0.214659,-0.951905
1630588185406,-0.172264,-0.216306,-0.951539
1630588185416,-0.170922,-0.217648,-0.950624
1630588185425,-0.170617,-0.220332,-0.950197
1630588185435,-0.168604,-0.223443,-0.951661
1630588185445,-0.170495,-0.222955,-0.9520879999999999
1630588185454,-0.169519,-0.223931,-0.9517829999999999
1630588185464,-0.17116599999999998,-0.22197899999999998,-0.9490379999999999
1630588185473,-0.17116599999999998,-0.221613,-0.948794
1630588185483,-0.17141,-0.220088,-0.9530029999999999
1630588185493,-0.172935,-0.219966,-0.9569679999999999
1630588185502,-0.172508,-0.220881,-0.959286
1630588185512,-0.173972,-0.223809,-0.960079
1630588185521,-0.17269099999999998,-0.227591,-0.95831
1630588185531,-0.172142,-0.22942099999999999,-0.9572729999999999
1630588185541,-0.171288,-0.230214,-0.955931
1630588185550,-0.171105,-0.231312,-0.956114
1630588185560,-0.169885,-0.23338599999999998,-0.956724
1630588185569,-0.168787,-0.234057,-0.954589
1630588185579,-0.169458,-0.23247099999999998,-0.953735
1630588185589,-0.168848,-0.230702,-0.953674
1630588185598,-0.169519,-0.22997,-0.951295
1630588185608,-0.171654,-0.22972599999999999,-0.95221
1630588185617,-0.172142,-0.228933,-0.951234
1630588185627,-0.173667,-0.227774,-0.950929
1630588185637,-0.175192,-0.227164,-0.9516
1630588185646,-0.175436,-0.225334,-0.9514779999999999
1630588185656,-0.175375,-0.225212,-0.951234
1630588185665,-0.17568,-0.223992,-0.951112
1630588185675,-0.17641199999999999,-0.224419,-0.951722
1630588185685,-0.176473,-0.224541,-0.950746
1630588185694,-0.17793699999999998,-0.223748,-0.9523929999999999
1630588185704,-0.178181,-0.225029,-0.952454
1630588185713,-0.177815,-0.22539499999999998,-0.9514779999999999
1630588185723,-0.178669,-0.22691999999999998,-0.946842
1630588185733,-0.178791,-0.226249,-0.9450729999999999
1630588185742,-0.180072,-0.22447999999999999,-0.946171
1630588185752,-0.180133,-0.224236,-0.948001
1630588185761,-0.17946199999999998,-0.224541,-0.9478179999999999
1630588185771,-0.179645,-0.223992,-0.9481229999999999
1630588185781,-0.180133,-0.225212,-0.947879
1630588185790,-0.180133,-0.225517,-0.94977
1630588185800,-0.180499,-0.226981,-0.95099
1630588185809,-0.178791,-0.229299,-0.9505629999999999
1630588185819,-0.179096,-0.229482,-0.9502579999999999
1630588185829,-0.179523,-0.230702,-0.9499529999999999
1630588185838,-0.179218,-0.231617,-0.9490379999999999
1630588185848,-0.177449,-0.232837,-0.9496479999999999
1630588185857,-0.176595,-0.234057,-0.950136
1630588185867,-0.175375,-0.236375,-0.9511729999999999
1630588185877,-0.175558,-0.237778,-0.9516
1630588185886,-0.175131,-0.238388,-0.951051
1630588185896,-0.173972,-0.239425,-0.951417
1630588185905,-0.17330099999999998,-0.240035,-0.952759
1630588185915,-0.172935,-0.238144,-0.952027
1630588185925,-0.170678,-0.23893699999999998,-0.9526979999999999
1630588185934,-0.17177599999999998,-0.238388,-0.952332
1630588185944,-0.17147099999999998,-0.239364,-0.951844
1630588185953,-0.17019,-0.240889,-0.952759
1630588185963,-0.169153,-0.240828,-0.952332
1630588185973,-0.167994,-0.242475,-0.951356
1630588185982,-0.16744499999999998,-0.242292,-0.9516
1630588185992,-0.166408,-0.242536,-0.9502579999999999
1630588186001,-0.167018,-0.242475,-0.9493429999999999
1630588186011,-0.166957,-0.242109,-0.948794
1630588186021,-0.16744499999999998,-0.24095,-0.948184
1630588186030,-0.169031,-0.24015699999999998,-0.949099
1630588186040,-0.168299,-0.240035,-0.947269
1630588186049,-0.169153,-0.23863199999999998,-0.9484279999999999
1630588186059,-0.169397,-0.239181,-0.948794
1630588186069,-0.169824,-0.240218,-0.948794
1630588186078,-0.171288,-0.239791,-0.949587
1630588186088,-0.171288,-0.240096,-0.949526
1630588186097,-0.172569,-0.24046199999999998,-0.949221
1630588186107,-0.172508,-0.24217,-0.949709
1630588186117,-0.17269099999999998,-0.242719,-0.950136
1630588186126,-0.17238599999999998,-0.24357299999999998,-0.950014
1630588186136,-0.172752,-0.243695,-0.950136
1630588186145,-0.172752,-0.242414,-0.95038
1630588186155,-0.172813,-0.243024,-0.947452
1630588186165,-0.174338,-0.242902,-0.945805
1630588186174,-0.174887,-0.241865,-0.94794
1630588186184,-0.174948,-0.24265799999999998,-0.949282
1630588186193,-0.175985,-0.240706,-0.949465
1630588186203,-0.176168,-0.238754,-0.946964
1630588186213,-0.17751,-0.23771699999999998,-0.946781
1630588186222,-0.17702199999999998,-0.234972,-0.94916
1630588186232,-0.177266,-0.234057,-0.9533079999999999
1630588186241,-0.176534,-0.235033,-0.95587
1630588186251,-0.176595,-0.234667,-0.95465
1630588186261,-0.175741,-0.235948,-0.952271
1630588186270,-0.174582,-0.23741199999999998,-0.952637
1630588186280,-0.173423,-0.23893699999999998,-0.9514779999999999
1630588186289,-0.17360599999999998,-0.240401,-0.9526979999999999
1630588186299,-0.171044,-0.24156,-0.952515
1630588186309,-0.170068,-0.241682,-0.951295
1630588186318,-0.167933,-0.241255,-0.949587
1630588186328,-0.16744499999999998,-0.239303,-0.9490379999999999
1630588186337,-0.167811,-0.23729,-0.948306
1630588186347,-0.166957,-0.23668,-0.946232
1630588186357,-0.16775,-0.23485,-0.9455
1630588186366,-0.168055,-0.235399,-0.945439
1630588186376,-0.168238,-0.235216,-0.946842
1630588186385,-0.168299,-0.236558,-0.94794
1630588186395,-0.167323,-0.236985,-0.9505629999999999
1630588186405,-0.167323,-0.23729,-0.951295
1630588186414,-0.167933,-0.238693,-0.952576
1630588186424,-0.168177,-0.23912,-0.951234
1630588186433,-0.168604,-0.238754,-0.950929
1630588186443,-0.168482,-0.23832699999999998,-0.951844
1630588186453,-0.169092,-0.237473,-0.952454
1630588186462,-0.169031,-0.23771699999999998,-0.949892
1630588186472,-0.17055599999999999,-0.2379,-0.9496479999999999
1630588186481,-0.171715,-0.23546,-0.9530029999999999
1630588186491,-0.172264,-0.2318,-0.95465
1630588186501,-0.173789,-0.230092,-0.95343
1630588186510,-0.173423,-0.228689,-0.952881
1630588186520,-0.17360599999999998,-0.22844499999999998,-0.9533079999999999
1630588186529,-0.173423,-0.227896,-0.952576
1630588186539,-0.17238599999999998,-0.227774,-0.9514779999999999
1630588186549,-0.171349,-0.22942099999999999,-0.950929
1630588186558,-0.172325,-0.23058,-0.950197
1630588186568,-0.172264,-0.232044,-0.94916
1630588186577,-0.172264,-0.23216599999999998,-0.951051
1630588186587,-0.170983,-0.232898,-0.951051
1630588186597,-0.172325,-0.232898,-0.952515
1630588186606,-0.172569,-0.233264,-0.9536129999999999
1630588186616,-0.17202,-0.233325,-0.954345
1630588186625,-0.171837,-0.23399599999999998,-0.954711
1630588186635,-0.17208099999999998,-0.23399599999999998,-0.9554429999999999
1630588186645,-0.17202,-0.234423,-0.95465
1630588186654,-0.172874,-0.234484,-0.953796
1630588186664,-0.173362,-0.233752,-0.953186
1630588186673,-0.173362,-0.233325,-0.9533079999999999
1630588186683,-0.17263,-0.23119,-0.952271
1630588186693,-0.173179,-0.23033599999999999,-0.9526979999999999
1630588186702,-0.173667,-0.22942099999999999,-0.9533079999999999
1630588186712,-0.17324,-0.228811,-0.952759
1630588186721,-0.172874,-0.227164,-0.9520879999999999
1630588186731,-0.17299599999999998,-0.226066,-0.95221
1630588186741,-0.17238599999999998,-0.22600499999999998,-0.951112
1630588186750,-0.172752,-0.224846,-0.950502
1630588186760,-0.17269099999999998,-0.225517,-0.949221
1630588186769,-0.17238599999999998,-0.226371,-0.949099
1630588186779,-0.172325,-0.226798,-0.948489
1630588186789,-0.17269099999999998,-0.226981,-0.948794
1630588186798,-0.172874,-0.22722499999999998,-0.950746
1630588186808,-0.172874,-0.226188,-0.952454
1630588186817,-0.17330099999999998,-0.225578,-0.953247
1630588186827,-0.173728,-0.225883,-0.954162
1630588186837,-0.174643,-0.226432,-0.953674
1630588186846,-0.173667,-0.227286,-0.9526979999999999
1630588186856,-0.174094,-0.23003099999999999,-0.950746
1630588186865,-0.173362,-0.229665,-0.951356
1630588186875,-0.173179,-0.22997,-0.950502
1630588186885,-0.172447,-0.23003099999999999,-0.9517829999999999
1630588186894,-0.171593,-0.23003099999999999,-0.951112
1630588186904,-0.170983,-0.229604,-0.949282
1630588186913,-0.170007,-0.230519,-0.948367
1630588186923,-0.17141,-0.229177,-0.9499529999999999
1630588186933,-0.172569,-0.228994,-0.951356
1630588186942,-0.172508,-0.22875,-0.949526
1630588186952,-0.17238599999999998,-0.228018,-0.949282
1630588186961,-0.17238599999999998,-0.227103,-0.951722
1630588186971,-0.172935,-0.226981,-0.954772
1630588186981,-0.172508,-0.228201,-0.955992
1630588186990,-0.171654,-0.229177,-0.955931
1630588187000,-0.171654,-0.230763,-0.956846
1630588187009,-0.172142,-0.232349,-0.956419
1630588187019,-0.17055599999999999,-0.23302,-0.95526
1630588187029,-0.171044,-0.234179,-0.9554429999999999
1630588187038,-0.170983,-0.23430099999999998,-0.95404
1630588187048,-0.169153,-0.233264,-0.953735
1630588187057,-0.167872,-0.231617,-0.951539
1630588187067,-0.168238,-0.231739,-0.950624
1630588187077,-0.167079,-0.23094599999999998,-0.949465
1630588187086,-0.167506,-0.23094599999999998,-0.9505629999999999
1630588187096,-0.167506,-0.230275,-0.950807
1630588187105,-0.167689,-0.23119,-0.951356
1630588187115,-0.167018,-0.230702,-0.951905
1630588187125,-0.16683499999999998,-0.231068,-0.9520879999999999
1630588187134,-0.167018,-0.231007,-0.952027
1630588187144,-0.167506,-0.230214,-0.951905
1630588187153,-0.167933,-0.22936,-0.9526979999999999
1630588187163,-0.167689,-0.22813999999999998,-0.952759
1630588187173,-0.169519,-0.226188,-0.952759
1630588187182,-0.16994599999999999,-0.224114,-0.9548329999999999
1630588187192,-0.168604,-0.223504,-0.955382
1630588187201,-0.16775,-0.223138,-0.956419
1630588187211,-0.167872,-0.223626,-0.950441
1630588187221,-0.167506,-0.225029,-0.946659
1630588187230,-0.168421,-0.224846,-0.9472079999999999
1630588187240,-0.168482,-0.226981,-0.949404
1630588187249,-0.166347,-0.228201,-0.949404
1630588187259,-0.16591999999999998,-0.228994,-0.949465
1630588187269,-0.164456,-0.23003099999999999,-0.950075
1630588187278,-0.163846,-0.23058,-0.9508679999999999
1630588187288,-0.164456,-0.231617,-0.9517829999999999
1630588187297,-0.164456,-0.233264,-0.952515
1630588187307,-0.163602,-0.233142,-0.953369
1630588187317,-0.163114,-0.23460599999999998,-0.953979
1630588187326,-0.16287,-0.235277,-0.954589
1630588187336,-0.162687,-0.236985,-0.953796
1630588187345,-0.162077,-0.237168,-0.955382
1630588187355,-0.161955,-0.237656,-0.954589
1630588187365,-0.16226,-0.236863,-0.9545279999999999
1630588187374,-0.16287,-0.236009,-0.954711
1630588187384,-0.162382,-0.234911,-0.954101
1630588187393,-0.16348,-0.235277,-0.95465
1630588187403,-0.163724,-0.234911,-0.954406
1630588187413,-0.164029,-0.235338,-0.9545279999999999
1630588187422,-0.163053,-0.234728,-0.954955
1630588187432,-0.162504,-0.234545,-0.95465
1630588187441,-0.162443,-0.23546,-0.95465
1630588187451,-0.162138,-0.234057,-0.95343
1630588187461,-0.162626,-0.234118,-0.9526979999999999
1630588187470,-0.162077,-0.234484,-0.952942
1630588187480,-0.162138,-0.234728,-0.953674
1630588187489,-0.161101,-0.235704,-0.952454
1630588187499,-0.161162,-0.236253,-0.953369
1630588187509,-0.16128399999999998,-0.236741,-0.952027
1630588187518,-0.16165,-0.23771699999999998,-0.9516
1630588187528,-0.160857,-0.23729,-0.950807
1630588187537,-0.160735,-0.238144,-0.951905
1630588187547,-0.160796,-0.238815,-0.951661
1630588187557,-0.16067399999999998,-0.239059,-0.950807
1630588187566,-0.160857,-0.238815,-0.949892
1630588187576,-0.160125,-0.239669,-0.9493429999999999
1630588187585,-0.161101,-0.240218,-0.950075
1630588187595,-0.159637,-0.24015699999999998,-0.949892
1630588187605,-0.159698,-0.240401,-0.950014
1630588187614,-0.16036899999999998,-0.240828,-0.9505629999999999
1630588187624,-0.160308,-0.241255,-0.951051
1630588187633,-0.159942,-0.241316,-0.949892
1630588187643,-0.159393,-0.241804,-0.950502
1630588187653,-0.159942,-0.241804,-0.950929
1630588187662,-0.160003,-0.241804,-0.951051
1630588187672,-0.15975899999999998,-0.24156,-0.9505629999999999
1630588187681,-0.159393,-0.242231,-0.9502579999999999
1630588187691,-0.157807,-0.242536,-0.949526
1630588187701,-0.158722,-0.243939,-0.9502579999999999
1630588187710,-0.160247,-0.244,-0.95099
1630588187720,-0.159637,-0.24418299999999998,-0.949404
1630588187729,-0.16104,-0.243146,-0.948977
1630588187739,-0.160796,-0.242475,-0.9505629999999999
1630588187749,-0.159942,-0.241865,-0.95343
1630588187758,-0.161162,-0.241682,-0.954284
1630588187768,-0.16043,-0.24235299999999999,-0.953735
1630588187777,-0.159515,-0.243024,-0.954955
1630588187787,-0.15884399999999999,-0.244061,-0.954772
1630588187797,-0.159027,-0.244549,-0.954772
1630588187806,-0.159393,-0.244915,-0.953796
1630588187816,-0.15853899999999999,-0.245342,-0.9533079999999999
1630588187825,-0.157502,-0.246196,-0.952942
1630588187835,-0.155184,-0.246257,-0.9523929999999999
1630588187845,-0.155062,-0.246257,-0.952332
1630588187854,-0.15451299999999998,-0.245525,-0.951539
1630588187864,-0.153964,-0.24461,-0.95099
1630588187873,-0.153781,-0.244549,-0.950136
1630588187883,-0.15420799999999998,-0.244061,-0.950136
1630588187893,-0.154147,-0.243756,-0.950197
1630588187902,-0.154147,-0.242719,-0.950197
1630588187912,-0.154452,-0.243085,-0.9505629999999999
1630588187921,-0.153964,-0.242841,-0.949892
1630588187931,-0.15481799999999998,-0.242536,-0.9499529999999999
1630588187941,-0.15494,-0.24095,-0.951112
1630588187950,-0.155367,-0.241255,-0.951356
1630588187960,-0.155672,-0.23973,-0.9520879999999999
1630588187969,-0.15677,-0.23893699999999998,-0.953064
1630588187979,-0.156282,-0.239303,-0.952576
1630588187989,-0.156465,-0.239425,-0.953247
1630588187998,-0.156648,-0.238266,-0.9514779999999999
1630588188008,-0.157136,-0.23546,-0.951722
1630588188017,-0.158722,-0.233142,-0.952881
1630588188027,-0.15799,-0.231312,-0.951905
1630588188037,-0.158905,-0.231068,-0.951844
1630588188046,-0.158783,-0.231434,-0.9508679999999999
1630588188056,-0.158966,-0.230275,-0.951722
1630588188065,-0.15914899999999998,-0.229177,-0.953186
1630588188075,-0.159698,-0.22844499999999998,-0.953979
1630588188085,-0.159332,-0.228872,-0.954467
1630588188094,-0.159637,-0.229482,-0.95465
1630588188104,-0.159515,-0.230092,-0.954467
1630588188113,-0.159088,-0.231007,-0.953857
1630588188123,-0.158722,-0.231678,-0.95404
1630588188133,-0.158051,-0.232593,-0.95404
1630588188142,-0.157441,-0.233813,-0.954406
1630588188152,-0.157563,-0.233569,-0.954406
1630588188161,-0.158173,-0.234179,-0.9557479999999999
1630588188171,-0.15799,-0.234667,-0.95648
1630588188181,-0.157624,-0.234545,-0.955016
1630588188190,-0.156099,-0.235765,-0.954406
1630588188200,-0.156892,-0.23485,-0.9542229999999999
1630588188209,-0.156099,-0.234484,-0.953369
1630588188219,-0.155855,-0.235033,-0.953186
1630588188229,-0.15451299999999998,-0.235033,-0.953064
1630588188238,-0.154452,-0.234972,-0.9523929999999999
1630588188248,-0.15420799999999998,-0.235277,-0.952454
1630588188257,-0.15390299999999998,-0.235277,-0.952332
1630588188267,-0.15481799999999998,-0.234362,-0.953186
1630588188277,-0.156099,-0.233508,-0.953064
1630588188286,-0.156526,-0.232288,-0.953186
1630588188296,-0.158295,-0.231922,-0.953552
1630588188305,-0.158478,-0.23033599999999999,-0.953735
1630588188315,-0.160003,-0.22997,-0.953796
1630588188325,-0.15975899999999998,-0.228689,-0.953735
1630588188334,-0.16128399999999998,-0.227774,-0.954101
1630588188344,-0.160918,-0.227408,-0.95465
1630588188353,-0.162016,-0.228689,-0.95465
1630588188363,-0.16287,-0.228323,-0.954162
1630588188373,-0.16226,-0.228384,-0.9536129999999999
1630588188382,-0.16348,-0.229177,-0.95404
1630588188392,-0.163663,-0.229543,-0.952454
1630588188401,-0.163663,-0.229177,-0.953369
1630588188411,-0.163419,-0.228872,-0.951966
1630588188421,-0.165432,-0.228994,-0.951539
1630588188430,-0.164151,-0.230458,-0.952149
1630588188440,-0.165127,-0.23058,-0.952759
1630588188449,-0.16469999999999999,-0.232288,-0.95343
1630588188459,-0.16469999999999999,-0.233264,-0.9530029999999999
1630588188469,-0.165432,-0.23424,-0.95221
1630588188478,-0.165066,-0.235033,-0.9536129999999999
1630588188488,-0.164822,-0.235643,-0.952759
1630588188497,-0.16500499999999999,-0.235521,-0.953064
1630588188507,-0.165798,-0.235521,-0.952759
1630588188517,-0.165859,-0.235338,-0.952271
1630588188526,-0.164944,-0.235826,-0.9516
1630588188536,-0.16439499999999999,-0.23619199999999999,-0.950807
1630588188545,-0.164883,-0.237534,-0.9505629999999999
1630588188555,-0.16500499999999999,-0.238144,-0.953186
1630588188565,-0.16500499999999999,-0.238998,-0.952637
1630588188574,-0.165127,-0.239425,-0.94916
1630588188584,-0.16652999999999998,-0.238998,-0.949526
1630588188593,-0.166103,-0.238388,-0.951966
1630588188603,-0.165371,-0.238876,-0.9548329999999999
1630588188613,-0.164456,-0.23924199999999998,-0.95587
1630588188622,-0.16348,-0.23973,-0.9554429999999999
1630588188632,-0.162138,-0.239486,-0.956297
1630588188641,-0.161406,-0.239669,-0.957029
1630588188651,-0.161711,-0.240584,-0.9551379999999999
1630588188661,-0.160308,-0.240584,-0.953369
1630588188670,-0.15982,-0.24046199999999998,-0.952942
1630588188680,-0.15884399999999999,-0.240401,-0.9520879999999999
1630588188689,-0.157563,-0.239486,-0.9514779999999999
1630588188699,-0.155367,-0.23912,-0.951051
1630588188709,-0.154696,-0.23924199999999998,-0.95038
1630588188718,-0.155245,-0.238876,-0.949526
1630588188728,-0.15616,-0.238876,-0.94977
1630588188737,-0.157502,-0.23912,-0.948916
1630588188747,-0.157258,-0.239486,-0.9502579999999999
1630588188757,-0.15792899999999999,-0.240218,-0.9520879999999999
1630588188766,-0.157441,-0.239486,-0.953491
1630588188776,-0.158356,-0.239181,-0.95404
1630588188785,-0.159393,-0.237595,-0.952942
1630588188795,-0.159393,-0.235704,-0.952759
1630588188805,-0.15982,-0.234972,-0.9533079999999999
1630588188814,-0.160247,-0.23485,-0.954772
1630588188824,-0.160003,-0.233752,-0.95404
1630588188833,-0.160491,-0.23399599999999998,-0.953796
1630588188843,-0.160186,-0.2318,-0.9520879999999999
1630588188853,-0.16097899999999998,-0.228201,-0.951966
1630588188862,-0.160857,-0.227042,-0.954284
1630588188872,-0.161955,-0.22508999999999998,-0.952759
1630588188881,-0.161345,-0.225151,-0.9517829999999999
1630588188891,-0.16036899999999998,-0.224602,-0.950929
1630588188901,-0.16097899999999998,-0.224297,-0.9516
1630588188910,-0.161101,-0.223931,-0.953674
1630588188920,-0.16036899999999998,-0.224297,-0.95404
1630588188929,-0.160796,-0.224602,-0.9539179999999999
1630588188939,-0.160491,-0.223687,-0.953979
1630588188949,-0.160735,-0.225578,-0.9542229999999999
1630588188958,-0.159088,-0.22691999999999998,-0.9545279999999999
1630588188968,-0.159576,-0.22630999999999998,-0.954467
1630588188977,-0.157563,-0.225944,-0.95343
1630588188987,-0.158051,-0.22569999999999998,-0.954162
1630588188997,-0.158783,-0.225578,-0.955382
1630588189006,-0.158112,-0.226371,-0.955809
1630588189016,-0.158722,-0.22661499999999998,-0.955809
1630588189025,-0.159271,-0.22813999999999998,-0.954711
1630588189035,-0.158661,-0.227774,-0.954345
1630588189045,-0.159942,-0.229482,-0.954589
1630588189054,-0.159088,-0.23003099999999999,-0.955321
1630588189064,-0.159942,-0.229116,-0.954955
1630588189073,-0.160613,-0.229482,-0.9545279999999999
1630588189083,-0.160613,-0.230092,-0.955504
1630588189093,-0.160918,-0.229787,-0.955382
1630588189102,-0.161223,-0.229909,-0.954345
1630588189112,-0.16165,-0.230763,-0.955382
1630588189121,-0.162321,-0.231678,-0.955931
1630588189131,-0.161894,-0.23033599999999999,-0.956175
1630588189141,-0.161894,-0.230275,-0.955504
1630588189150,-0.16226,-0.230458,-0.955199
1630588189160,-0.162199,-0.23094599999999998,-0.95465
1630588189169,-0.161833,-0.23064099999999998,-0.9545279999999999
1630588189179,-0.162016,-0.231434,-0.95404
1630588189189,-0.16165,-0.231434,-0.95343
1630588189198,-0.161101,-0.23216599999999998,-0.9539179999999999
1630588189208,-0.161772,-0.23247099999999998,-0.953186
1630588189217,-0.161711,-0.23399599999999998,-0.952637
1630588189227,-0.161528,-0.23399599999999998,-0.953247
1630588189237,-0.161101,-0.233874,-0.952576
1630588189246,-0.161345,-0.23460599999999998,-0.95221
1630588189256,-0.161711,-0.234118,-0.951661
1630588189265,-0.16128399999999998,-0.234484,-0.951112
1630588189275,-0.161589,-0.233874,-0.9516
1630588189285,-0.161894,-0.235094,-0.9502579999999999
1630588189294,-0.161101,-0.235094,-0.949831
1630588189304,-0.161467,-0.236253,-0.9511729999999999
1630588189313,-0.160735,-0.23607,-0.952027
1630588189323,-0.161345,-0.235826,-0.951966
1630588189333,-0.160613,-0.235277,-0.952332
1630588189342,-0.161406,-0.235338,-0.951661
1630588189352,-0.161711,-0.234545,-0.951661
1630588189361,-0.161406,-0.234667,-0.951112
1630588189371,-0.16104,-0.236558,-0.951539
1630588189381,-0.161345,-0.23668,-0.9523929999999999
1630588189390,-0.16104,-0.236314,-0.952576
1630588189400,-0.16006399999999998,-0.23741199999999998,-0.952942
1630588189409,-0.160186,-0.239181,-0.95099
1630588189419,-0.160125,-0.239791,-0.949587
1630588189429,-0.15982,-0.23985199999999998,-0.9517829999999999
1630588189438,-0.160857,-0.240401,-0.952454
1630588189448,-0.16165,-0.239791,-0.952271
1630588189457,-0.162504,-0.238815,-0.9502579999999999
1630588189467,-0.161406,-0.237168,-0.950746
1630588189477,-0.161772,-0.236009,-0.952942
1630588189486,-0.161772,-0.235826,-0.955626
1630588189496,-0.160857,-0.236558,-0.95709
1630588189505,-0.15982,-0.238266,-0.956602
1630588189515,-0.159393,-0.24015699999999998,-0.9566629999999999
1630588189525,-0.15823399999999999,-0.241804,-0.956114
1630588189534,-0.157624,-0.24265799999999998,-0.954772
1630588189544,-0.157014,-0.242597,-0.953735
1630588189553,-0.155611,-0.241194,-0.9530029999999999
1630588189563,-0.154086,-0.240401,-0.953186
1630588189573,-0.153781,-0.239486,-0.952149
1630588189582,-0.15311,-0.238449,-0.9516
1630588189592,-0.151951,-0.237656,-0.950075
1630588189601,-0.152256,-0.2379,-0.949282
1630588189611,-0.152927,-0.238876,-0.9487329999999999
1630588189621,-0.15237799999999999,-0.239303,-0.948855
1630588189630,-0.151768,-0.24046199999999998,-0.949587
1630588189640,-0.152317,-0.241865,-0.950502
1630588189649,-0.15329299999999998,-0.241682,-0.951295
1630588189659,-0.153354,-0.24174299999999999,-0.9516
1630588189669,-0.153537,-0.242536,-0.9523929999999999
1630588189678,-0.155062,-0.241682,-0.9523929999999999
1630588189688,-0.155855,-0.241194,-0.9542229999999999
1630588189697,-0.155306,-0.241804,-0.955016
1630588189707,-0.155184,-0.241865,-0.953247
1630588189717,-0.155428,-0.24015699999999998,-0.95038
1630588189726,-0.156892,-0.237351,-0.951966
1630588189736,-0.156831,-0.235521,-0.953491
1630588189745,-0.15677,-0.234911,-0.953125
1630588189755,-0.156526,-0.235094,-0.9511729999999999
1630588189765,-0.157014,-0.233752,-0.952881
1630588189774,-0.156587,-0.234057,-0.954284
1630588189784,-0.155245,-0.23302,-0.95404
1630588189793,-0.156282,-0.232349,-0.952881
1630588189803,-0.15677,-0.23363,-0.952454
1630588189813,-0.155672,-0.234789,-0.953064
1630588189822,-0.15494,-0.235399,-0.9533079999999999
1630588189832,-0.15481799999999998,-0.237351,-0.95343
1630588189841,-0.153842,-0.239669,-0.954101
1630588189851,-0.153049,-0.240035,-0.954406
1630588189861,-0.152805,-0.240584,-0.953796
1630588189870,-0.152744,-0.240523,-0.954284
1630588189880,-0.153232,-0.239669,-0.954345
1630588189889,-0.15298799999999999,-0.23954699999999998,-0.9539179999999999
1630588189899,-0.154025,-0.23924199999999998,-0.954406
1630588189909,-0.154147,-0.240035,-0.953186
1630588189918,-0.153964,-0.240096,-0.953857
1630588189928,-0.154452,-0.241804,-0.953186
1630588189937,-0.153476,-0.241621,-0.9526979999999999
1630588189947,-0.15372,-0.241804,-0.9526979999999999
1630588189957,-0.15372,-0.241804,-0.953125
1630588189966,-0.153415,-0.241377,-0.952881
1630588189976,-0.154635,-0.23985199999999998,-0.952576
1630588189985,-0.154391,-0.23973,-0.952759
1630588189995,-0.15420799999999998,-0.238388,-0.953247
1630588190005,-0.155977,-0.23863199999999998,-0.9536129999999999
1630588190014,-0.155855,-0.238266,-0.9536129999999999
1630588190024,-0.15512299999999998,-0.23741199999999998,-0.9536129999999999
1630588190033,-0.155245,-0.237168,-0.951905
1630588190043,-0.156404,-0.237046,-0.9516
1630588190053,-0.155733,-0.237595,-0.95099
1630588190062,-0.156282,-0.238266,-0.951051
1630588190072,-0.155733,-0.237595,-0.951356
1630588190081,-0.155611,-0.237595,-0.951905
1630588190091,-0.155977,-0.237168,-0.951661
1630588190101,-0.155672,-0.237229,-0.951844
1630588190110,-0.155489,-0.237046,-0.952515
1630588190120,-0.155489,-0.23668,-0.952759
1630588190129,-0.155428,-0.23741199999999998,-0.952332
1630588190139,-0.156221,-0.237229,-0.952027
1630588190149,-0.156648,-0.236558,-0.9520879999999999
1630588190158,-0.156831,-0.23668,-0.952149
1630588190168,-0.15616,-0.236253,-0.951844
1630588190177,-0.155794,-0.236924,-0.9516
1630588190187,-0.156038,-0.236436,-0.9526979999999999
1630588190197,-0.155855,-0.235521,-0.9533079999999999
1630588190206,-0.155672,-0.236253,-0.9526979999999999
1630588190216,-0.157014,-0.235948,-0.953064
1630588190225,-0.157197,-0.23588699999999999,-0.95282
1630588190235,-0.156648,-0.23546,-0.9520879999999999
1630588190245,-0.156892,-0.236375,-0.952576
1630588190254,-0.155977,-0.236009,-0.952942
1630588190264,-0.156282,-0.237534,-0.953796
1630588190273,-0.155855,-0.23802199999999998,-0.9539179999999999
1630588190283,-0.155245,-0.238693,-0.952637
1630588190293,-0.15481799999999998,-0.23924199999999998,-0.951234
1630588190302,-0.155794,-0.23973,-0.952576
1630588190312,-0.156526,-0.239791,-0.954589
1630588190321,-0.157197,-0.239425,-0.9542229999999999
1630588190331,-0.15823399999999999,-0.239364,-0.952027
1630588190341,-0.158356,-0.237656,-0.953125
1630588190350,-0.158966,-0.235216,-0.955077
1630588190360,-0.158478,-0.234362,-0.956785
1630588190369,-0.15792899999999999,-0.234484,-0.957517
1630588190379,-0.157746,-0.235643,-0.957456
1630588190389,-0.15738,-0.236985,-0.9569679999999999
1630588190398,-0.157685,-0.237229,-0.95648
1630588190408,-0.156282,-0.237656,-0.9554429999999999
1630588190417,-0.15616,-0.236863,-0.954467
1630588190427,-0.156099,-0.235704,-0.9551379999999999
1630588190437,-0.154391,-0.235399,-0.954467
1630588190446,-0.153171,-0.234362,-0.9536129999999999
1630588190456,-0.151646,-0.23424,-0.9530029999999999
1630588190465,-0.151097,-0.233447,-0.952637
1630588190475,-0.149938,-0.233874,-0.952576
1630588190485,-0.150548,-0.233447,-0.9514779999999999
1630588190494,-0.15128,-0.234057,-0.951539
1630588190504,-0.15067,-0.23588699999999999,-0.950807
1630588190513,-0.15067,-0.235643,-0.950502
1630588190523,-0.150792,-0.235948,-0.948977
1630588190533,-0.151097,-0.23588699999999999,-0.950685
1630588190542,-0.15237799999999999,-0.235521,-0.950807
1630588190552,-0.152012,-0.23558199999999999,-0.951539
1630588190561,-0.152744,-0.23558199999999999,-0.952942
1630588190571,-0.154025,-0.234911,-0.953735
1630588190581,-0.153842,-0.234484,-0.955077
1630588190590,-0.153537,-0.236009,-0.951722
1630588190600,-0.155062,-0.23338599999999998,-0.952637
1630588190609,-0.154757,-0.23186099999999998,-0.9533079999999999
1630588190619,-0.154757,-0.23119,-0.953186
1630588190629,-0.156099,-0.231373,-0.95221
1630588190638,-0.155184,-0.231373,-0.95282
1630588190648,-0.15433,-0.230092,-0.953552
1630588190657,-0.154452,-0.230763,-0.953857
1630588190667,-0.155062,-0.231495,-0.954406
1630588190677,-0.15420799999999998,-0.231739,-0.953979
1630588190686,-0.15494,-0.232288,-0.953064
1630588190696,-0.154452,-0.23338599999999998,-0.954406
1630588190705,-0.154147,-0.233325,-0.95587
1630588190715,-0.153415,-0.234362,-0.955626
1630588190725,-0.15298799999999999,-0.23460599999999998,-0.955382
1630588190734,-0.152622,-0.236009,-0.954894
1630588190744,-0.1525,-0.236863,-0.955382
1630588190753,-0.152866,-0.23668,-0.954772
1630588190763,-0.151951,-0.237961,-0.956114
1630588190773,-0.15207299999999999,-0.238449,-0.954711
1630588190782,-0.151585,-0.238144,-0.955382
1630588190792,-0.151768,-0.23912,-0.955016
1630588190801,-0.152134,-0.238266,-0.955382
1630588190811,-0.152317,-0.23832699999999998,-0.955687
1630588190821,-0.15359799999999998,-0.238205,-0.954955
1630588190830,-0.15329299999999998,-0.238266,-0.9545279999999999
1630588190840,-0.153232,-0.239608,-0.953857
1630588190849,-0.153049,-0.239486,-0.954284
1630588190859,-0.153781,-0.237961,-0.9542229999999999
1630588190869,-0.153354,-0.237351,-0.954101
1630588190878,-0.155184,-0.23771699999999998,-0.9554429999999999
1630588190888,-0.153659,-0.237656,-0.954589
1630588190897,-0.15433,-0.236863,-0.953735
1630588190907,-0.153659,-0.236741,-0.953674
1630588190917,-0.15433,-0.235765,-0.953247
1630588190926,-0.154391,-0.23649699999999999,-0.952027
1630588190936,-0.15390299999999998,-0.23588699999999999,-0.952332
1630588190945,-0.153537,-0.236985,-0.951234
1630588190955,-0.15359799999999998,-0.235704,-0.9520879999999999
1630588190965,-0.153659,-0.23619199999999999,-0.951539
1630588190974,-0.15359799999999998,-0.236924,-0.952332
1630588190984,-0.15329299999999998,-0.236741,-0.951905
1630588190993,-0.153659,-0.23741199999999998,-0.951722
1630588191003,-0.154086,-0.23741199999999998,-0.952881
1630588191013,-0.153232,-0.23802199999999998,-0.951905
1630588191022,-0.152744,-0.238693,-0.953064
1630588191032,-0.152622,-0.2379,-0.953064
1630588191041,-0.15329299999999998,-0.238266,-0.952515
1630588191051,-0.15372,-0.238571,-0.95221
1630588191061,-0.153232,-0.23710699999999998,-0.953247
1630588191070,-0.153354,-0.238144,-0.951539
1630588191080,-0.152622,-0.238266,-0.952881
1630588191089,-0.15311,-0.2379,-0.953064
1630588191099,-0.153415,-0.238998,-0.953064
1630588191109,-0.152012,-0.239303,-0.953064
1630588191118,-0.152134,-0.239913,-0.952454
1630588191128,-0.153354,-0.239913,-0.951966
1630588191137,-0.15237799999999999,-0.239608,-0.953247
1630588191147,-0.152317,-0.24046199999999998,-0.952454
1630588191157,-0.152866,-0.24217,-0.953552
1630588191166,-0.153476,-0.24095,-0.953674
1630588191176,-0.15237799999999999,-0.24174299999999999,-0.9526979999999999
1630588191185,-0.153842,-0.241377,-0.951112
1630588191195,-0.15359799999999998,-0.243451,-0.952027
1630588191205,-0.152866,-0.24387799999999998,-0.9536129999999999
1630588191214,-0.15420799999999998,-0.243085,-0.954955
1630588191224,-0.155306,-0.241621,-0.952332
1630588191233,-0.156526,-0.24034,-0.951844
1630588191243,-0.156038,-0.23863199999999998,-0.954101
1630588191253,-0.156648,-0.23607,-0.9566629999999999
1630588191262,-0.15616,-0.234911,-0.957639
1630588191272,-0.155794,-0.235338,-0.957944
1630588191281,-0.155184,-0.23619199999999999,-0.958249
1630588191291,-0.15494,-0.23607,-0.957822
1630588191301,-0.15433,-0.234911,-0.955504
1630588191310,-0.15451299999999998,-0.235399,-0.953796
1630588191320,-0.153781,-0.234972,-0.953491
1630588191329,-0.152561,-0.234789,-0.952576
1630588191339,-0.151402,-0.235094,-0.95343
1630588191349,-0.149145,-0.234728,-0.952332
1630588191358,-0.14823,-0.234972,-0.953186
1630588191368,-0.148169,-0.235338,-0.95282
1630588191377,-0.14743699999999998,-0.23649699999999999,-0.952027
1630588191387,-0.147986,-0.237534,-0.951966
1630588191397,-0.147925,-0.23802199999999998,-0.951051
1630588191406,-0.147986,-0.238449,-0.950746
1630588191416,-0.14835199999999998,-0.23912,-0.952515
1630588191425,-0.147193,-0.23863199999999998,-0.952454
1630588191435,-0.149755,-0.238144,-0.9517829999999999
1630588191445,-0.150365,-0.236375,-0.9520879999999999
1630588191454,-0.150792,-0.236619,-0.953186
1630588191464,-0.151097,-0.23546,-0.954162
1630588191473,-0.151341,-0.235643,-0.9545279999999999
1630588191483,-0.151707,-0.235643,-0.954467
1630588191493,-0.15207299999999999,-0.235643,-0.95221
1630588191502,-0.15311,-0.23363,-0.953186
1630588191512,-0.153964,-0.231739,-0.953064
1630588191521,-0.15555,-0.23094599999999998,-0.9530029999999999
1630588191531,-0.155611,-0.232227,-0.9517829999999999
1630588191541,-0.155611,-0.23119,-0.951417
1630588191550,-0.155306,-0.231068,-0.9520879999999999
1630588191560,-0.154879,-0.232044,-0.953369
1630588191569,-0.153964,-0.231373,-0.953247
1630588191579,-0.154147,-0.231678,-0.9539179999999999
1630588191589,-0.15372,-0.232715,-0.954284
1630588191598,-0.15298799999999999,-0.232227,-0.9533079999999999
1630588191608,-0.153049,-0.23302,-0.9542229999999999
1630588191617,-0.152744,-0.234667,-0.952759
1630588191627,-0.15359799999999998,-0.235704,-0.954406
1630588191637,-0.152317,-0.23680199999999998,-0.95404
1630588191646,-0.153537,-0.237656,-0.955199
1630588191656,-0.152866,-0.237229,-0.955626
1630588191665,-0.153232,-0.238205,-0.955199
1630588191675,-0.152927,-0.238388,-0.9557479999999999
1630588191685,-0.153354,-0.238144,-0.95587
1630588191694,-0.153354,-0.238754,-0.9554429999999999
1630588191704,-0.154025,-0.238388,-0.955687
1630588191713,-0.153964,-0.238571,-0.953979
1630588191723,-0.154635,-0.238083,-0.955016
1630588191733,-0.154086,-0.238571,-0.95404
1630588191742,-0.15359799999999998,-0.238815,-0.953674
1630588191752,-0.154147,-0.23912,-0.953552
1630588191761,-0.153659,-0.23912,-0.9533079999999999
1630588191771,-0.155367,-0.238876,-0.952942
1630588191781,-0.155489,-0.239425,-0.95282
1630588191790,-0.155611,-0.238876,-0.9530029999999999
1630588191800,-0.156831,-0.239059,-0.9523929999999999
1630588191809,-0.156953,-0.239181,-0.9542229999999999
1630588191819,-0.157014,-0.23924199999999998,-0.953369
1630588191829,-0.156709,-0.24034,-0.953125
1630588191838,-0.157319,-0.240767,-0.9520879999999999
1630588191848,-0.15823399999999999,-0.240706,-0.952454
1630588191857,-0.158051,-0.240645,-0.951966
1630588191867,-0.15884399999999999,-0.239608,-0.951661
1630588191877,-0.15921,-0.239425,-0.951417
1630588191886,-0.159881,-0.238449,-0.950807
1630588191896,-0.159393,-0.238815,-0.950197
1630588191905,-0.16036899999999998,-0.23851,-0.9502579999999999
1630588191915,-0.160247,-0.237778,-0.950685
1630588191925,-0.159698,-0.238571,-0.951356
1630588191934,-0.159576,-0.238388,-0.951234
1630588191944,-0.15921,-0.238876,-0.950746
1630588191953,-0.157685,-0.239486,-0.9496479999999999
1630588191963,-0.157014,-0.240645,-0.949099
1630588191973,-0.156221,-0.239974,-0.94916
1630588191982,-0.156526,-0.241255,-0.9490379999999999
1630588191992,-0.156709,-0.240828,-0.950075
1630588192001,-0.155916,-0.241011,-0.949892
1630588192011,-0.155672,-0.242231,-0.951234
1630588192021,-0.155245,-0.241865,-0.951722
1630588192030,-0.155916,-0.241865,-0.9516
1630588192040,-0.156038,-0.243085,-0.95221
1630588192049,-0.155672,-0.242292,-0.953064
1630588192059,-0.155001,-0.243634,-0.952149
1630588192069,-0.15616,-0.24418299999999998,-0.950929
1630588192078,-0.155611,-0.243756,-0.951905
1630588192088,-0.154757,-0.243939,-0.949892
1630588192097,-0.154086,-0.24509799999999998,-0.949221
1630588192107,-0.154269,-0.244976,-0.95038
1630588192117,-0.155672,-0.245586,-0.95282
1630588192126,-0.157075,-0.245281,-0.951417
1630588192136,-0.157685,-0.244244,-0.950502
1630588192145,-0.158966,-0.24339,-0.9511729999999999
1630588192155,-0.159698,-0.24156,-0.9539179999999999
1630588192165,-0.16097899999999998,-0.240218,-0.955992
1630588192174,-0.159698,-0.240889,-0.956907
1630588192184,-0.159393,-0.241499,-0.9569679999999999
1630588192193,-0.159942,-0.241194,-0.9569679999999999
1630588192203,-0.16043,-0.240706,-0.955931
1630588192213,-0.15975899999999998,-0.241072,-0.954955
1630588192222,-0.160857,-0.239974,-0.954162
1630588192232,-0.159515,-0.240401,-0.95221
1630588192241,-0.157685,-0.239486,-0.951966
1630588192251,-0.156892,-0.23851,-0.949831
1630588192261,-0.155733,-0.23802199999999998,-0.949099
1630588192270,-0.154574,-0.238754,-0.948977
1630588192280,-0.154269,-0.23863199999999998,-0.949709
1630588192289,-0.15420799999999998,-0.238083,-0.948977
1630588192299,-0.155001,-0.2379,-0.948672
1630588192309,-0.156038,-0.239425,-0.9481229999999999
1630588192318,-0.156282,-0.239608,-0.948489
1630588192328,-0.157258,-0.23893699999999998,-0.949831
1630588192337,-0.158478,-0.239059,-0.949465
1630588192347,-0.159576,-0.239425,-0.95099
1630588192357,-0.16104,-0.2379,-0.95099
1630588192366,-0.161894,-0.236924,-0.950807
1630588192376,-0.16348,-0.236863,-0.952637
1630588192385,-0.164334,-0.237229,-0.954589
1630588192395,-0.16348,-0.237961,-0.950929
1630588192405,-0.164944,-0.236619,-0.950441
1630588192414,-0.165859,-0.234728,-0.952332
1630588192424,-0.166408,-0.234667,-0.951234
1630588192433,-0.166896,-0.234728,-0.95038
1630588192443,-0.166042,-0.23485,-0.9490379999999999
