timestamp,ax,ay,az
1631632780838,-0.746823,0.016165,-0.541131
1631632780848,-0.764635,0.0183,-0.559614
1631632780857,-0.768356,0.017811999999999998,-0.566568
1631632780867,-0.770857,0.029402,-0.573339
1631632780877,-0.777506,0.032635,-0.582611
1631632780886,-0.775432,0.031781,-0.58377
1631632780896,-0.76311,0.030866,-0.571875
1631632780905,-0.768966,0.027511,-0.5620539999999999
1631632780915,-0.794037,0.012444,-0.563518
1631632780925,-0.810202,-0.0077469999999999995,-0.554002
1631632780934,-0.8325279999999999,-0.023485,-0.549366
1631632780944,-0.866444,-0.0366,-0.552721
1631632780953,-0.896456,-0.049654,-0.556259
1631632780963,-0.913109,-0.061366,-0.549305
1631632780973,-0.94062,-0.076128,-0.545584
1631632780982,-0.953674,-0.09820999999999999,-0.543022
1631632780992,-0.96136,-0.121207,-0.537776
1631632781001,-0.959042,-0.141703,-0.526674
1631632781011,-0.9699,-0.170983,-0.526308
1631632781021,-0.965569,-0.172752,-0.51545
1631632781030,-0.978928,-0.187148,-0.5182559999999999
1631632781040,-0.98454,-0.225151,-0.511302
1631632781049,-0.964776,-0.236924,-0.496052
1631632781059,-0.92598,-0.255224,-0.464881
1631632781069,-0.909693,-0.287432,-0.44469
1631632781078,-0.8985299999999999,-0.317871,-0.433039
1631632781088,-0.884988,-0.343308,-0.413885
1631632781097,-0.870775,-0.366854,-0.397964
1631632781107,-0.8492419999999999,-0.369904,-0.37716299999999997
1631632781117,-0.862906,-0.429623,-0.364902
1631632781126,-0.843081,-0.424499,-0.342698
1631632781136,-0.859246,-0.472018,-0.329522
1631632613008,-0.8568669999999999,-0.273768,-0.432429
1631632613018,-0.856501,-0.27358499999999997,-0.431392
1631632613027,-0.857538,-0.272426,-0.43163599999999996
1631632613037,-0.856318,-0.272609,-0.430904
1631632613046,-0.856013,-0.273158,-0.429257
1631632613056,-0.856318,-0.271877,-0.43005
1631632613066,-0.854488,-0.272548,-0.429257
1631632613075,-0.855098,-0.273768,-0.429928
1631632613085,-0.855098,-0.272731,-0.42883
1631632613094,-0.8553419999999999,-0.27236499999999997,-0.42944
1631632613104,-0.856379,-0.272914,-0.42944
1631632613114,-0.857294,-0.272304,-0.429562
1631632613123,-0.856806,-0.273341,-0.428647
1631632613133,-0.857294,-0.274622,-0.428769
1631632613142,-0.856806,-0.274256,-0.42797599999999997
1631632613152,-0.856745,-0.273341,-0.42761
1631632613162,-0.8574769999999999,-0.274012,-0.425902
1631632613171,-0.856928,-0.273646,-0.424682
1631632613181,-0.858026,-0.274439,-0.424499
1631632613190,-0.858026,-0.275232,-0.424072
1631632613200,-0.858514,-0.275842,-0.424072
1631632613210,-0.858148,-0.276513,-0.424743
1631632613219,-0.859734,-0.276757,-0.425048
1631632613229,-0.859795,-0.275293,-0.424194
1631632613238,-0.860466,-0.274988,-0.42370599999999997
1631632613248,-0.861686,-0.273524,-0.424377
1631632613258,-0.862174,-0.27388999999999997,-0.424377
1631632613267,-0.861198,-0.273768,-0.425292
1631632613277,-0.860893,-0.27205999999999997,-0.423889
1631632613286,-0.8620519999999999,-0.272548,-0.424438
1631632613296,-0.862418,-0.273219,-0.424865
1631632613306,-0.862845,-0.272792,-0.42584099999999997
1631632613315,-0.86254,-0.27358499999999997,-0.42736599999999997
1631632613325,-0.86376,-0.27358499999999997,-0.42736599999999997
1631632613334,-0.861198,-0.272304,-0.428159
1631632613344,-0.860344,-0.270596,-0.42639
1631632613354,-0.859856,-0.269437,-0.424255
1631632613363,-0.858514,-0.266692,-0.423462
1631632613373,-0.859978,-0.265838,-0.426939
1631632613382,-0.8608319999999999,-0.266936,-0.429074
1631632613392,-0.860771,-0.267546,-0.43011099999999997
1631632613402,-0.85949,-0.26992499999999997,-0.430538
1631632613411,-0.8583919999999999,-0.27053499999999997,-0.428952
1631632613421,-0.857599,-0.271633,-0.427732
1631632613430,-0.8562569999999999,-0.272548,-0.428464
1631632613440,-0.854915,-0.272853,-0.427244
1631632613450,-0.854793,-0.271999,-0.427854
1631632613459,-0.8541219999999999,-0.271877,-0.42883
1631632613469,-0.853878,-0.272548,-0.429562
1631632613478,-0.853878,-0.272548,-0.430904
1631632613488,-0.8532069999999999,-0.27388999999999997,-0.431514
1631632613498,-0.853878,-0.27419499999999997,-0.431697
1631632613507,-0.851865,-0.274439,-0.430294
1631632613517,-0.853085,-0.27511,-0.429135
1631632613526,-0.854366,-0.274744,-0.428464
1631632613536,-0.854305,-0.275598,-0.429318
1631632613546,-0.8553419999999999,-0.274256,-0.42889099999999997
1631632613555,-0.855891,-0.273158,-0.43011099999999997
1631632613565,-0.857355,-0.272243,-0.43066
1631632613574,-0.856623,-0.271206,-0.43066
1631632613584,-0.85766,-0.271572,-0.430904
1631632613594,-0.859246,-0.273036,-0.432185
1631632613603,-0.858026,-0.27388999999999997,-0.431758
1631632613613,-0.85705,-0.272304,-0.430294
1631632613622,-0.8571719999999999,-0.271267,-0.431209
1631632613632,-0.856989,-0.272121,-0.432307
1631632613642,-0.8577819999999999,-0.271328,-0.432795
1631632613651,-0.856989,-0.271023,-0.433222
1631632613661,-0.856318,-0.271206,-0.432429
1631632613670,-0.85522,-0.271999,-0.433893
1631632613680,-0.8568669999999999,-0.27144999999999997,-0.434503
1631632613690,-0.855769,-0.271938,-0.435357
1631632613699,-0.8553419999999999,-0.272792,-0.433954
1631632613709,-0.854183,-0.273463,-0.434625
1631632613718,-0.853146,-0.274134,-0.433588
1631632613728,-0.853451,-0.273951,-0.434442
1631632613738,-0.8532069999999999,-0.27419499999999997,-0.433283
1631632613747,-0.854305,-0.274439,-0.434442
1631632613757,-0.854366,-0.273768,-0.432673
1631632613766,-0.8547319999999999,-0.273707,-0.433222
1631632613776,-0.85583,-0.274073,-0.433527
1631632613786,-0.85522,-0.273463,-0.434076
1631632613795,-0.855159,-0.271572,-0.433466
1631632613805,-0.854793,-0.270352,-0.43371
1631632613814,-0.854244,-0.27053499999999997,-0.432734
1631632613824,-0.854244,-0.270169,-0.431575
1631632613834,-0.85522,-0.269742,-0.43066
1631632613843,-0.854915,-0.270047,-0.429623
1631632613853,-0.8553419999999999,-0.271084,-0.430172
1631632613862,-0.85644,-0.270962,-0.429745
1631632613872,-0.8571719999999999,-0.271206,-0.429867
1631632613882,-0.857416,-0.27266999999999997,-0.428647
1631632613891,-0.85766,-0.27205999999999997,-0.428464
1631632613901,-0.858331,-0.272426,-0.42828099999999997
1631632613910,-0.858331,-0.27175499999999997,-0.427854
1631632613920,-0.85827,-0.27205999999999997,-0.42706099999999997
1631632613930,-0.8580869999999999,-0.272487,-0.426695
1631632613939,-0.858758,-0.273463,-0.425719
1631632613949,-0.8596119999999999,-0.273341,-0.42645099999999997
1631632613958,-0.860954,-0.273707,-0.427
1631632613968,-0.858758,-0.275049,-0.42614599999999997
1631632613978,-0.8583919999999999,-0.273768,-0.42523099999999997
1631632613987,-0.859368,-0.271511,-0.424438
1631632613997,-0.85888,-0.271328,-0.425292
1631632614006,-0.859185,-0.271328,-0.425719
1631632614016,-0.861198,-0.270901,-0.425719
1631632614026,-0.858575,-0.270169,-0.425109
1631632614035,-0.8596119999999999,-0.269986,-0.42492599999999997
1631632614045,-0.860771,-0.270596,-0.426268
1631632614054,-0.8602219999999999,-0.26900999999999997,-0.425719
1631632614064,-0.859673,-0.267607,-0.42645099999999997
1631632614074,-0.859368,-0.266814,-0.427
1631632614083,-0.859124,-0.266082,-0.42614599999999997
1631632614093,-0.8608319999999999,-0.266875,-0.425658
1631632614102,-0.861625,-0.26839999999999997,-0.425414
1631632614112,-0.8614419999999999,-0.269742,-0.424682
1631632614122,-0.862723,-0.271511,-0.42553599999999997
1631632614131,-0.862784,-0.272304,-0.42675599999999997
1631632614141,-0.862296,-0.271511,-0.427122
1631632614150,-0.861015,-0.269254,-0.426085
1631632614160,-0.8617469999999999,-0.266387,-0.424194
1631632614170,-0.8626619999999999,-0.264557,-0.427122
1631632614179,-0.863211,-0.262788,-0.42828099999999997
1631632614189,-0.863821,-0.261202,-0.42828099999999997
1631632614198,-0.863455,-0.260592,-0.429928
1631632614208,-0.8617469999999999,-0.260531,-0.42822
1631632614218,-0.8617469999999999,-0.262544,-0.428647
1631632614227,-0.86132,-0.263215,-0.431575
1631632614237,-0.858209,-0.263642,-0.430782
1631632614246,-0.860283,-0.263032,-0.43127
1631632614256,-0.86254,-0.263581,-0.43188
1631632614266,-0.861564,-0.262849,-0.431758
1631632614275,-0.86071,-0.258274,-0.430172
1631632614285,-0.8602219999999999,-0.256261,-0.429379
1631632614294,-0.863638,-0.257054,-0.43102599999999996
1631632614304,-0.867664,-0.261324,-0.434747
1631632614314,-0.869982,-0.264008,-0.43676
1631632614323,-0.869555,-0.264435,-0.43676
1631632614333,-0.868457,-0.263398,-0.439749
1631632614342,-0.867176,-0.259555,-0.439139
1631632614352,-0.862723,-0.25376,-0.43968799999999997
1631632614362,-0.858758,-0.246379,-0.437614
1631632614371,-0.8574769999999999,-0.240828,-0.43737
1631632614381,-0.85644,-0.237656,-0.438834
1631632614390,-0.857355,-0.234728,-0.443592
1631632614400,-0.858819,-0.230885,-0.446093
1631632614410,-0.859368,-0.22691999999999998,-0.449692
1631632614419,-0.857599,-0.223077,-0.450546
1631632614429,-0.858514,-0.21862399999999999,-0.450119
1631632614438,-0.8586969999999999,-0.215635,-0.454938
1631632614448,-0.8565619999999999,-0.211121,-0.455609
1631632614458,-0.856928,-0.205753,-0.457683
1631632614467,-0.85644,-0.20191,-0.457012
1631632614477,-0.854488,-0.197091,-0.457378
1631632614486,-0.855708,-0.192577,-0.459635
1631632614496,-0.85644,-0.190198,-0.46238
1631632614506,-0.856928,-0.18788,-0.465064
1631632614515,-0.856989,-0.186294,-0.46707699999999996
1631632614525,-0.855891,-0.18409799999999998,-0.46860199999999996
1631632614534,-0.853939,-0.181414,-0.468663
1631632614544,-0.8525969999999999,-0.179828,-0.468724
1631632614554,-0.852719,-0.177876,-0.469822
1631632614563,-0.8544269999999999,-0.176656,-0.471591
1631632614573,-0.8568669999999999,-0.178669,-0.47275
1631632614582,-0.857233,-0.17995,-0.475556
1631632614592,-0.856806,-0.180194,-0.4758
1631632614602,-0.8565619999999999,-0.179523,-0.476288
1631632614611,-0.857416,-0.180194,-0.473848
1631632614621,-0.8574769999999999,-0.179645,-0.47336
1631632614630,-0.8568669999999999,-0.180133,-0.472628
1631632614640,-0.856501,-0.179279,-0.47238399999999997
1631632614650,-0.856379,-0.179645,-0.471957
1631632614659,-0.856501,-0.179645,-0.473055
1631632614669,-0.8556469999999999,-0.17763199999999998,-0.473238
1631632614678,-0.856745,-0.176778,-0.472872
1631632614688,-0.858941,-0.179523,-0.47336
1631632614698,-0.85949,-0.180011,-0.472872
1631632614707,-0.8593069999999999,-0.181414,-0.474397
1631632614717,-0.858453,-0.181353,-0.474641
1631632614726,-0.857965,-0.179584,-0.475556
1631632614736,-0.857599,-0.177205,-0.47817899999999997
1631632614746,-0.857233,-0.175497,-0.481046
1631632614755,-0.858209,-0.173972,-0.48373
1631632614765,-0.85888,-0.17208099999999998,-0.486719
1631632614774,-0.856684,-0.16994599999999999,-0.488122
1631632614784,-0.851133,-0.166774,-0.488305
1631632614794,-0.843325,-0.162748,-0.48775599999999997
1631632614803,-0.841739,-0.163053,-0.488305
1631632614813,-0.842959,-0.16067399999999998,-0.49324599999999996
1631632614822,-0.846619,-0.160308,-0.495442
1631632614832,-0.85034,-0.16104,-0.49654
1631632614842,-0.849303,-0.160796,-0.49349
1631632614851,-0.847351,-0.16128399999999998,-0.492392
1631632614861,-0.845582,-0.16104,-0.49263599999999996
1631632614870,-0.8474119999999999,-0.159515,-0.49593
1631632614880,-0.849486,-0.160125,-0.49702799999999997
1631632614890,-0.855708,-0.162748,-0.498126
1631632614899,-0.860466,-0.17025099999999999,-0.49824799999999997
1631632614909,-0.862906,-0.18422,-0.49080599999999996
1631632614918,-0.867115,-0.19178399999999998,-0.489525
1631632614928,-0.86742,-0.190381,-0.493185
1631632614938,-0.86864,-0.183976,-0.499346
1631632614947,-0.864004,-0.178059,-0.49654
1631632614957,-0.8583919999999999,-0.169519,-0.487695
1631632614966,-0.852536,-0.162016,-0.47824
1631632614976,-0.8556469999999999,-0.16043,-0.47451899999999997
1631632614986,-0.869494,-0.162626,-0.477325
1631632614995,-0.890966,-0.167811,-0.482205
1631632615005,-0.911279,-0.165371,-0.495564
1631632615014,-0.91805,-0.156709,-0.50508
1631632615024,-0.92049,-0.137616,-0.5164259999999999
1631632615034,-0.915793,-0.11834,-0.5161209999999999
1631632615043,-0.909022,-0.094733,-0.515572
1631632615053,-0.900543,-0.070394,-0.509411
1631632615062,-0.893345,-0.049776,-0.50325
1631632615072,-0.887184,-0.020252,-0.496235
1631632615082,-0.881877,-0.009455,-0.48836599999999997
1631632615091,-0.880657,0.000122,-0.483913
1631632615101,-0.878949,0.007991,-0.47634899999999997
1631632615110,-0.875655,0.017751,-0.470493
1631632615120,-0.874435,0.035258,-0.462929
1631632615130,-0.873825,0.050568999999999996,-0.456829
1631632615139,-0.870409,0.05795,-0.445178
1631632615149,-0.872788,0.061,-0.43785799999999997
1631632615158,-0.876692,0.074115,-0.43846799999999997
1631632615168,-0.8805959999999999,0.090097,-0.435906
1631632615178,-0.881023,0.102114,-0.433893
1631632615187,-0.8754109999999999,0.11193499999999999,-0.43188
1631632615197,-0.865407,0.116327,-0.42584099999999997
1631632615206,-0.8535119999999999,0.117486,-0.412543
1631632615216,-0.843691,0.113521,-0.395036
1631632615226,-0.841434,0.11022699999999999,-0.379725
1631632615235,-0.849669,0.10638399999999999,-0.375394
1631632615245,-0.856806,0.10065,-0.373442
1631632615254,-0.8571719999999999,0.092171,-0.370575
1631632615264,-0.865285,0.08356999999999999,-0.371612
1631632615274,-0.875838,0.075701,-0.373442
1631632615283,-0.879132,0.066551,-0.368135
1631632615293,-0.878034,0.055265999999999996,-0.360327
1631632615302,-0.883158,0.048068,-0.353983
1631632615312,-0.889685,0.047519,-0.350994
1631632615322,-0.891271,0.044164,-0.349103
1631632615331,-0.893894,0.037027,-0.347395
1631632615341,-0.895114,0.030683,-0.345748
1631632615350,-0.889197,0.025376,-0.343369
1631632615360,-0.889197,0.015921,-0.335683
1631632615370,-0.898896,-0.001586,-0.331474
1631632615379,-0.9070699999999999,-0.02318,-0.32513
1631632615389,-0.919026,-0.048434,-0.316895
1631632615398,-0.924272,-0.072956,-0.30536599999999997
1631632615408,-0.9375089999999999,-0.090646,-0.300974
1631632615418,-0.951905,-0.107482,-0.302804
1631632615427,-0.964044,-0.12078,-0.303414
1631632615437,-0.967399,-0.132858,-0.297985
1631632615446,-0.960872,-0.13969,-0.292617
1631632615456,-0.951905,-0.1464,-0.287859
1631632615466,-0.93696,-0.152439,-0.281088
1631632615475,-0.92354,-0.166774,-0.271694
1631632615485,-0.9210389999999999,-0.192455,-0.260592
1631632615494,-0.927932,-0.223138,-0.259799
1631632615504,-0.936045,-0.244549,-0.26108
1631632615514,-0.93757,-0.261019,-0.263154
1631632615523,-0.9317139999999999,-0.264618,-0.264496
1631632615533,-0.921832,-0.261202,-0.26095799999999997
1631632615542,-0.9140849999999999,-0.275476,-0.249246
1631632615552,-0.901641,-0.315065,-0.221247
1631632615562,-0.9088999999999999,-0.360815,-0.20935199999999998
1631632615571,-0.91439,-0.386801,-0.205448
1631632615581,-0.9347639999999999,-0.396805,-0.212341
1631632615590,-0.930067,-0.388326,-0.22021
1631632615600,-0.932202,-0.37063599999999997,-0.22752999999999998
1631632615610,-0.911401,-0.347395,-0.229604
1631632615619,-0.906948,-0.315492,-0.228384
1631632615629,-0.894016,-0.305244,-0.218136
1631632615638,-0.888892,-0.314516,-0.203008
1631632615648,-0.904569,-0.32513,-0.191845
1631632615658,-0.916403,-0.3477,-0.180682
1631632615667,-0.9469029999999999,-0.348981,-0.193797
1631632615677,-0.95648,-0.35495899999999997,-0.192455
1631632615686,-0.96563,-0.347029,-0.20374
1631632615696,-0.968375,-0.341783,-0.20410599999999998
1631632615706,-0.95892,-0.3355,-0.202642
1631632615715,-0.952576,-0.33488999999999997,-0.190808
1631632615725,-0.954284,-0.327082,-0.187941
1631632615734,-0.951844,-0.334219,-0.17610699999999999
1631632615744,-0.974048,-0.331352,-0.189283
1631632615754,-0.973926,-0.34404,-0.185867
1631632615763,-0.988383,-0.347395,-0.19580999999999998
1631632615773,-0.986004,-0.35075,-0.19056399999999998
1631632615782,-0.98088,-0.34416199999999997,-0.19519999999999998
1631632615792,-0.988322,-0.34263699999999997,-0.193187
1631632615802,-0.9736819999999999,-0.343796,-0.185989
1631632615811,-0.979538,-0.344284,-0.183244
1631632615821,-0.972401,-0.345626,-0.181597
1631632615830,-0.965813,-0.344589,-0.176778
1631632615840,-0.9578829999999999,-0.34233199999999997,-0.174948
1631632615850,-0.9455,-0.331901,-0.172569
1631632615859,-0.937692,-0.320494,-0.171227
1631632615869,-0.94001,-0.31707799999999997,-0.17580199999999999
1631632615878,-0.938363,-0.311039,-0.17873
1631632615888,-0.939766,-0.307135,-0.180865
1631632615898,-0.9420229999999999,-0.309575,-0.180499
1631632615907,-0.941169,-0.312503,-0.179706
1631632615917,-0.941352,-0.315614,-0.1769
1631632615926,-0.951051,-0.317261,-0.180499
1631632615936,-0.9606279999999999,-0.309392,-0.187331
1631632615946,-0.964044,-0.299876,-0.195383
1631632615955,-0.964715,-0.291702,-0.200934
1631632615965,-0.9654469999999999,-0.278831,-0.209108
1631632615974,-0.965325,-0.264191,-0.21520799999999998
1631632615984,-0.964532,-0.258396,-0.221613
1631632615994,-0.967094,-0.259067,-0.226249
1631632616003,-0.965691,-0.26047,-0.229909
1631632616013,-0.960262,-0.257969,-0.230702
1631632616022,-1.014125,-0.23399599999999998,-0.179889
1631632616032,-1.007964,-0.232288,-0.187514
1631632616042,-0.942511,-0.256932,-0.256749
1631632616051,-0.948001,-0.245464,-0.238754
1631632616061,-0.959164,-0.235765,-0.231678
1631632616070,-0.953979,-0.235277,-0.225273
1631632616080,-0.9243939999999999,-0.248697,-0.234118
1631632616090,-0.909266,-0.25193,-0.24296299999999998
1631632616099,-0.907863,-0.238388,-0.246196
1631632616109,-0.922808,-0.220393,-0.24387799999999998
1631632616118,-0.929152,-0.208986,-0.24479299999999998
1631632616128,-0.909266,-0.22508999999999998,-0.261507
1631632616138,-0.8966999999999999,-0.233569,-0.282064
1631632616147,-0.906521,-0.217648,-0.286639
1631632616157,-0.9101199999999999,-0.20874199999999998,-0.289384
1631632616166,-0.915671,-0.200263,-0.287859
1631632616176,-0.935008,-0.185684,-0.277977
1631632616186,-0.939156,-0.161894,-0.284504
1631632616195,-0.928603,-0.195017,-0.286944
1631632616205,-0.921405,-0.191967,-0.297497
1631632616214,-0.921893,-0.184586,-0.301279
1631632616224,-0.919758,-0.198921,-0.316651
1631632616234,-0.9237839999999999,-0.177693,-0.31171
1631632616243,-0.926346,-0.180377,-0.285358
1631632616253,-0.9070699999999999,-0.202093,-0.318054
1631632616262,-0.895053,-0.224297,-0.316651
1631632616272,-0.928908,-0.16006399999999998,-0.264557
1631632616282,-0.902983,-0.186416,-0.302194
1631632616291,-0.902312,-0.183244,-0.303231
1631632616301,-0.899079,-0.186721,-0.30506099999999997
1631632616310,-0.8963949999999999,-0.190442,-0.31049
1631632616320,-0.902007,-0.204045,-0.315797
1631632616330,-0.902922,-0.20496,-0.312198
1631632616339,-0.899262,-0.211426,-0.306769
1631632616349,-0.898408,-0.224236,-0.302072
1631632616358,-0.899323,-0.234972,-0.295423
1631632616368,-0.895846,-0.242719,-0.287127
1631632616378,-0.894321,-0.24662299999999998,-0.28041699999999997
1631632616387,-0.894687,-0.25498,-0.28426
1631632616397,-0.896273,-0.255468,-0.291824
1631632616406,-0.908534,-0.250222,-0.297375
1631632616416,-0.916952,-0.25681,-0.303292
1631632616426,-0.916891,-0.252723,-0.307013
1631632616435,-0.917318,-0.22875,-0.30475599999999997
1631632616445,-0.903959,-0.228628,-0.303719
1631632616454,-0.900604,-0.242414,-0.315004
1631632616464,-0.900482,-0.242109,-0.308782
1631632616474,-0.903898,-0.24339,-0.31171
1631632616483,-0.911767,-0.233813,-0.305244
1631632616493,-0.9134749999999999,-0.246196,-0.31415
1631632616502,-0.918355,-0.24888,-0.312442
1631632616512,-0.919087,-0.250039,-0.310368
1631632616522,-0.919575,-0.252845,-0.309148
1631632616531,-0.92964,-0.255468,-0.30963599999999997
1631632616541,-0.936533,-0.255102,-0.302133
1631632616550,-0.924821,-0.27572,-0.302011
1631632616560,-0.928847,-0.279502,-0.302072
1631632616570,-0.926773,-0.282064,-0.298168
1631632616579,-0.9070699999999999,-0.306769,-0.303719
1631632616589,-0.9189039999999999,-0.303292,-0.306647
1631632616598,-0.925248,-0.291885,-0.301218
1631632616608,-0.919331,-0.29395899999999997,-0.299937
1631632616618,-0.92415,-0.280478,-0.29585
1631632616627,-0.936167,-0.259677,-0.29158
1631632616637,-0.937143,-0.26034799999999997,-0.295667
1631632616646,-0.92964,-0.269254,-0.301401
1631632616656,-0.926773,-0.270962,-0.300059
1631632616666,-0.915305,-0.285114,-0.30317
1631632616675,-0.919026,-0.284138,-0.30536599999999997
1631632616685,-0.91927,-0.283406,-0.308294
1631632616694,-0.912072,-0.288591,-0.31738299999999997
1631632616704,-0.905118,-0.300059,-0.328973
1631632616714,-0.896273,-0.287859,-0.33000999999999997
1631632616723,-0.890844,-0.28377199999999997,-0.323544
1631632616733,-0.888038,-0.28182,-0.327143
1631632616742,-0.881084,-0.288591,-0.340319
1631632616752,-0.875655,-0.29609399999999997,-0.34507699999999997
1631632616762,-0.873825,-0.29334899999999997,-0.343979
1631632616771,-0.878705,-0.28468699999999997,-0.350018
1631632616781,-0.870714,-0.2989,-0.365878
1631632616790,-0.8620519999999999,-0.315431,-0.374845
1631632616800,-0.845704,-0.330559,-0.37881
1631632616810,-0.839604,-0.34050199999999997,-0.388387
1631632616819,-0.8358829999999999,-0.348371,-0.398452
1631632616829,-0.842166,-0.351299,-0.408883
1631632616838,-0.843996,-0.35587399999999997,-0.41809399999999997
1631632616848,-0.852231,-0.354227,-0.428342
1631632616858,-0.830637,-0.365573,-0.442982
1631632616867,-0.802943,-0.374052,-0.453047
1631632616877,-0.790682,-0.386069,-0.464454
1631632616886,-0.770003,-0.386984,-0.47458
1631632616896,-0.76616,-0.391376,-0.48861
1631632616906,-0.748958,-0.39558499999999996,-0.502152
1631632616915,-0.740723,-0.394792,-0.516365
1631632616925,-0.744749,-0.394609,-0.539911
1631632616934,-0.751032,-0.389424,-0.556503
1631632616944,-0.750422,-0.381921,-0.561566
1631632616954,-0.725534,-0.389119,-0.5651039999999999
1631632616963,-0.712907,-0.393572,-0.5705939999999999
1631632616973,-0.7111379999999999,-0.395768,-0.577365
1631632616982,-0.710162,-0.397842,-0.583709
1631632616992,-0.700524,-0.393938,-0.577121
1631632617002,-0.696986,-0.396561,-0.57706
1631632617011,-0.6904589999999999,-0.398513,-0.577182
1631632617021,-0.685335,-0.396134,-0.576999
1631632617030,-0.687043,-0.401685,-0.577243
1631632617040,-0.685762,-0.412116,-0.57584
1631632617050,-0.671549,-0.41297,-0.576511
1631632617059,-0.677222,-0.417118,-0.574559
1631632617069,-0.673623,-0.414678,-0.572485
1631632617078,-0.674172,-0.411628,-0.574803
1631632617088,-0.672281,-0.41229899999999997,-0.576328
1631632617098,-0.67649,-0.41846,-0.581879
1631632617107,-0.673501,-0.420656,-0.589809
1631632617117,-0.669292,-0.418338,-0.595299
1631632617126,-0.679296,-0.419741,-0.607804
1631632617136,-0.664046,-0.420351,-0.605608
1631632617146,-0.650992,-0.42614599999999997,-0.61061
1631632617155,-0.655506,-0.42797599999999997,-0.615063
1631632617165,-0.654896,-0.421632,-0.620004
1631632617174,-0.622871,-0.43724799999999997,-0.620065
1631632617184,-0.61244,-0.432185,-0.625921
1631632617194,-0.578524,-0.44334799999999996,-0.649894
1631632617203,-0.584929,-0.444751,-0.655018
1631632617213,-0.597373,-0.425963,-0.65209
1631632617222,-0.579134,-0.449204,-0.666913
1631632617232,-0.568276,-0.460733,-0.669536
1631632617242,-0.578646,-0.477813,-0.673684
1631632617251,-0.646478,-0.453962,-0.647881
1631632617261,-0.635132,-0.466711,-0.647637
1631632617270,-0.606523,-0.505263,-0.6359859999999999
1631632617280,-0.62098,-0.514047,-0.609146
1631632617290,-0.811056,-0.342698,-0.488122
1631632617299,-0.749202,-0.554246,-0.639158
1631632617309,-0.803675,-0.460428,-0.545767
1631632617318,-0.770796,-0.44212799999999997,-0.49794299999999997
1631632617328,-0.76982,-0.42431599999999997,-0.492514
1631632617338,-0.764208,-0.426634,-0.48592599999999997
1631632617347,-0.776042,-0.421876,-0.487939
1631632617357,-0.785863,-0.419741,-0.489769
1631632617366,-0.782508,-0.415166,-0.49044
1631632617376,-0.777689,-0.407114,-0.489647
1631632617386,-0.777506,-0.404064,-0.490379
1631632617395,-0.778726,-0.404125,-0.48958599999999997
1631632617405,-0.776652,-0.402173,-0.489464
1631632617414,-0.772931,-0.404613,-0.490684
1631632617424,-0.769576,-0.40333199999999997,-0.49294099999999996
1631632617434,-0.770552,-0.401685,-0.499712
1631632617443,-0.76921,-0.401624,-0.504775
1631632617453,-0.766709,-0.398757,-0.506361
1631632617462,-0.7662209999999999,-0.393816,-0.507886
1631632617472,-0.761402,-0.388204,-0.506666
1631632617482,-0.75518,-0.384178,-0.506117
1631632617491,-0.748836,-0.381677,-0.507642
1631632617501,-0.7442,-0.382165,-0.50874
1631632617510,-0.742126,-0.38356799999999996,-0.510509
1631632617520,-0.743163,-0.385276,-0.512644
1631632617530,-0.742309,-0.389851,-0.513925
1631632617539,-0.741211,-0.393633,-0.515694
1631632617549,-0.7403569999999999,-0.397415,-0.513742
1631632617558,-0.73871,-0.395341,-0.5133759999999999
1631632617568,-0.734318,-0.39253499999999997,-0.518988
1631632617578,-0.7363919999999999,-0.393511,-0.515145
1631632617587,-0.737978,-0.397415,-0.515023
1631632617597,-0.741455,-0.40363699999999997,-0.518439
1631632617606,-0.74359,-0.413702,-0.521123
1631632617616,-0.747128,-0.424255,-0.526003
1631632617626,-0.74725,-0.432978,-0.530517
1631632617635,-0.745298,-0.436211,-0.535397
1631632617645,-0.736575,-0.434869,-0.5395449999999999
1631632617654,-0.728218,-0.41992399999999996,-0.543632
1631632617664,-0.72468,-0.409493,-0.553697
1631632617674,-0.722728,-0.40199,-0.5620539999999999
1631632617683,-0.720715,-0.395097,-0.566446
1631632617693,-0.7132729999999999,-0.388448,-0.571448
1631632617702,-0.700707,-0.38765499999999997,-0.577609
1631632617712,-0.690398,-0.391071,-0.578585
1631632617722,-0.679723,-0.398208,-0.578707
1631632617731,-0.668194,-0.402905,-0.575901
1631632617741,-0.664046,-0.40809,-0.574193
1631632617750,-0.662643,-0.41595899999999997,-0.574559
1631632617760,-0.663924,-0.419497,-0.578524
1631632617770,-0.670817,-0.41907,-0.584075
1631632617779,-0.676612,-0.416081,-0.584746
1631632617789,-0.678381,-0.41138399999999997,-0.578341
1631632617798,-0.6874089999999999,-0.406199,-0.57828
1631632617808,-0.69601,-0.408578,-0.585722
1631632617818,-0.700646,-0.416142,-0.5909679999999999
1631632617827,-0.7074779999999999,-0.427,-0.594689
1631632617837,-0.716689,-0.43846799999999997,-0.604266
1631632617846,-0.7178479999999999,-0.44286,-0.611769
1631632617856,-0.7135779999999999,-0.44090799999999997,-0.608475
1631632617866,-0.711016,-0.43724799999999997,-0.598654
1631632617875,-0.714737,-0.433527,-0.598959
1631632617885,-0.722484,-0.43371,-0.61
1631632617894,-0.708515,-0.439017,-0.6156119999999999
1631632617904,-0.712602,-0.429379,-0.609695
1631632617914,-0.709735,-0.43224599999999996,-0.604327
1631632617923,-0.710711,-0.432612,-0.595604
1631632617933,-0.716994,-0.439871,-0.58743
1631632617942,-0.73078,-0.449082,-0.573644
1631632617952,-0.7141879999999999,-0.453718,-0.557845
1631632617962,-0.722728,-0.445605,-0.547902
1631632617971,-0.718336,-0.436699,-0.548512
1631632617981,-0.722484,-0.409005,-0.550098
1631632617990,-0.724314,-0.388936,-0.556137
1631632618000,-0.713761,-0.36850099999999997,-0.554978
1631632618010,-0.7272419999999999,-0.342393,-0.540643
1631632618019,-0.723826,-0.342698,-0.534787
1631632618029,-0.737063,-0.332572,-0.533018
1631632618038,-0.731695,-0.324154,-0.532347
1631632618048,-0.742065,-0.31024599999999997,-0.530212
1631632618058,-0.7324269999999999,-0.300242,-0.525698
1631632618067,-0.744749,-0.27877,-0.517768
1631632618077,-0.749324,-0.256261,-0.504592
1631632618086,-0.764452,-0.22356499999999999,-0.489525
1631632618096,-0.7555459999999999,-0.234911,-0.489037
1631632618106,-0.775554,-0.21581799999999998,-0.5002
1631632618115,-0.777628,-0.202764,-0.49233099999999996
1631632618125,-0.7911699999999999,-0.19276,-0.501359
1631632618134,-0.7996489999999999,-0.179401,-0.511119
1631632618144,-0.807396,-0.171044,-0.520452
1631632618154,-0.8235,-0.14005599999999999,-0.5185609999999999
1631632618163,-0.820633,-0.15006,-0.526674
1631632618173,-0.8343579999999999,-0.120109,-0.52399
1631632618182,-0.838445,-0.115534,-0.523624
1631632618192,-0.846314,-0.099308,-0.5191709999999999
1631632618202,-0.859063,-0.088694,-0.518622
1631632618211,-0.861381,-0.084302,-0.520269
1631632618221,-0.8735809999999999,-0.066978,-0.525088
1631632618230,-0.869128,-0.06954,-0.536861
1631632618240,-0.878095,-0.052826,-0.540216
1631632618250,-0.875899,-0.041114,-0.541253
1631632618259,-0.872727,-0.034709,-0.539362
1631632618269,-0.863333,-0.028426,-0.530822
1631632618278,-0.852414,-0.023729,-0.518012
1631632618288,-0.8477169999999999,-0.017506999999999998,-0.50569
1631632618298,-0.849791,-0.005673,-0.505812
1631632618307,-0.8647969999999999,0.005795,-0.528626
1631632618317,-0.88145,0.009271999999999999,-0.5660189999999999
1631632618326,-0.885293,0.002806,-0.586637
1631632618336,-0.878827,0.002257,-0.586881
1631632618346,-0.880047,-0.0057339999999999995,-0.55754
1631632618355,-0.882548,-0.033611,-0.519903
1631632618365,-0.867237,-0.049654,-0.485438
1631632618374,-0.8623569999999999,-0.057706,-0.468358
1631632618384,-0.8477169999999999,-0.058438,-0.464149
1631632618394,-0.84363,-0.050142,-0.487512
1631632618403,-0.841922,-0.043859,-0.522465
1631632618413,-0.840031,-0.037393,-0.5380199999999999
1631632618422,-0.837469,-0.031964,-0.545828
1631632618432,-0.8300879999999999,-0.028487,-0.541314
1631632618442,-0.823012,-0.024339,-0.531798
1631632618451,-0.823561,-0.024583,-0.529785
1631632618461,-0.829539,-0.032208,-0.531798
1631632618470,-0.831796,-0.042273,-0.537288
1631632618480,-0.828502,-0.050142,-0.541192
1631632618490,-0.820633,-0.052765,-0.5471699999999999
1631632618499,-0.813923,-0.051422999999999996,-0.550769
1631632618509,-0.809775,-0.046787,-0.552172
1631632618518,-0.8121539999999999,-0.042273,-0.553575
1631632618528,-0.816363,-0.047458,-0.553697
1631632618538,-0.82228,-0.057034999999999995,-0.552294
1631632618547,-0.82533,-0.069479,-0.549732
1631632618557,-0.824476,-0.078385,-0.545279
1631632618566,-0.825147,-0.08662,-0.542168
1631632618576,-0.827099,-0.090829,-0.540826
1631632618586,-0.826184,-0.09272,-0.542107
1631632618595,-0.824476,-0.093635,-0.546499
1631632618605,-0.821182,-0.093757,-0.550281
1631632618614,-0.823744,-0.093025,-0.554917
1631632618624,-0.828624,-0.095526,-0.560895
1631632618634,-0.830454,-0.100589,-0.565775
1631632618643,-0.8319179999999999,-0.10248,-0.566446
1631632618653,-0.831125,-0.105835,-0.567361
1631632618662,-0.830515,-0.11102,-0.5702889999999999
1631632618672,-0.8282579999999999,-0.110898,-0.573888
1631632618682,-0.825452,-0.108275,-0.575657
1631632618691,-0.821548,-0.10467599999999999,-0.576328
1631632618701,-0.817522,-0.10144299999999999,-0.577609
1631632618710,-0.812947,-0.099857,-0.576328
1631632618720,-0.8112389999999999,-0.099552,-0.577121
1631632618730,-0.8097139999999999,-0.101016,-0.575352
1631632618739,-0.807335,-0.105896,-0.570655
1631632618749,-0.807152,-0.112362,-0.5705939999999999
1631632618758,-0.803858,-0.122915,-0.567056
1631632618768,-0.80337,-0.130235,-0.558272
1631632618778,-0.797941,-0.14310599999999998,-0.5444249999999999
1631632618787,-0.792878,-0.149145,-0.525271
1631632618797,-0.793244,-0.149816,-0.514718
1631632618806,-0.796782,-0.151707,-0.513559
1631632618816,-0.800076,-0.157197,-0.517402
1631632618826,-0.8014789999999999,-0.158722,-0.516853
1631632618835,-0.801845,-0.158905,-0.516487
1631632618845,-0.803187,-0.153842,-0.51362
1631632618854,-0.805017,-0.146644,-0.511485
1631632618864,-0.811483,-0.139385,-0.514169
1631632618874,-0.816607,-0.134993,-0.52033
1631632618883,-0.820511,-0.132248,-0.528687
1631632618893,-0.824781,-0.128832,-0.5371049999999999
1631632618902,-0.8276479999999999,-0.124318,-0.5444249999999999
1631632618912,-0.833626,-0.120902,-0.551623
1631632618922,-0.8380179999999999,-0.116876,-0.559492
1631632618931,-0.838994,-0.112362,-0.562237
1631632618941,-0.837591,-0.109373,-0.562176
1631632618950,-0.836554,-0.104432,-0.5620539999999999
1631632618960,-0.8346629999999999,-0.100589,-0.559919
1631632618970,-0.831247,-0.098637,-0.557357
1631632618979,-0.828746,-0.097051,-0.556808
1631632618989,-0.829417,-0.097356,-0.557113
1631632618998,-0.831186,-0.098942,-0.557845
1631632619008,-0.830637,-0.102724,-0.55815
1631632619018,-0.8310029999999999,-0.106018,-0.559248
1631632619027,-0.8300879999999999,-0.110471,-0.558028
1631632619037,-0.8285629999999999,-0.110776,-0.555954
1631632619046,-0.827709,-0.113338,-0.552782
1631632619056,-0.827587,-0.113704,-0.550464
1631632619066,-0.8296,-0.115656,-0.549671
1631632619075,-0.831674,-0.11956,-0.548878
1631632619085,-0.831979,-0.12364699999999999,-0.548024
1631632619094,-0.831186,-0.127368,-0.546133
1631632619104,-0.830149,-0.13115,-0.544974
1631632619114,-0.828441,-0.134871,-0.543998
1631632619123,-0.82716,-0.139385,-0.545096
1631632619133,-0.8267329999999999,-0.14274,-0.546499
1631632619142,-0.82533,-0.14579,-0.548817
1631632619152,-0.823866,-0.148474,-0.548634
1631632619162,-0.821792,-0.149389,-0.547292
1631632619171,-0.819169,-0.150914,-0.5450349999999999
1631632619181,-0.817034,-0.148535,-0.543144
1631632619190,-0.815448,-0.14274,-0.539667
1631632619200,-0.815997,-0.140727,-0.540277
1631632619210,-0.817156,-0.141093,-0.541314
1631632619219,-0.818376,-0.143716,-0.543998
1631632619229,-0.820633,-0.144814,-0.545096
1631632619238,-0.819901,-0.145485,-0.544669
1631632619248,-0.817522,-0.14518,-0.541131
1631632619258,-0.816363,-0.143594,-0.538447
1631632619267,-0.817217,-0.142008,-0.5380199999999999
1631632619277,-0.81618,-0.139873,-0.53436
1631632619286,-0.8152039999999999,-0.137006,-0.530578
1631632619296,-0.813313,-0.138104,-0.525759
1631632619306,-0.813618,-0.140544,-0.523319
1631632619315,-0.819657,-0.142679,-0.52582
1631632619325,-0.827831,-0.14713199999999999,-0.528626
1631632619334,-0.83448,-0.15298799999999999,-0.531188
1631632619344,-0.84058,-0.158173,-0.529419
1631632619354,-0.843203,-0.161894,-0.527711
1631632619363,-0.844667,-0.16439499999999999,-0.524844
1631632619373,-0.843569,-0.164578,-0.522892
1631632619382,-0.841373,-0.163236,-0.519598
1631632619392,-0.841739,-0.162321,-0.517158
1631632619402,-0.84119,-0.161955,-0.517158
1631632619411,-0.842471,-0.16165,-0.515877
1631632619421,-0.842288,-0.162321,-0.515694
1631632619430,-0.842959,-0.163724,-0.514352
1631632619440,-0.843386,-0.164822,-0.513925
1631632619450,-0.842654,-0.167018,-0.5133759999999999
1631632619459,-0.843996,-0.165554,-0.513925
1631632619469,-0.844606,-0.16561499999999998,-0.514535
1631632619478,-0.843081,-0.163602,-0.5158159999999999
1631632619488,-0.842898,-0.161223,-0.518439
1631632619498,-0.841617,-0.158112,-0.5194759999999999
1631632619507,-0.840946,-0.156465,-0.521733
1631632619517,-0.8401529999999999,-0.155062,-0.525088
1631632619526,-0.836981,-0.154574,-0.526186
1631632619536,-0.832772,-0.15237799999999999,-0.525942
1631632619546,-0.8328329999999999,-0.148596,-0.528199
1631632619555,-0.830271,-0.147864,-0.530456
1631632619565,-0.830027,-0.146949,-0.530761
1631632619574,-0.828502,-0.145607,-0.532347
1631632619584,-0.827892,-0.145485,-0.534299
1631632619594,-0.8252079999999999,-0.146583,-0.534787
1631632619603,-0.823744,-0.146095,-0.534604
1631632619613,-0.822646,-0.145851,-0.535214
1631632619622,-0.82167,-0.145241,-0.536434
1631632619632,-0.821487,-0.146095,-0.538569
1631632619642,-0.822219,-0.143716,-0.539362
1631632619651,-0.82472,-0.143533,-0.542473
1631632619661,-0.824659,-0.144326,-0.544974
1631632619670,-0.822829,-0.146034,-0.544791
1631632619680,-0.822585,-0.146949,-0.5441199999999999
1631632619690,-0.821548,-0.147254,-0.5456449999999999
1631632619699,-0.820938,-0.148108,-0.544547
1631632619709,-0.819108,-0.147193,-0.544364
1631632619718,-0.818681,-0.14579,-0.544913
1631632619728,-0.818254,-0.144509,-0.544608
1631632619738,-0.816363,-0.144814,-0.544669
1631632619747,-0.815326,-0.14396,-0.541741
1631632619757,-0.815753,-0.14310599999999998,-0.541497
1631632619766,-0.815265,-0.143777,-0.541924
1631632619776,-0.8174,-0.144509,-0.544852
1631632619786,-0.81862,-0.14652199999999999,-0.546377
1631632619795,-0.819291,-0.145302,-0.548207
1631632619805,-0.81923,-0.14335,-0.546804
1631632619814,-0.81862,-0.143594,-0.547231
1631632619824,-0.818803,-0.143899,-0.545828
1631632619834,-0.818254,-0.144631,-0.543632
1631632619843,-0.818986,-0.144448,-0.5413749999999999
1631632619853,-0.819169,-0.145058,-0.539423
1631632619862,-0.818864,-0.14682699999999999,-0.536434
1631632619872,-0.819047,-0.146644,-0.53497
1631632619882,-0.819291,-0.145485,-0.534543
1631632619891,-0.820511,-0.145851,-0.534238
1631632619901,-0.822646,-0.145973,-0.533567
1631632619910,-0.8261229999999999,-0.1464,-0.532652
1631632619920,-0.827282,-0.146949,-0.532103
1631632619930,-0.8288679999999999,-0.14884,-0.532164
1631632619939,-0.830942,-0.151463,-0.532713
1631632619949,-0.831064,-0.152744,-0.532652
1631632619958,-0.831857,-0.152805,-0.532591
1631632619968,-0.8331379999999999,-0.151829,-0.531249
1631632619978,-0.831979,-0.150365,-0.53009
1631632619987,-0.8316129999999999,-0.14804699999999998,-0.530578
1631632619997,-0.832284,-0.14743699999999998,-0.532469
1631632620006,-0.831674,-0.148718,-0.534116
1631632620016,-0.831796,-0.150731,-0.5367999999999999
1631632620026,-0.8294779999999999,-0.15329299999999998,-0.537288
1631632620035,-0.829661,-0.15494,-0.538508
1631632620045,-0.829356,-0.156465,-0.539423
1631632620054,-0.828197,-0.156587,-0.537593
1631632620064,-0.826916,-0.158173,-0.535946
1631632620074,-0.825635,-0.159881,-0.536373
1631632620083,-0.8245979999999999,-0.161772,-0.537044
1631632620093,-0.823866,-0.16043,-0.537349
1631632620102,-0.8233779999999999,-0.160247,-0.536617
1631632620112,-0.8221579999999999,-0.161772,-0.535214
1631632620122,-0.821426,-0.163724,-0.534848
1631632620131,-0.8224629999999999,-0.162626,-0.535092
1631632620141,-0.822646,-0.164517,-0.535031
1631632620150,-0.82289,-0.16530999999999998,-0.534482
1631632620160,-0.822585,-0.165432,-0.534848
1631632620170,-0.8224629999999999,-0.164578,-0.533933
1631632620179,-0.8235,-0.162016,-0.533872
1631632620189,-0.823805,-0.159698,-0.53375
1631632620198,-0.824232,-0.159942,-0.534055
1631632620208,-0.825452,-0.159271,-0.534665
1631632620218,-0.827099,-0.15884399999999999,-0.535458
1631632620227,-0.825757,-0.158722,-0.536007
1631632620237,-0.824049,-0.15677,-0.532835
1631632620246,-0.823927,-0.1525,-0.532164
1631632620256,-0.8230729999999999,-0.151341,-0.533506
1631632620266,-0.823561,-0.150243,-0.53192
1631632620275,-0.82472,-0.150426,-0.531859
1631632620285,-0.826184,-0.151402,-0.532469
1631632620294,-0.826367,-0.153049,-0.532103
1631632620304,-0.8252079999999999,-0.153171,-0.532286
1631632620314,-0.82594,-0.1525,-0.532408
1631632620323,-0.8270379999999999,-0.15372,-0.532225
1631632620333,-0.827465,-0.15481799999999998,-0.5307
1631632620342,-0.8296,-0.15420799999999998,-0.529114
1631632620352,-0.831186,-0.155977,-0.528565
1631632620362,-0.832772,-0.157075,-0.529663
1631632620371,-0.833565,-0.157014,-0.529114
1631632620381,-0.834602,-0.156282,-0.529602
1631632620390,-0.8340529999999999,-0.156282,-0.528443
1631632620400,-0.8340529999999999,-0.15481799999999998,-0.528199
1631632620410,-0.8337479999999999,-0.15433,-0.527894
1631632620419,-0.835334,-0.153659,-0.527467
1631632620429,-0.83509,-0.153537,-0.52765
1631632620438,-0.835151,-0.153781,-0.527528
1631632620448,-0.834236,-0.153781,-0.527589
1631632620458,-0.8349679999999999,-0.153476,-0.527162
1631632620467,-0.834297,-0.152866,-0.52704
1631632620477,-0.833931,-0.152866,-0.527528
1631632620486,-0.83143,-0.151768,-0.527223
1631632620496,-0.829234,-0.151158,-0.525942
1631632620506,-0.826611,-0.150182,-0.523868
1631632620515,-0.827709,-0.150365,-0.523258
1631632620525,-0.828624,-0.150548,-0.523685
1631632620534,-0.8294779999999999,-0.152012,-0.524905
1631632620544,-0.8303929999999999,-0.152622,-0.525942
1631632620554,-0.830515,-0.154696,-0.525942
1631632620563,-0.830576,-0.155001,-0.526674
1631632620573,-0.830637,-0.153842,-0.526491
1631632620582,-0.8303929999999999,-0.155306,-0.527711
1631632620592,-0.831125,-0.156587,-0.526857
1631632620602,-0.8319179999999999,-0.156831,-0.526796
1631632620611,-0.831125,-0.157319,-0.52643
1631632620621,-0.831674,-0.157014,-0.525942
1631632620630,-0.832101,-0.158112,-0.523258
1631632620640,-0.831674,-0.158356,-0.522587
1631632620650,-0.8328329999999999,-0.160247,-0.522282
1631632620659,-0.832406,-0.160918,-0.521733
1631632620669,-0.833626,-0.1586,-0.520635
1631632620678,-0.833809,-0.156404,-0.522099
1631632620688,-0.834236,-0.154452,-0.524173
1631632620698,-0.83509,-0.154391,-0.525515
1631632620707,-0.834724,-0.155794,-0.525576
1631632620717,-0.835517,-0.157319,-0.527833
1631632620726,-0.8355779999999999,-0.15921,-0.528687
1631632620736,-0.8361879999999999,-0.160552,-0.529114
1631632620746,-0.836066,-0.16097899999999998,-0.526918
1631632620755,-0.835334,-0.161162,-0.525149
1631632620765,-0.834785,-0.162504,-0.524966
1631632620774,-0.833016,-0.162443,-0.523563
1631632620784,-0.831247,-0.161772,-0.5237459999999999
1631632620794,-0.830576,-0.161101,-0.524783
1631632620803,-0.829051,-0.16128399999999998,-0.526308
1631632620813,-0.8276479999999999,-0.161772,-0.526857
1631632620822,-0.828075,-0.162931,-0.527467
1631632620832,-0.826794,-0.16287,-0.526064
1631632620842,-0.82777,-0.161894,-0.525088
1631632620851,-0.828075,-0.162626,-0.525515
1631632620861,-0.829417,-0.16348,-0.525698
1631632620870,-0.82777,-0.163419,-0.526186
1631632620880,-0.82777,-0.16226,-0.526308
1631632620890,-0.8282579999999999,-0.161528,-0.525759
1631632620899,-0.828014,-0.15914899999999998,-0.525942
1631632620909,-0.8288679999999999,-0.15853899999999999,-0.526125
1631632620918,-0.829905,-0.15975899999999998,-0.527406
1631632620928,-0.8300879999999999,-0.159332,-0.526796
1631632620938,-0.829905,-0.158356,-0.527711
1631632620947,-0.8306979999999999,-0.15616,-0.52704
1631632620957,-0.830332,-0.155184,-0.52826
1631632620966,-0.828746,-0.15451299999999998,-0.527467
1631632620976,-0.8288679999999999,-0.154025,-0.526369
1631632620986,-0.828319,-0.15494,-0.525698
1631632620995,-0.829417,-0.155672,-0.526247
1631632621005,-0.829295,-0.157136,-0.526918
1631632621014,-0.8297829999999999,-0.158051,-0.527467
1631632621024,-0.8300879999999999,-0.158173,-0.529114
1631632621034,-0.831125,-0.158966,-0.529602
1631632621043,-0.83143,-0.158356,-0.528748
1631632621053,-0.830942,-0.156831,-0.527162
1631632621062,-0.831064,-0.15853899999999999,-0.526186
1631632621072,-0.829417,-0.157868,-0.525881
1631632621082,-0.829966,-0.157746,-0.527162
1631632621091,-0.830027,-0.157624,-0.52704
1631632621101,-0.8306979999999999,-0.158295,-0.52582
1631632621110,-0.830332,-0.159088,-0.526491
1631632621120,-0.831369,-0.15799,-0.526064
1631632621130,-0.831735,-0.156038,-0.525698
1631632621139,-0.831674,-0.155672,-0.526003
1631632621149,-0.831552,-0.155184,-0.524722
1631632621158,-0.8306979999999999,-0.156099,-0.524417
1631632621168,-0.830454,-0.156099,-0.524356
1631632621178,-0.831674,-0.15677,-0.523685
1631632621187,-0.831064,-0.15799,-0.523319
1631632621197,-0.832345,-0.159027,-0.523075
1631632621206,-0.8331379999999999,-0.157136,-0.52399
1631632621216,-0.833016,-0.156099,-0.52338
1631632621226,-0.832406,-0.155062,-0.52216
1631632621235,-0.83265,-0.154574,-0.52155
1631632621245,-0.8331379999999999,-0.15311,-0.5206959999999999
1631632621254,-0.8331379999999999,-0.153842,-0.52155
1631632621264,-0.83326,-0.153476,-0.5216109999999999
1631632621274,-0.835212,-0.153842,-0.521733
1631632621283,-0.835456,-0.15390299999999998,-0.52216
1631632621293,-0.834907,-0.154147,-0.522465
1631632621302,-0.834846,-0.153476,-0.5228309999999999
1631632621312,-0.835395,-0.154269,-0.522282
1631632621322,-0.835334,-0.153354,-0.5200859999999999
1631632621331,-0.8337479999999999,-0.152622,-0.51911
1631632621341,-0.832894,-0.152012,-0.5185609999999999
1631632621350,-0.833565,-0.153476,-0.519598
1631632621360,-0.834236,-0.153964,-0.5200859999999999
1631632621370,-0.833077,-0.15390299999999998,-0.518378
1631632621379,-0.834541,-0.153659,-0.5188659999999999
1631632621389,-0.8349679999999999,-0.15268299999999999,-0.5182559999999999
1631632621398,-0.833504,-0.15298799999999999,-0.51728
1631632621408,-0.831125,-0.153842,-0.514413
1631632621418,-0.832772,-0.154452,-0.515145
1631632621427,-0.834724,-0.155245,-0.5185
1631632621437,-0.83753,-0.154452,-0.522038
1631632621446,-0.8407629999999999,-0.155428,-0.525332
1631632621456,-0.841861,-0.155001,-0.52521
1631632621466,-0.8398479999999999,-0.15420799999999998,-0.523502
1631632621475,-0.837774,-0.153659,-0.5213059999999999
1631632621485,-0.835822,-0.155062,-0.519598
1631632621494,-0.833199,-0.15481799999999998,-0.51667
1631632621504,-0.831491,-0.157319,-0.515938
1631632621514,-0.830454,-0.15884399999999999,-0.518073
1631632621523,-0.829539,-0.161467,-0.517524
1631632621533,-0.829844,-0.162626,-0.517219
1631632621542,-0.831369,-0.162321,-0.5188659999999999
1631632621552,-0.834175,-0.162931,-0.51972
1631632621562,-0.834907,-0.164456,-0.5194759999999999
1631632621571,-0.834236,-0.166164,-0.517402
1631632621581,-0.835334,-0.164578,-0.516365
1631632621590,-0.83692,-0.16287,-0.5173409999999999
1631632621600,-0.838506,-0.161406,-0.518988
1631632621610,-0.840397,-0.161467,-0.521672
1631632621619,-0.841983,-0.160613,-0.522892
1631632621629,-0.841983,-0.158783,-0.524478
1631632621638,-0.8395429999999999,-0.157624,-0.5234409999999999
1631632621648,-0.837957,-0.155184,-0.522709
1631632621658,-0.836676,-0.153415,-0.521489
1631632621667,-0.837164,-0.152012,-0.5231359999999999
1631632621677,-0.8352729999999999,-0.150609,-0.522648
1631632621686,-0.833565,-0.149572,-0.52094
1631632621696,-0.831979,-0.150365,-0.51972
1631632621706,-0.8325279999999999,-0.150243,-0.519415
1631632621715,-0.833992,-0.150914,-0.5197809999999999
1631632621725,-0.835456,-0.151585,-0.521184
1631632621734,-0.8357,-0.151585,-0.523075
1631632621744,-0.836432,-0.15268299999999999,-0.522892
1631632621754,-0.8355779999999999,-0.153415,-0.521123
1631632621763,-0.834114,-0.15329299999999998,-0.520818
1631632621773,-0.8346629999999999,-0.15298799999999999,-0.519537
1631632621782,-0.8355779999999999,-0.154574,-0.521184
1631632621792,-0.836432,-0.15420799999999998,-0.5216109999999999
1631632621802,-0.837774,-0.153659,-0.523258
1631632621811,-0.83692,-0.153476,-0.523319
1631632621821,-0.837225,-0.152561,-0.52338
1631632621830,-0.8371029999999999,-0.151463,-0.523075
1631632621840,-0.837835,-0.151402,-0.5237459999999999
1631632621850,-0.836432,-0.150792,-0.524356
1631632621859,-0.8346629999999999,-0.150426,-0.522404
1631632621869,-0.832284,-0.150182,-0.522465
1631632621878,-0.830027,-0.151036,-0.521733
1631632621888,-0.830332,-0.150304,-0.521062
1631632621898,-0.829417,-0.148535,-0.5203909999999999
1631632621907,-0.831186,-0.14926699999999998,-0.521855
1631632621917,-0.8322229999999999,-0.150914,-0.52338
1631632621926,-0.8334429999999999,-0.151463,-0.5240509999999999
1631632621936,-0.834419,-0.152744,-0.52277
1631632621946,-0.833565,-0.151402,-0.523014
1631632621955,-0.832162,-0.152927,-0.5234409999999999
1631632621965,-0.831491,-0.153842,-0.52216
1631632621974,-0.831735,-0.153842,-0.522892
1631632621984,-0.83265,-0.15372,-0.523868
1631632621994,-0.832772,-0.153659,-0.523624
1631632622003,-0.83204,-0.15311,-0.522587
1631632622013,-0.8316129999999999,-0.153537,-0.520879
1631632622022,-0.831186,-0.154696,-0.519659
1631632622032,-0.833382,-0.153964,-0.520025
1631632622042,-0.833992,-0.154879,-0.519232
1631632622051,-0.834907,-0.156282,-0.520208
1631632622061,-0.8358829999999999,-0.159027,-0.5206959999999999
1631632622070,-0.8361879999999999,-0.157868,-0.521489
1631632622080,-0.836249,-0.157136,-0.522465
1631632622090,-0.836005,-0.156892,-0.522648
1631632622099,-0.835517,-0.15329299999999998,-0.521062
1631632622109,-0.83448,-0.150121,-0.517829
1631632622118,-0.834602,-0.148779,-0.517768
1631632622128,-0.835517,-0.150975,-0.519598
1631632622138,-0.836554,-0.153842,-0.522648
1631632622147,-0.8386279999999999,-0.155794,-0.524844
1631632622157,-0.838384,-0.156831,-0.525637
1631632622166,-0.8352729999999999,-0.157014,-0.5234409999999999
1631632622176,-0.83509,-0.156587,-0.5206959999999999
1631632622186,-0.833016,-0.155855,-0.5188659999999999
1631632622195,-0.8322229999999999,-0.155062,-0.5182559999999999
1631632622205,-0.830942,-0.156404,-0.5185609999999999
1631632622214,-0.831796,-0.156953,-0.518683
1631632622224,-0.829905,-0.158417,-0.5185609999999999
1631632622234,-0.8291729999999999,-0.159881,-0.518195
1631632622243,-0.8285629999999999,-0.160491,-0.518439
1631632622253,-0.830027,-0.160796,-0.5185609999999999
1631632622262,-0.830027,-0.161894,-0.517402
1631632622272,-0.83143,-0.162016,-0.516975
1631632622282,-0.83204,-0.16226,-0.518439
1631632622291,-0.833382,-0.162321,-0.519903
1631632622301,-0.8361879999999999,-0.16128399999999998,-0.522099
1631632622310,-0.835822,-0.161589,-0.52094
1631632622320,-0.837286,-0.160003,-0.522038
1631632622330,-0.838811,-0.160308,-0.5228309999999999
1631632622339,-0.838445,-0.159637,-0.522587
1631632622349,-0.836737,-0.158295,-0.521855
1631632622358,-0.837774,-0.157624,-0.521672
1631632622368,-0.837957,-0.156953,-0.523258
1631632622378,-0.837896,-0.157258,-0.52277
1631632622387,-0.83753,-0.157502,-0.52155
1631632622397,-0.836981,-0.158173,-0.5219159999999999
1631632622406,-0.8374079999999999,-0.15792899999999999,-0.522587
1631632622416,-0.835639,-0.158295,-0.521184
1631632622426,-0.8352729999999999,-0.159332,-0.522587
1631632622435,-0.835761,-0.160857,-0.5231359999999999
1631632622445,-0.8343579999999999,-0.161467,-0.523197
1631632622454,-0.83387,-0.15945399999999998,-0.523502
1631632622464,-0.832162,-0.158661,-0.522709
1631632622474,-0.83204,-0.15884399999999999,-0.522404
1631632622483,-0.832589,-0.159027,-0.523563
1631632622493,-0.833809,-0.159637,-0.524966
1631632622502,-0.834297,-0.159637,-0.526552
1631632622512,-0.834114,-0.159515,-0.52582
1631632622522,-0.832955,-0.159515,-0.525698
1631632622531,-0.832894,-0.159881,-0.526247
1631632622541,-0.830149,-0.16043,-0.525088
1631632622550,-0.830332,-0.160003,-0.525698
1631632622560,-0.8285629999999999,-0.159576,-0.525576
1631632622570,-0.826977,-0.15823399999999999,-0.523807
1631632622579,-0.826916,-0.157746,-0.523563
1631632622589,-0.82716,-0.158722,-0.524539
1631632622598,-0.8273429999999999,-0.158722,-0.523868
1631632622608,-0.826489,-0.158051,-0.523868
1631632622618,-0.826794,-0.15823399999999999,-0.523502
1631632622627,-0.826977,-0.158051,-0.523502
1631632622637,-0.8276479999999999,-0.158966,-0.523868
1631632622646,-0.828075,-0.158966,-0.522587
1631632622656,-0.827709,-0.15823399999999999,-0.522282
1631632622666,-0.8288679999999999,-0.158783,-0.523014
1631632622675,-0.829051,-0.159515,-0.523258
1631632622685,-0.8282579999999999,-0.16043,-0.521855
1631632622694,-0.82899,-0.159942,-0.52033
1631632622704,-0.8300879999999999,-0.161833,-0.52155
1631632622714,-0.8316129999999999,-0.162138,-0.5219159999999999
1631632622723,-0.8334429999999999,-0.16348,-0.521489
1631632622733,-0.834846,-0.164029,-0.521855
1631632622742,-0.8361879999999999,-0.164883,-0.523075
1631632622752,-0.835944,-0.16561499999999998,-0.521794
1631632622762,-0.835944,-0.165188,-0.522587
1631632622771,-0.8361879999999999,-0.164334,-0.523624
1631632622781,-0.8355779999999999,-0.162382,-0.5225259999999999
1631632622790,-0.834602,-0.160796,-0.5191709999999999
1631632622800,-0.831796,-0.157685,-0.5179509999999999
1631632622810,-0.833199,-0.158661,-0.520208
1631632622819,-0.833992,-0.158966,-0.522465
1631632622829,-0.834907,-0.162382,-0.523929
1631632622838,-0.8358829999999999,-0.163846,-0.525393
1631632622848,-0.83631,-0.164639,-0.525759
1631632622858,-0.835517,-0.166286,-0.524356
1631632622867,-0.834541,-0.167323,-0.5240509999999999
1631632622877,-0.834724,-0.167994,-0.522282
1631632622886,-0.8319179999999999,-0.167506,-0.52094
1631632622896,-0.830027,-0.167079,-0.520452
1631632622906,-0.829661,-0.165066,-0.520513
1631632622915,-0.830454,-0.163724,-0.521428
1631632622925,-0.829722,-0.16348,-0.521672
1631632622934,-0.831247,-0.162687,-0.521367
1631632622944,-0.8306979999999999,-0.162809,-0.52338
1631632622954,-0.831186,-0.162748,-0.521794
1631632622963,-0.830759,-0.16226,-0.52155
1631632622973,-0.830637,-0.162504,-0.523014
1631632622982,-0.8306979999999999,-0.161711,-0.5216109999999999
1631632622992,-0.830942,-0.16067399999999998,-0.522038
1631632623002,-0.830576,-0.1586,-0.521794
1631632623011,-0.831857,-0.158173,-0.5237459999999999
1631632623021,-0.8325279999999999,-0.159942,-0.524722
1631632623030,-0.829966,-0.159637,-0.523075
1631632623040,-0.8294779999999999,-0.158051,-0.52033
1631632623050,-0.8306979999999999,-0.156282,-0.52094
1631632623059,-0.83021,-0.156282,-0.52216
1631632623069,-0.831247,-0.157502,-0.521062
1631632623078,-0.832406,-0.15738,-0.521733
1631632623088,-0.83509,-0.158783,-0.5231359999999999
1631632623098,-0.834236,-0.159515,-0.523685
1631632623107,-0.835944,-0.158112,-0.523685
1631632623117,-0.8352729999999999,-0.159027,-0.524722
1631632623126,-0.836371,-0.160613,-0.524356
1631632623136,-0.8349679999999999,-0.15914899999999998,-0.52338
1631632623146,-0.834907,-0.16067399999999998,-0.5222209999999999
1631632623155,-0.832955,-0.160735,-0.520513
1631632623165,-0.832101,-0.159637,-0.519354
1631632623174,-0.833504,-0.15982,-0.5203909999999999
1631632623184,-0.834602,-0.15853899999999999,-0.522587
1631632623194,-0.834602,-0.1586,-0.522648
1631632623203,-0.834724,-0.157807,-0.524173
1631632623213,-0.836859,-0.158356,-0.524478
1631632623222,-0.836432,-0.158417,-0.52521
1631632623232,-0.834419,-0.158295,-0.523624
1631632623242,-0.833931,-0.157746,-0.5237459999999999
1631632623251,-0.834236,-0.156831,-0.524112
1631632623261,-0.833687,-0.157441,-0.524783
1631632623270,-0.833382,-0.157014,-0.5246
1631632623280,-0.832467,-0.157746,-0.524112
1631632623290,-0.832101,-0.157868,-0.524478
1631632623299,-0.830942,-0.15945399999999998,-0.52521
1631632623309,-0.828441,-0.15914899999999998,-0.523258
1631632623318,-0.829051,-0.159393,-0.5222209999999999
1631632623328,-0.82838,-0.160918,-0.52338
1631632623338,-0.829051,-0.162199,-0.524356
1631632623347,-0.829112,-0.163968,-0.524356
1631632623357,-0.829051,-0.164456,-0.524966
1631632623366,-0.829722,-0.163358,-0.5234409999999999
1631632623376,-0.829051,-0.163968,-0.524783
1631632623386,-0.829539,-0.162199,-0.523563
1631632623395,-0.830637,-0.162077,-0.525698
1631632623405,-0.829844,-0.163236,-0.525576
1631632623414,-0.829112,-0.16500499999999999,-0.523563
1631632623424,-0.828685,-0.167018,-0.523075
1631632623434,-0.829417,-0.16713999999999998,-0.522099
1631632623443,-0.8296,-0.169336,-0.522282
1631632623453,-0.83021,-0.168604,-0.52277
1631632623462,-0.829234,-0.166164,-0.520452
1631632623472,-0.831552,-0.16439499999999999,-0.522587
1631632623482,-0.833199,-0.163785,-0.523929
1631632623491,-0.834175,-0.162931,-0.525393
1631632623501,-0.832711,-0.163602,-0.52765
1631632623510,-0.833626,-0.165432,-0.52826
1631632623520,-0.833626,-0.166652,-0.527406
1631632623530,-0.8337479999999999,-0.166591,-0.525088
1631632623539,-0.83387,-0.167811,-0.524844
1631632623549,-0.831796,-0.169275,-0.523624
1631632623558,-0.832162,-0.170434,-0.522404
1631632623568,-0.8313079999999999,-0.170922,-0.522038
1631632623578,-0.830027,-0.171349,-0.521794
1631632623587,-0.829234,-0.171715,-0.5216109999999999
1631632623597,-0.827709,-0.172264,-0.522587
1631632623606,-0.828746,-0.173972,-0.5222209999999999
1631632623616,-0.828502,-0.173057,-0.522404
1631632623626,-0.8296,-0.17324,-0.5216109999999999
1631632623635,-0.829844,-0.174094,-0.519598
1631632623645,-0.828929,-0.17238599999999998,-0.5179509999999999
1631632623654,-0.829966,-0.17208099999999998,-0.518073
1631632623664,-0.830942,-0.1708,-0.519537
1631632623674,-0.8306979999999999,-0.170068,-0.52155
1631632623683,-0.83143,-0.167506,-0.5219159999999999
1631632623693,-0.832894,-0.166957,-0.52155
1631632623702,-0.8306979999999999,-0.167994,-0.519842
1631632623712,-0.830149,-0.166896,-0.517219
1631632623722,-0.831674,-0.164029,-0.51789
1631632623731,-0.831674,-0.16287,-0.520269
1631632623741,-0.8322229999999999,-0.162992,-0.5213059999999999
1631632623750,-0.833016,-0.162077,-0.520208
1631632623760,-0.8331379999999999,-0.162138,-0.519903
1631632623770,-0.8334429999999999,-0.163114,-0.52033
1631632623779,-0.834724,-0.163602,-0.5203909999999999
1631632623789,-0.834541,-0.16348,-0.51972
1631632623798,-0.834175,-0.162992,-0.519049
1631632623808,-0.832711,-0.164212,-0.520513
1631632623818,-0.833321,-0.164029,-0.519842
1631632623827,-0.833321,-0.163907,-0.519659
1631632623837,-0.833504,-0.165676,-0.520452
1631632623846,-0.8343579999999999,-0.16683499999999998,-0.520269
1631632623856,-0.835517,-0.167689,-0.5197809999999999
1631632623866,-0.8352729999999999,-0.169092,-0.519537
1631632623875,-0.8357,-0.17025099999999999,-0.5203909999999999
1631632623885,-0.835395,-0.168848,-0.5191709999999999
1631632623894,-0.834541,-0.168787,-0.519842
1631632623904,-0.833016,-0.168116,-0.519415
1631632623914,-0.8325279999999999,-0.168299,-0.518927
1631632623923,-0.831186,-0.170129,-0.517402
1631632623933,-0.829539,-0.17019,-0.51423
1631632623942,-0.8325279999999999,-0.169092,-0.51423
1631632623952,-0.8355779999999999,-0.169031,-0.5194759999999999
1631632623962,-0.83814,-0.168909,-0.520574
1631632623971,-0.8401529999999999,-0.16439499999999999,-0.5225259999999999
1631632623981,-0.838811,-0.162992,-0.522404
1631632623990,-0.836676,-0.162504,-0.5216109999999999
1631632624000,-0.835517,-0.163541,-0.519598
1631632624010,-0.8357,-0.164151,-0.519659
1631632624019,-0.835639,-0.163297,-0.520879
1631632624029,-0.8357,-0.162138,-0.520147
1631632624038,-0.8349679999999999,-0.163541,-0.520025
1631632624048,-0.833626,-0.165371,-0.5182559999999999
1631632624058,-0.83326,-0.163358,-0.5185
1631632624067,-0.832772,-0.16287,-0.517463
1631632624077,-0.832467,-0.163053,-0.517524
1631632624086,-0.8331379999999999,-0.16287,-0.517707
1631632624096,-0.833992,-0.163114,-0.516914
1631632624106,-0.835517,-0.163602,-0.518378
1631632624115,-0.8361879999999999,-0.164273,-0.518988
1631632624125,-0.836371,-0.161345,-0.518134
1631632624134,-0.8358829999999999,-0.158051,-0.51606
1631632624144,-0.839055,-0.155794,-0.51789
1631632624154,-0.8389329999999999,-0.156404,-0.52094
1631632624163,-0.8389329999999999,-0.156831,-0.522465
1631632624173,-0.839055,-0.160125,-0.522587
1631632624182,-0.838262,-0.16226,-0.5231359999999999
1631632624192,-0.838201,-0.16500499999999999,-0.52155
1631632624202,-0.8367979999999999,-0.167628,-0.5188659999999999
1631632624211,-0.836005,-0.168543,-0.5161209999999999
1631632624221,-0.834236,-0.168604,-0.5142909999999999
1631632624230,-0.834114,-0.168055,-0.514413
1631632624240,-0.832772,-0.167506,-0.514962
1631632624250,-0.833992,-0.16744499999999998,-0.515694
1631632624259,-0.833382,-0.166469,-0.517463
1631632624269,-0.834297,-0.165432,-0.518012
1631632624278,-0.833687,-0.165127,-0.5164259999999999
1631632624288,-0.83204,-0.163724,-0.515572
1631632624298,-0.83143,-0.163846,-0.5152059999999999
1631632624307,-0.831064,-0.163785,-0.514413
1631632624317,-0.8310029999999999,-0.162138,-0.513315
1631632624326,-0.832711,-0.161406,-0.5158159999999999
1631632624336,-0.834114,-0.16104,-0.515938
1631632624346,-0.835151,-0.15975899999999998,-0.517524
1631632624355,-0.836859,-0.158783,-0.518317
1631632624365,-0.836066,-0.15884399999999999,-0.518988
1631632624374,-0.835639,-0.157563,-0.517707
1631632624384,-0.836371,-0.158173,-0.518012
1631632624394,-0.836737,-0.158783,-0.520147
1631632624403,-0.835395,-0.157502,-0.518622
1631632624413,-0.8355779999999999,-0.159027,-0.5176459999999999
1631632624422,-0.834724,-0.160918,-0.516914
1631632624432,-0.834419,-0.161345,-0.516853
1631632624442,-0.836066,-0.162992,-0.517158
1631632624451,-0.837835,-0.16500499999999999,-0.518134
1631632624461,-0.838445,-0.166103,-0.52094
1631632624470,-0.837286,-0.167079,-0.518988
1631632624480,-0.83631,-0.16713999999999998,-0.517219
1631632624490,-0.8352729999999999,-0.168238,-0.519537
1631632624499,-0.836066,-0.167811,-0.5203909999999999
1631632624509,-0.8349679999999999,-0.168177,-0.521855
1631632624518,-0.833809,-0.166591,-0.519964
1631632624528,-0.834175,-0.164273,-0.519598
1631632624538,-0.8337479999999999,-0.162504,-0.520025
1631632624547,-0.8334429999999999,-0.161406,-0.519598
1631632624557,-0.8328329999999999,-0.16104,-0.5194759999999999
1631632624566,-0.832406,-0.158722,-0.51789
1631632624576,-0.832101,-0.157685,-0.516243
1631632624586,-0.830027,-0.156526,-0.510021
1631632624595,-0.831796,-0.15329299999999998,-0.517768
1631632624605,-0.83509,-0.15372,-0.525576
1631632624614,-0.836066,-0.156892,-0.527162
1631632624624,-0.838262,-0.156282,-0.527589
1631632624634,-0.838689,-0.157014,-0.527955
1631632624643,-0.83753,-0.157441,-0.525576
1631632624653,-0.8367979999999999,-0.157807,-0.52399
1631632624662,-0.834846,-0.158417,-0.52094
1631632624672,-0.832772,-0.157624,-0.520757
1631632624682,-0.8325279999999999,-0.158356,-0.519232
1631632624691,-0.831247,-0.15792899999999999,-0.5182559999999999
1631632624701,-0.831125,-0.158417,-0.5173409999999999
1631632624710,-0.832345,-0.158295,-0.517402
1631632624720,-0.832894,-0.15945399999999998,-0.517768
1631632624730,-0.83326,-0.16006399999999998,-0.5170359999999999
1631632624739,-0.833565,-0.160918,-0.517097
1631632624749,-0.835029,-0.161467,-0.516243
1631632624758,-0.834846,-0.162077,-0.516487
1631632624768,-0.837164,-0.162748,-0.5173409999999999
1631632624778,-0.840214,-0.163724,-0.5179509999999999
1631632624787,-0.840702,-0.162565,-0.516548
1631632624797,-0.8401529999999999,-0.159271,-0.5161209999999999
1631632624806,-0.841373,-0.157136,-0.516487
1631632624816,-0.841678,-0.157502,-0.518012
1631632624826,-0.843508,-0.15738,-0.5200859999999999
1631632624835,-0.844057,-0.159027,-0.521733
1631632624845,-0.843447,-0.159088,-0.5203909999999999
1631632624854,-0.842898,-0.159881,-0.5197809999999999
1631632624864,-0.84119,-0.160857,-0.518378
1631632624874,-0.8404579999999999,-0.15884399999999999,-0.51606
1631632624883,-0.840336,-0.157319,-0.51545
1631632624893,-0.838567,-0.154879,-0.516304
1631632624902,-0.838201,-0.154025,-0.51667
1631632624912,-0.837225,-0.150548,-0.5170359999999999
1631632624922,-0.837164,-0.14945,-0.517097
1631632624931,-0.836554,-0.14774199999999998,-0.517463
1631632624941,-0.8346629999999999,-0.14701,-0.5158159999999999
1631632624950,-0.834297,-0.145424,-0.517158
1631632624960,-0.8343579999999999,-0.145058,-0.516548
1631632624970,-0.834602,-0.144265,-0.5170359999999999
1631632624979,-0.834419,-0.141764,-0.5170359999999999
1631632624989,-0.8328329999999999,-0.141825,-0.516548
1631632624998,-0.8334429999999999,-0.139446,-0.518439
1631632625008,-0.835822,-0.14091,-0.5188659999999999
1631632625018,-0.8331379999999999,-0.1403,-0.518683
1631632625027,-0.833626,-0.138348,-0.517463
1631632625037,-0.834114,-0.136518,-0.5203909999999999
1631632625046,-0.832955,-0.135664,-0.521489
1631632625056,-0.83265,-0.136518,-0.52033
1631632625066,-0.83204,-0.137677,-0.520025
1631632625075,-0.832345,-0.13847,-0.5210009999999999
1631632625085,-0.832772,-0.139446,-0.522282
1631632625094,-0.833687,-0.141398,-0.523197
1631632625104,-0.835151,-0.144143,-0.524112
1631632625114,-0.836127,-0.146034,-0.523807
1631632625123,-0.835029,-0.14701,-0.524539
1631632625133,-0.834602,-0.147254,-0.52399
1631632625142,-0.83509,-0.147071,-0.522465
1631632625152,-0.8337479999999999,-0.150121,-0.522465
1631632625162,-0.834236,-0.14896199999999998,-0.522648
1631632625171,-0.836066,-0.149206,-0.524112
1631632625181,-0.837347,-0.15006,-0.524234
1631632625190,-0.836676,-0.150304,-0.524661
1631632625200,-0.8374079999999999,-0.149755,-0.524661
1631632625210,-0.837469,-0.148718,-0.5234409999999999
1631632625219,-0.837896,-0.14865699999999998,-0.5225259999999999
1631632625229,-0.8367979999999999,-0.147254,-0.52277
1631632625238,-0.836737,-0.14682699999999999,-0.523807
1631632625248,-0.838079,-0.145302,-0.524905
1631632625258,-0.8364929999999999,-0.143716,-0.523807
1631632625267,-0.836676,-0.142435,-0.52338
1631632625277,-0.83631,-0.14097099999999999,-0.523197
1631632625286,-0.835944,-0.14066599999999999,-0.523197
1631632625296,-0.835761,-0.139446,-0.522953
1631632625306,-0.83326,-0.139324,-0.521672
1631632625315,-0.832162,-0.139934,-0.5216109999999999
1631632625325,-0.832467,-0.139629,-0.521245
1631632625334,-0.833382,-0.140605,-0.5219159999999999
1631632625344,-0.833931,-0.141764,-0.522648
1631632625354,-0.832772,-0.142374,-0.52094
1631632625363,-0.83265,-0.143411,-0.520147
1631632625373,-0.833504,-0.144021,-0.520452
1631632625382,-0.8343579999999999,-0.145607,-0.5210009999999999
1631632625392,-0.833992,-0.14652199999999999,-0.520025
1631632625402,-0.835212,-0.148596,-0.5206959999999999
1631632625411,-0.835029,-0.150792,-0.520147
1631632625421,-0.8355779999999999,-0.150548,-0.5197809999999999
1631632625430,-0.8358829999999999,-0.149633,-0.519842
1631632625440,-0.8367979999999999,-0.14835199999999998,-0.520025
1631632625450,-0.835822,-0.145241,-0.5176459999999999
1631632625459,-0.836005,-0.144143,-0.519049
1631632625469,-0.83692,-0.143289,-0.520513
1631632625478,-0.8371029999999999,-0.144204,-0.522709
1631632625488,-0.837774,-0.145546,-0.52521
1631632625498,-0.837286,-0.147803,-0.524844
1631632625507,-0.8367979999999999,-0.150243,-0.5231359999999999
1631632625517,-0.835456,-0.15311,-0.52155
1631632625526,-0.834785,-0.15311,-0.521733
1631632625536,-0.8358829999999999,-0.15237799999999999,-0.520025
1631632625546,-0.834724,-0.152744,-0.519842
1631632625555,-0.835151,-0.152927,-0.519049
1631632625565,-0.835395,-0.153171,-0.519903
1631632625574,-0.8364929999999999,-0.15372,-0.519903
1631632625584,-0.837042,-0.155428,-0.521428
1631632625594,-0.8361879999999999,-0.155794,-0.519598
1631632625603,-0.835944,-0.156221,-0.518378
1631632625613,-0.8377129999999999,-0.156343,-0.516853
1631632625622,-0.83753,-0.15616,-0.515694
1631632625632,-0.838567,-0.155855,-0.516914
1631632625642,-0.83936,-0.15512299999999998,-0.516487
1631632625651,-0.839116,-0.152744,-0.518134
1631632625661,-0.840092,-0.15128,-0.5182559999999999
1631632625670,-0.840336,-0.151402,-0.517768
1631632625680,-0.8389329999999999,-0.150182,-0.515938
1631632625690,-0.837835,-0.148901,-0.51484
1631632625699,-0.8374079999999999,-0.146888,-0.514169
1631632625709,-0.838567,-0.14713199999999999,-0.5130709999999999
1631632625718,-0.841007,-0.14713199999999999,-0.514047
1631632625728,-0.842532,-0.147559,-0.5142909999999999
1631632625738,-0.8418,-0.14865699999999998,-0.515084
1631632625747,-0.842959,-0.14743699999999998,-0.515084
1631632625757,-0.84241,-0.145424,-0.515572
1631632625766,-0.842044,-0.144387,-0.5161209999999999
1631632625776,-0.841617,-0.14274,-0.51545
1631632625786,-0.841556,-0.143167,-0.515877
1631632625795,-0.8395429999999999,-0.143228,-0.514718
1631632625805,-0.839177,-0.143655,-0.514108
1631632625814,-0.837042,-0.144326,-0.513864
1631632625824,-0.837347,-0.144265,-0.5139859999999999
1631632625834,-0.837774,-0.14457,-0.514535
1631632625843,-0.8389329999999999,-0.14579,-0.515023
1631632625853,-0.837286,-0.145851,-0.515938
1631632625862,-0.83753,-0.145363,-0.516975
1631632625872,-0.838201,-0.145912,-0.517402
1631632625882,-0.8389329999999999,-0.144692,-0.519049
1631632625891,-0.8392379999999999,-0.144814,-0.52033
1631632625901,-0.838262,-0.145668,-0.521489
1631632625910,-0.836554,-0.144509,-0.52155
1631632625920,-0.8367979999999999,-0.144448,-0.52155
1631632625930,-0.834785,-0.14457,-0.520513
1631632625939,-0.833809,-0.144936,-0.519842
1631632625949,-0.833626,-0.14701,-0.519659
1631632625958,-0.833382,-0.14823,-0.5185609999999999
1631632625968,-0.832467,-0.14896199999999998,-0.517463
1631632625978,-0.832955,-0.149999,-0.516548
1631632625987,-0.83387,-0.150609,-0.517219
1631632625997,-0.835761,-0.15006,-0.517707
1631632626006,-0.8358829999999999,-0.149877,-0.518378
1631632626016,-0.83753,-0.147193,-0.518012
1631632626026,-0.837591,-0.145851,-0.517707
1631632626035,-0.837286,-0.14743699999999998,-0.516487
1631632626045,-0.839299,-0.14743699999999998,-0.516853
1631632626054,-0.841312,-0.147376,-0.516487
1631632626064,-0.843142,-0.149328,-0.51606
1631632626074,-0.842044,-0.149206,-0.5158159999999999
1631632626083,-0.8418,-0.148718,-0.5142909999999999
1631632626093,-0.841434,-0.146034,-0.513559
1631632626102,-0.841068,-0.14310599999999998,-0.513864
1631632626112,-0.841007,-0.141398,-0.514718
1631632626122,-0.840214,-0.140422,-0.515999
1631632626131,-0.84119,-0.141215,-0.516548
1631632626141,-0.84119,-0.142252,-0.516792
1631632626150,-0.840885,-0.14518,-0.517402
1631632626160,-0.841434,-0.146949,-0.5170359999999999
1631632626170,-0.841312,-0.147071,-0.515572
1631632626179,-0.839665,-0.146766,-0.514047
1631632626189,-0.838689,-0.14682699999999999,-0.513498
1631632626198,-0.838262,-0.146278,-0.512705
1631632626208,-0.837835,-0.14804699999999998,-0.5124
1631632626218,-0.839055,-0.14884,-0.513498
1631632626227,-0.8395429999999999,-0.149694,-0.51484
1631632626237,-0.839299,-0.151524,-0.515572
1631632626246,-0.838201,-0.153232,-0.515938
1631632626256,-0.8377129999999999,-0.15311,-0.514169
1631632626266,-0.83814,-0.154086,-0.512949
1631632626275,-0.838872,-0.154147,-0.511546
1631632626285,-0.8404579999999999,-0.155733,-0.510692
1631632626294,-0.84119,-0.155611,-0.51057
1631632626304,-0.84119,-0.15420799999999998,-0.510631
1631632626314,-0.841068,-0.152622,-0.510204
1631632626323,-0.84302,-0.15128,-0.510753
1631632626333,-0.842471,-0.151524,-0.512156
1631632626342,-0.842105,-0.151219,-0.511851
1631632626352,-0.842715,-0.149328,-0.511424
1631632626362,-0.844301,-0.148535,-0.513132
1631632626371,-0.842471,-0.148169,-0.513132
1631632626381,-0.842288,-0.146278,-0.511058
1631632626390,-0.841922,-0.146644,-0.509228
1631632626400,-0.841373,-0.147498,-0.510204
1631632626410,-0.842105,-0.147498,-0.510326
1631632626419,-0.842776,-0.148718,-0.512522
1631632626429,-0.842959,-0.148169,-0.5127659999999999
1631632626438,-0.843081,-0.148718,-0.5127659999999999
1631632626448,-0.842715,-0.149389,-0.511973
1631632626458,-0.842288,-0.149572,-0.511241
1631632626467,-0.841983,-0.150121,-0.5124609999999999
1631632626477,-0.842227,-0.150121,-0.512278
1631632626486,-0.842898,-0.150121,-0.510997
1631632626496,-0.841556,-0.150914,-0.510692
1631632626506,-0.841434,-0.150426,-0.510387
1631632626515,-0.841922,-0.149816,-0.510875
1631632626525,-0.842288,-0.150609,-0.51057
1631632626534,-0.841312,-0.150304,-0.511424
1631632626544,-0.841251,-0.150182,-0.511912
1631632626554,-0.841312,-0.149145,-0.512522
1631632626563,-0.841983,-0.14926699999999998,-0.51179
1631632626573,-0.841007,-0.148291,-0.511302
1631632626582,-0.840275,-0.147559,-0.510875
1631632626592,-0.839726,-0.147254,-0.510082
1631632626602,-0.8398479999999999,-0.147071,-0.511119
1631632626611,-0.839482,-0.146888,-0.510753
1631632626621,-0.839177,-0.146888,-0.509899
1631632626630,-0.839116,-0.147193,-0.510326
1631632626640,-0.83814,-0.147864,-0.508923
1631632626650,-0.837286,-0.148718,-0.508069
1631632626659,-0.838994,-0.147986,-0.50752
1631632626669,-0.8401529999999999,-0.14804699999999998,-0.508923
1631632626678,-0.843447,-0.14926699999999998,-0.508862
1631632626688,-0.844972,-0.149633,-0.509228
1631632626698,-0.84607,-0.148901,-0.509655
1631632626707,-0.84546,-0.148596,-0.509777
1631632626717,-0.844911,-0.14865699999999998,-0.510021
1631632626726,-0.842715,-0.149755,-0.50813
1631632626736,-0.843508,-0.148901,-0.507093
1631632626746,-0.843996,-0.148901,-0.507459
1631632626755,-0.843264,-0.14762,-0.506544
1631632626765,-0.844606,-0.145363,-0.505995
1631632626774,-0.846863,-0.144265,-0.508252
1631632626784,-0.8479,-0.144936,-0.511302
1631632626794,-0.84973,-0.145241,-0.5142909999999999
1631632626803,-0.849913,-0.14621699999999999,-0.5155109999999999
1631632626813,-0.8489369999999999,-0.14823,-0.515877
1631632626822,-0.8483269999999999,-0.149694,-0.515572
1631632626832,-0.8464969999999999,-0.150121,-0.51423
1631632626842,-0.843874,-0.149328,-0.511668
1631632626851,-0.841922,-0.148718,-0.509716
1631632626861,-0.8404579999999999,-0.148169,-0.508984
1631632626870,-0.83936,-0.149084,-0.510204
1631632626880,-0.8395429999999999,-0.150426,-0.510753
1631632626890,-0.8386279999999999,-0.151524,-0.50996
1631632626899,-0.838994,-0.150792,-0.510997
1631632626909,-0.8401529999999999,-0.151036,-0.511485
1631632626918,-0.8386279999999999,-0.151402,-0.511485
1631632626928,-0.839177,-0.152134,-0.510997
1631632626938,-0.837957,-0.151768,-0.510387
1631632626947,-0.8377129999999999,-0.149999,-0.50874
1631632626957,-0.837957,-0.149633,-0.509106
1631632626966,-0.837835,-0.148474,-0.509594
1631632626976,-0.838506,-0.147559,-0.510448
1631632626986,-0.84058,-0.147498,-0.511729
1631632626995,-0.840336,-0.14896199999999998,-0.5124609999999999
1631632627005,-0.838689,-0.148779,-0.510448
1631632627014,-0.840336,-0.147681,-0.509899
1631632627024,-0.8407629999999999,-0.146034,-0.510753
1631632627034,-0.840946,-0.146095,-0.511729
1631632627043,-0.841068,-0.146705,-0.511424
1631632627053,-0.842044,-0.14762,-0.510936
1631632627062,-0.84302,-0.149694,-0.511424
1631632627072,-0.842959,-0.150548,-0.512034
1631632627082,-0.843752,-0.150548,-0.5124609999999999
1631632627091,-0.844362,-0.150853,-0.512278
1631632627101,-0.842715,-0.150182,-0.512278
1631632627110,-0.842166,-0.15207299999999999,-0.511302
1631632627120,-0.8418,-0.150731,-0.511729
1631632627130,-0.842227,-0.151341,-0.512644
1631632627139,-0.841983,-0.15207299999999999,-0.512705
1631632627149,-0.8398479999999999,-0.152744,-0.511546
1631632627158,-0.8401529999999999,-0.152256,-0.509594
1631632627168,-0.8407629999999999,-0.15268299999999999,-0.511241
1631632627178,-0.840702,-0.153537,-0.510814
1631632627187,-0.841312,-0.155428,-0.511241
1631632627197,-0.842471,-0.15451299999999998,-0.513132
1631632627206,-0.842593,-0.153537,-0.513437
1631632627216,-0.842715,-0.15420799999999998,-0.513254
1631632627226,-0.841129,-0.153964,-0.512278
1631632627235,-0.841373,-0.152134,-0.5124609999999999
1631632627245,-0.841861,-0.150975,-0.51179
1631632627254,-0.841861,-0.149877,-0.51118
1631632627264,-0.841739,-0.149389,-0.511424
1631632627274,-0.84058,-0.149328,-0.511058
1631632627283,-0.8404579999999999,-0.148596,-0.509899
1631632627293,-0.838445,-0.148108,-0.510509
1631632627302,-0.839726,-0.149389,-0.510326
1631632627312,-0.840336,-0.151036,-0.511546
1631632627322,-0.840031,-0.15128,-0.511546
1631632627331,-0.83997,-0.151829,-0.510143
1631632627341,-0.841068,-0.150975,-0.51118
1631632627350,-0.8407629999999999,-0.152134,-0.510936
1631632627360,-0.84058,-0.151585,-0.510814
1631632627370,-0.8398479999999999,-0.151158,-0.510021
1631632627379,-0.8392379999999999,-0.151097,-0.509106
1631632627389,-0.839482,-0.151585,-0.508008
1631632627398,-0.839726,-0.15237799999999999,-0.509655
1631632627408,-0.841312,-0.15433,-0.511668
1631632627418,-0.841922,-0.156282,-0.5124
1631632627427,-0.842471,-0.157563,-0.51362
1631632627437,-0.843508,-0.156099,-0.513498
1631632627446,-0.845948,-0.155855,-0.512888
1631632627456,-0.846619,-0.154086,-0.513864
1631632627466,-0.845338,-0.149084,-0.511241
1631632627475,-0.845521,-0.146888,-0.514718
1631632627485,-0.842349,-0.14823,-0.516304
1631632627494,-0.842715,-0.148718,-0.517402
1631632627504,-0.8418,-0.150609,-0.517463
1631632627514,-0.839726,-0.153354,-0.515633
1631632627523,-0.839604,-0.154757,-0.5139859999999999
1631632627533,-0.840519,-0.156953,-0.513803
1631632627542,-0.84058,-0.156648,-0.514108
1631632627552,-0.841861,-0.156465,-0.51484
1631632627562,-0.841068,-0.157624,-0.514535
1631632627571,-0.839421,-0.157014,-0.514718
1631632627581,-0.8380179999999999,-0.156404,-0.51423
1631632627590,-0.83692,-0.156526,-0.513742
1631632627600,-0.837774,-0.155733,-0.5133759999999999
1631632627610,-0.835944,-0.155733,-0.512827
1631632627619,-0.835761,-0.15481799999999998,-0.512949
1631632627629,-0.835944,-0.15512299999999998,-0.511668
1631632627638,-0.836554,-0.155489,-0.51179
1631632627648,-0.835944,-0.154635,-0.5133759999999999
1631632627658,-0.835944,-0.15268299999999999,-0.513315
1631632627667,-0.8374079999999999,-0.151463,-0.5155109999999999
1631632627677,-0.839299,-0.151524,-0.517158
1631632627686,-0.8371029999999999,-0.151402,-0.515023
1631632627696,-0.835029,-0.14835199999999998,-0.5136809999999999
1631632627706,-0.836554,-0.146339,-0.515023
1631632627715,-0.835822,-0.146766,-0.516243
1631632627725,-0.83692,-0.147254,-0.516853
1631632627734,-0.835761,-0.14823,-0.51545
1631632627744,-0.83692,-0.14865699999999998,-0.515328
1631632627754,-0.837469,-0.149755,-0.515023
1631632627763,-0.836981,-0.15311,-0.514108
1631632627773,-0.839604,-0.15494,-0.515084
1631632627782,-0.841556,-0.156221,-0.515755
1631632627792,-0.841251,-0.155977,-0.516853
1631632627802,-0.841983,-0.15433,-0.5158159999999999
1631632627811,-0.842105,-0.152805,-0.5152059999999999
1631632627821,-0.840031,-0.152927,-0.514047
1631632627830,-0.841312,-0.152622,-0.513925
1631632627840,-0.8407629999999999,-0.15298799999999999,-0.51301
1631632627850,-0.841922,-0.152012,-0.512949
1631632627859,-0.841068,-0.15207299999999999,-0.512888
1631632627869,-0.840885,-0.151097,-0.512156
1631632627878,-0.8407629999999999,-0.149816,-0.512705
1631632627888,-0.839787,-0.147986,-0.512888
1631632627898,-0.840824,-0.148169,-0.5124609999999999
1631632627907,-0.839482,-0.148474,-0.512156
1631632627917,-0.839604,-0.148291,-0.511668
1631632627926,-0.8398479999999999,-0.14835199999999998,-0.512339
1631632627936,-0.839421,-0.147864,-0.5124609999999999
1631632627946,-0.8404579999999999,-0.14762,-0.511912
1631632627955,-0.839909,-0.147376,-0.512156
1631632627965,-0.839421,-0.147498,-0.511424
1631632627974,-0.838872,-0.145424,-0.513132
1631632627984,-0.839116,-0.14518,-0.512644
1631632627994,-0.83936,-0.144936,-0.5133759999999999
1631632628003,-0.8395429999999999,-0.145668,-0.513559
1631632628013,-0.837896,-0.145058,-0.5136809999999999
1631632628022,-0.838079,-0.14743699999999998,-0.513925
1631632628032,-0.837896,-0.148291,-0.513864
1631632628042,-0.837774,-0.149877,-0.514169
1631632628051,-0.838201,-0.151646,-0.514169
1631632628061,-0.838201,-0.151341,-0.5152059999999999
1631632628070,-0.838994,-0.152927,-0.514718
1631632628080,-0.840031,-0.15311,-0.5139859999999999
1631632628090,-0.8404579999999999,-0.152744,-0.5130709999999999
1631632628099,-0.839482,-0.152866,-0.51362
1631632628109,-0.839055,-0.153049,-0.5130709999999999
1631632628118,-0.8392379999999999,-0.15298799999999999,-0.512522
1631632628128,-0.8401529999999999,-0.154635,-0.512095
1631632628138,-0.841861,-0.156038,-0.511851
1631632628147,-0.8404579999999999,-0.155916,-0.512705
1631632628157,-0.842227,-0.154269,-0.5133759999999999
1631632628166,-0.843325,-0.153659,-0.513132
1631632628176,-0.842593,-0.15128,-0.511973
1631632628186,-0.841251,-0.14884,-0.51118
1631632628195,-0.840641,-0.14774199999999998,-0.512583
1631632628205,-0.8404579999999999,-0.149328,-0.514535
1631632628214,-0.839421,-0.150548,-0.5139859999999999
1631632628224,-0.840092,-0.151097,-0.5142909999999999
1631632628234,-0.841312,-0.152622,-0.514352
1631632628243,-0.8404579999999999,-0.15329299999999998,-0.514352
1631632628253,-0.839726,-0.15451299999999998,-0.513498
1631632628262,-0.839116,-0.15298799999999999,-0.5127659999999999
1631632628272,-0.8386279999999999,-0.15433,-0.512156
1631632628282,-0.836127,-0.155855,-0.510143
1631632628291,-0.836127,-0.15390299999999998,-0.509594
1631632628301,-0.836554,-0.155428,-0.512156
1631632628310,-0.8371029999999999,-0.156587,-0.511302
1631632628320,-0.836981,-0.157502,-0.510875
1631632628330,-0.837896,-0.158905,-0.509533
1631632628339,-0.83875,-0.159332,-0.509899
1631632628349,-0.8392379999999999,-0.15914899999999998,-0.509228
1631632628358,-0.84241,-0.158722,-0.508984
1631632628368,-0.842654,-0.160186,-0.510021
1631632628378,-0.842471,-0.15792899999999999,-0.510387
1631632628387,-0.842715,-0.15512299999999998,-0.509472
1631632628397,-0.845216,-0.152866,-0.511546
1631632628406,-0.84546,-0.15298799999999999,-0.512522
1631632628416,-0.844362,-0.152012,-0.511912
1631632628426,-0.843691,-0.14884,-0.510021
1631632628435,-0.843569,-0.148535,-0.510326
1631632628445,-0.842288,-0.14896199999999998,-0.509106
1631632628454,-0.842959,-0.149694,-0.509533
1631632628464,-0.843264,-0.15067,-0.509777
1631632628474,-0.844301,-0.152439,-0.510692
1631632628483,-0.843752,-0.15311,-0.510997
1631632628493,-0.843081,-0.15433,-0.511302
1631632628502,-0.841739,-0.153842,-0.510082
1631632628512,-0.8404579999999999,-0.154391,-0.508252
1631632628522,-0.840031,-0.154696,-0.507093
1631632628531,-0.839787,-0.153354,-0.50813
1631632628541,-0.841556,-0.155001,-0.508923
1631632628550,-0.841373,-0.155794,-0.509106
1631632628560,-0.841556,-0.15512299999999998,-0.509472
1631632628570,-0.840946,-0.155428,-0.510082
1631632628579,-0.842532,-0.155428,-0.510509
1631632628589,-0.842715,-0.156221,-0.512156
1631632628598,-0.840702,-0.157441,-0.510692
1631632628608,-0.839299,-0.157014,-0.509716
1631632628618,-0.840031,-0.157868,-0.508679
1631632628627,-0.840641,-0.157868,-0.508191
1631632628637,-0.841495,-0.157197,-0.508069
1631632628646,-0.840336,-0.158173,-0.506971
1631632628656,-0.841495,-0.157014,-0.507154
1631632628666,-0.843081,-0.157441,-0.509167
1631632628675,-0.843813,-0.156587,-0.508313
1631632628685,-0.844911,-0.155672,-0.508801
1631632628694,-0.845399,-0.156038,-0.508801
1631632628704,-0.8464969999999999,-0.155489,-0.511363
1631632628714,-0.844972,-0.15359799999999998,-0.509899
1631632628723,-0.843813,-0.152866,-0.509167
1631632628733,-0.84302,-0.15298799999999999,-0.508862
1631632628742,-0.842227,-0.153171,-0.507154
1631632628752,-0.840275,-0.153354,-0.505141
1631632628762,-0.83997,-0.153354,-0.504714
1631632628771,-0.842227,-0.154025,-0.505385
1631632628781,-0.843508,-0.154452,-0.505263
1631632628790,-0.844179,-0.155672,-0.507886
1631632628800,-0.844789,-0.156709,-0.507032
1631632628810,-0.844545,-0.156038,-0.506117
1631632628819,-0.84546,-0.15433,-0.505751
1631632628829,-0.844911,-0.154391,-0.504958
1631632628838,-0.845399,-0.155184,-0.505629
1631632628848,-0.845948,-0.154635,-0.505385
1631632628858,-0.845094,-0.152866,-0.504958
1631632628867,-0.84607,-0.152561,-0.504958
1631632628877,-0.845338,-0.150975,-0.504653
1631632628886,-0.843813,-0.14743699999999998,-0.502762
1631632628896,-0.843325,-0.143838,-0.502884
1631632628906,-0.843325,-0.142984,-0.503738
1631632628915,-0.844362,-0.14274,-0.503616
1631632628925,-0.845094,-0.142984,-0.505263
1631632628934,-0.845521,-0.145058,-0.506178
1631632628944,-0.846375,-0.147376,-0.507703
1631632628954,-0.846436,-0.149145,-0.506849
1631632628963,-0.845521,-0.14926699999999998,-0.50386
1631632628973,-0.845155,-0.149816,-0.503067
1631632628982,-0.845033,-0.149328,-0.502274
1631632628992,-0.845094,-0.149755,-0.502396
1631632629002,-0.845094,-0.150548,-0.503494
1631632629011,-0.845582,-0.15128,-0.504958
1631632629021,-0.845826,-0.152134,-0.503921
1631632629030,-0.845277,-0.153354,-0.504531
1631632629040,-0.845887,-0.154452,-0.504104
1631632629050,-0.84607,-0.154391,-0.502213
1631632629059,-0.845521,-0.155184,-0.502396
1631632629069,-0.846253,-0.154635,-0.502152
1631632629078,-0.847473,-0.15512299999999998,-0.502152
1631632629088,-0.847839,-0.154269,-0.502274
1631632629098,-0.847534,-0.152439,-0.502091
1631632629107,-0.847778,-0.151036,-0.502152
1631632629117,-0.845765,-0.148901,-0.503006
1631632629126,-0.846924,-0.147803,-0.503128
1631632629136,-0.846558,-0.14884,-0.50264
1631632629146,-0.845399,-0.14823,-0.501847
1631632629155,-0.84668,-0.146949,-0.501847
1631632629165,-0.847778,-0.147254,-0.502518
1631632629174,-0.846924,-0.146583,-0.502518
1631632629184,-0.84668,-0.145485,-0.501603
1631632629194,-0.845887,-0.146095,-0.500322
1631632629203,-0.846619,-0.146644,-0.501298
1631632629213,-0.846863,-0.147193,-0.501786
1631632629222,-0.84729,-0.146766,-0.501664
1631632629232,-0.846863,-0.147254,-0.501664
1631632629242,-0.845582,-0.14743699999999998,-0.500505
1631632629251,-0.8477169999999999,-0.14774199999999998,-0.500078
1631632629261,-0.848388,-0.147559,-0.501786
1631632629270,-0.8501569999999999,-0.148169,-0.502518
1631632629280,-0.850401,-0.14945,-0.501786
1631632629290,-0.850706,-0.149023,-0.501786
1631632629299,-0.850279,-0.149389,-0.50142
1631632629309,-0.850035,-0.149328,-0.501725
1631632629318,-0.849425,-0.149084,-0.501298
1631632629328,-0.848388,-0.148779,-0.50081
1631632629338,-0.849364,-0.14865699999999998,-0.499834
1631632629347,-0.849181,-0.148779,-0.49977299999999997
1631632629357,-0.8492419999999999,-0.14896199999999998,-0.500688
1631632629366,-0.849181,-0.149572,-0.500322
1631632629376,-0.8480219999999999,-0.149755,-0.499712
1631632629386,-0.8492419999999999,-0.14945,-0.499712
1631632629395,-0.8489369999999999,-0.15006,-0.500444
1631632629405,-0.8489369999999999,-0.150121,-0.500688
1631632629414,-0.847656,-0.149877,-0.501115
1631632629424,-0.847473,-0.149206,-0.500688
1631632629434,-0.84729,-0.150426,-0.500017
1631632629443,-0.84729,-0.150365,-0.499529
1631632629453,-0.846375,-0.15006,-0.499651
1631632629462,-0.847168,-0.149206,-0.49946799999999997
1631632629472,-0.847656,-0.148474,-0.500322
1631632629482,-0.846436,-0.14896199999999998,-0.499956
1631632629491,-0.84607,-0.148413,-0.499712
1631632629501,-0.845948,-0.149816,-0.498187
1631632629510,-0.845338,-0.151646,-0.498492
1631632629520,-0.845582,-0.152744,-0.497394
1631632629530,-0.847656,-0.154635,-0.497821
1631632629539,-0.848205,-0.155611,-0.498126
1631632629549,-0.848754,-0.155306,-0.499041
1631632629558,-0.851011,-0.15494,-0.497394
1631632629568,-0.8507669999999999,-0.154696,-0.496174
1631632629578,-0.851194,-0.155062,-0.495747
1631632629587,-0.850706,-0.155367,-0.496174
1631632629597,-0.851316,-0.155306,-0.495381
1631632629606,-0.852414,-0.155733,-0.496052
1631632629616,-0.85217,-0.15494,-0.495869
1631632629626,-0.852109,-0.155001,-0.49580799999999997
1631632629635,-0.852353,-0.153781,-0.496174
1631632629645,-0.852414,-0.150243,-0.495015
1631632629654,-0.8522919999999999,-0.148779,-0.496479
1631632629664,-0.85278,-0.147925,-0.497211
1631632629674,-0.85278,-0.146766,-0.49855299999999997
1631632629683,-0.8535119999999999,-0.148413,-0.501359
1631632629693,-0.854244,-0.149755,-0.502518
1631632629702,-0.853756,-0.151524,-0.50264
1631632629712,-0.851743,-0.150304,-0.500505
1631632629722,-0.849974,-0.149999,-0.497089
1631632629731,-0.848388,-0.14945,-0.495564
1631632629741,-0.847473,-0.150731,-0.496906
1631632629750,-0.8464969999999999,-0.15128,-0.496845
1631632629760,-0.846924,-0.151646,-0.498797
1631632629770,-0.8468019999999999,-0.152744,-0.499041
1631632629779,-0.847656,-0.15390299999999998,-0.5002
1631632629789,-0.847168,-0.154635,-0.49824799999999997
1631632629798,-0.847961,-0.15481799999999998,-0.497272
1631632629808,-0.847046,-0.154696,-0.498126
1631632629818,-0.847595,-0.15481799999999998,-0.497577
1631632629827,-0.8468019999999999,-0.153537,-0.497089
1631632629837,-0.84729,-0.15207299999999999,-0.498004
1631632629846,-0.847229,-0.151707,-0.499224
1631632629856,-0.8474119999999999,-0.150731,-0.499102
1631632629866,-0.8468019999999999,-0.14865699999999998,-0.499102
1631632629875,-0.848266,-0.148474,-0.499285
1631632629885,-0.84851,-0.148718,-0.501176
1631632629894,-0.847839,-0.150731,-0.501298
1631632629904,-0.846863,-0.149816,-0.499224
1631632629914,-0.8489369999999999,-0.14713199999999999,-0.500383
1631632629923,-0.850035,-0.146888,-0.502152
1631632629933,-0.849364,-0.14713199999999999,-0.500749
1631632629942,-0.848449,-0.146583,-0.499956
1631632629952,-0.847046,-0.149084,-0.500322
1631632629962,-0.84607,-0.150548,-0.49946799999999997
1631632629971,-0.8464969999999999,-0.151402,-0.499285
1631632629981,-0.847473,-0.151524,-0.5002
1631632629990,-0.849181,-0.152561,-0.50142
1631632630000,-0.848998,-0.153049,-0.502762
1631632630010,-0.849974,-0.153232,-0.503616
1631632630019,-0.848754,-0.153415,-0.50325
1631632630029,-0.848144,-0.153171,-0.502457
1631632630038,-0.848144,-0.151707,-0.502701
1631632630048,-0.848266,-0.151707,-0.503616
1631632630058,-0.847046,-0.151951,-0.503067
1631632630067,-0.847046,-0.152012,-0.502274
1631632630077,-0.847229,-0.152195,-0.503189
1631632630086,-0.845826,-0.153415,-0.502823
1631632630096,-0.843996,-0.152134,-0.502762
1631632630106,-0.84302,-0.153537,-0.501725
1631632630115,-0.843813,-0.152622,-0.501603
1631632630125,-0.845704,-0.15311,-0.502701
1631632630134,-0.846558,-0.15372,-0.503982
1631632630144,-0.846436,-0.153537,-0.504104
1631632630154,-0.84607,-0.153171,-0.503982
1631632630163,-0.846131,-0.153781,-0.503677
1631632630173,-0.845826,-0.152622,-0.503738
1631632630182,-0.844362,-0.151524,-0.503555
1631632630192,-0.843325,-0.151158,-0.503067
1631632630202,-0.844484,-0.150182,-0.501969
1631632630211,-0.84485,-0.150792,-0.502762
1631632630221,-0.846436,-0.151219,-0.503189
1631632630230,-0.845826,-0.153476,-0.501359
1631632630240,-0.84607,-0.15311,-0.501298
1631632630250,-0.846985,-0.15512299999999998,-0.501481
1631632630259,-0.846924,-0.15420799999999998,-0.50264
1631632630269,-0.845948,-0.153537,-0.501115
1631632630278,-0.845948,-0.15311,-0.501115
1631632630288,-0.8464969999999999,-0.152622,-0.500627
1631632630298,-0.846558,-0.152927,-0.500261
1631632630307,-0.847046,-0.153171,-0.500444
1631632630317,-0.847656,-0.154086,-0.500566
1631632630326,-0.8479,-0.15494,-0.501908
1631632630336,-0.848205,-0.153964,-0.501969
1631632630346,-0.848083,-0.153415,-0.501542
1631632630355,-0.847046,-0.15268299999999999,-0.500566
1631632630365,-0.847778,-0.151951,-0.500444
1631632630374,-0.847534,-0.151402,-0.499834
1631632630384,-0.846131,-0.151158,-0.49959
1631632630394,-0.846558,-0.152439,-0.49855299999999997
1631632630403,-0.8471069999999999,-0.15189,-0.49855299999999997
1631632630413,-0.846619,-0.15311,-0.500322
1631632630422,-0.84668,-0.153964,-0.501359
1631632630432,-0.848144,-0.153232,-0.503128
1631632630442,-0.8479,-0.1525,-0.502457
1631632630451,-0.848266,-0.153537,-0.5002
1631632630461,-0.848388,-0.150731,-0.499346
1631632630470,-0.848144,-0.14823,-0.499224
1631632630480,-0.848144,-0.14884,-0.50142
1631632630490,-0.848571,-0.150609,-0.503067
1631632630499,-0.8479,-0.151707,-0.504592
1631632630509,-0.848754,-0.152622,-0.504592
1631632630518,-0.846985,-0.154696,-0.503372
1631632630528,-0.846619,-0.156221,-0.502274
1631632630538,-0.8461919999999999,-0.156221,-0.500932
1631632630547,-0.84546,-0.156465,-0.501115
1631632630557,-0.845155,-0.155611,-0.500932
1631632630566,-0.844118,-0.157624,-0.500078
1631632630576,-0.845948,-0.15823399999999999,-0.50081
1631632630586,-0.846558,-0.160003,-0.501603
1631632630595,-0.846314,-0.160735,-0.501847
1631632630605,-0.84607,-0.160796,-0.502762
1631632630614,-0.84607,-0.160308,-0.501847
1631632630624,-0.84546,-0.160125,-0.500871
1631632630634,-0.844728,-0.15884399999999999,-0.501054
1631632630643,-0.84546,-0.157258,-0.500444
1631632630653,-0.845582,-0.156282,-0.501542
1631632630662,-0.845643,-0.155306,-0.503311
1631632630672,-0.845643,-0.15311,-0.503189
1631632630682,-0.846253,-0.15329299999999998,-0.503494
1631632630691,-0.847656,-0.154025,-0.504531
1631632630701,-0.845338,-0.15372,-0.502579
1631632630710,-0.844362,-0.151646,-0.500871
1631632630720,-0.844911,-0.149938,-0.500383
1631632630730,-0.844179,-0.150548,-0.502884
1631632630739,-0.843325,-0.151707,-0.501725
1631632630749,-0.843935,-0.151646,-0.501969
1631632630758,-0.844728,-0.15359799999999998,-0.502518
1631632630768,-0.84546,-0.154025,-0.502945
1631632630778,-0.847656,-0.154757,-0.502945
1631632630787,-0.847656,-0.155001,-0.503372
1631632630797,-0.847961,-0.155245,-0.503616
1631632630806,-0.848205,-0.15451299999999998,-0.503921
1631632630816,-0.847473,-0.154696,-0.504043
1631632630826,-0.84729,-0.153842,-0.503982
1631632630835,-0.845948,-0.153232,-0.503494
1631632630845,-0.846131,-0.153171,-0.502396
1631632630854,-0.84607,-0.154025,-0.502762
1631632630864,-0.845399,-0.154147,-0.502579
1631632630874,-0.845094,-0.155062,-0.503067
1631632630883,-0.84546,-0.15494,-0.502579
1631632630893,-0.845704,-0.156648,-0.501908
1631632630902,-0.845521,-0.156831,-0.501969
1631632630912,-0.8461919999999999,-0.155611,-0.501969
1631632630922,-0.846863,-0.155428,-0.502823
1631632630931,-0.845887,-0.154452,-0.502274
1631632630941,-0.845704,-0.154391,-0.502518
1631632630950,-0.8461919999999999,-0.154025,-0.501908
1631632630960,-0.845765,-0.153659,-0.502701
1631632630970,-0.84546,-0.152927,-0.503433
1631632630979,-0.845216,-0.151524,-0.502884
1631632630989,-0.843874,-0.149877,-0.502518
1631632630998,-0.843203,-0.14884,-0.502457
1631632631008,-0.842593,-0.148535,-0.500749
1631632631018,-0.844057,-0.14945,-0.501542
1631632631027,-0.845277,-0.15067,-0.500688
1631632631037,-0.845277,-0.150853,-0.501969
1631632631046,-0.845582,-0.152622,-0.50203
1631632631056,-0.846253,-0.152622,-0.499956
1631632631066,-0.845704,-0.1525,-0.5002
1631632631075,-0.845704,-0.152012,-0.49885799999999997
1631632631085,-0.847839,-0.15268299999999999,-0.499346
1631632631094,-0.8477169999999999,-0.151951,-0.49855299999999997
1631632631104,-0.8486319999999999,-0.153537,-0.499041
1631632631114,-0.849791,-0.15268299999999999,-0.499102
1631632631123,-0.8498519999999999,-0.154086,-0.499285
1631632631133,-0.851865,-0.155001,-0.500261
1631632631142,-0.852658,-0.155306,-0.499956
1631632631152,-0.851499,-0.15372,-0.499834
1631632631162,-0.849974,-0.153659,-0.499285
1631632631171,-0.849608,-0.15359799999999998,-0.498187
1631632631181,-0.849974,-0.153476,-0.49763799999999997
1631632631190,-0.84973,-0.154025,-0.498736
1631632631200,-0.8504619999999999,-0.155184,-0.498675
1631632631210,-0.84973,-0.155977,-0.499224
1631632631219,-0.850828,-0.156953,-0.499651
1631632631229,-0.849425,-0.157258,-0.500688
1631632631238,-0.847656,-0.155733,-0.499285
1631632631248,-0.8471069999999999,-0.154147,-0.500017
1631632631258,-0.845765,-0.150853,-0.498065
1631632631267,-0.84546,-0.14804699999999998,-0.49763799999999997
1631632631277,-0.844789,-0.146278,-0.500444
1631632631286,-0.84424,-0.14743699999999998,-0.501298
1631632631296,-0.845582,-0.148413,-0.502152
1631632631306,-0.845033,-0.149572,-0.503372
1631632631315,-0.844911,-0.152012,-0.503128
1631632631325,-0.844545,-0.15372,-0.501542
1631632631334,-0.841983,-0.15512299999999998,-0.49763799999999997
1631632631344,-0.841556,-0.15433,-0.49593
1631632631354,-0.840946,-0.155611,-0.49580799999999997
1631632631363,-0.841373,-0.157197,-0.495076
1631632631373,-0.843935,-0.159027,-0.496235
1631632631382,-0.846375,-0.160735,-0.499346
1631632631392,-0.849364,-0.162748,-0.50142
1631632631402,-0.850584,-0.164334,-0.501054
1631632631411,-0.851865,-0.16408999999999999,-0.499651
1631632631421,-0.8507669999999999,-0.164578,-0.498126
1631632631430,-0.850218,-0.164212,-0.496906
1631632631440,-0.850828,-0.162809,-0.497089
1631632631450,-0.849425,-0.162199,-0.497394
1631632631459,-0.849486,-0.160918,-0.49776
1631632631469,-0.849791,-0.16104,-0.497516
1631632631478,-0.849486,-0.160125,-0.49702799999999997
1631632631488,-0.849791,-0.159576,-0.497516
1631632631498,-0.850645,-0.15982,-0.49824799999999997
1631632631507,-0.850523,-0.162138,-0.498309
1631632631517,-0.848449,-0.162138,-0.497089
1631632631526,-0.8468019999999999,-0.160796,-0.497577
1631632631536,-0.847534,-0.15945399999999998,-0.499224
1631632631546,-0.848693,-0.158722,-0.498675
1631632631555,-0.847656,-0.158051,-0.49898
1631632631565,-0.8474119999999999,-0.158905,-0.497577
1631632631574,-0.8477169999999999,-0.160613,-0.498431
1631632631584,-0.847473,-0.159698,-0.498919
1631632631594,-0.8471069999999999,-0.160003,-0.499224
1631632631603,-0.84729,-0.160125,-0.499346
1631632631613,-0.8479,-0.158783,-0.499224
1631632631622,-0.847473,-0.158905,-0.49855299999999997
1631632631632,-0.847229,-0.16043,-0.498065
1631632631642,-0.847351,-0.160125,-0.49794299999999997
1631632631651,-0.848449,-0.15884399999999999,-0.497699
1631632631661,-0.8479,-0.158112,-0.49672299999999997
1631632631670,-0.848998,-0.158173,-0.49654
1631632631680,-0.850218,-0.158478,-0.496906
1631632631690,-0.850828,-0.157563,-0.496479
1631632631699,-0.850279,-0.157868,-0.49550299999999997
1631632631709,-0.850218,-0.156953,-0.495076
1631632631718,-0.850401,-0.157136,-0.496296
1631632631728,-0.850706,-0.157685,-0.495625
1631632631738,-0.850828,-0.15677,-0.495381
1631632631747,-0.8507669999999999,-0.156404,-0.496662
1631632631757,-0.851011,-0.156282,-0.495564
1631632631766,-0.851316,-0.156221,-0.49641799999999997
1631632631776,-0.851499,-0.156404,-0.496601
1631632631786,-0.850584,-0.155611,-0.495259
1631632631795,-0.851133,-0.155001,-0.494832
1631632631805,-0.85095,-0.15677,-0.494954
1631632631814,-0.8504619999999999,-0.15616,-0.494832
1631632631824,-0.850584,-0.155916,-0.494954
1631632631834,-0.85034,-0.155977,-0.494649
1631632631843,-0.849974,-0.155794,-0.4941
1631632631853,-0.849791,-0.156038,-0.493978
1631632631862,-0.849303,-0.155489,-0.495259
1631632631872,-0.8495469999999999,-0.155489,-0.494527
1631632631882,-0.8504619999999999,-0.156526,-0.49532
1631632631891,-0.849364,-0.156282,-0.494832
1631632631901,-0.8486319999999999,-0.155428,-0.49519799999999997
1631632631910,-0.850218,-0.156099,-0.49355099999999996
1631632631920,-0.848693,-0.156526,-0.494222
1631632631930,-0.850279,-0.158112,-0.493795
1631632631939,-0.850828,-0.158173,-0.493673
1631632631949,-0.8510719999999999,-0.158051,-0.494466
1631632631958,-0.851133,-0.157502,-0.49489299999999997
1631632631968,-0.851316,-0.157136,-0.494344
1631632631978,-0.8510719999999999,-0.157258,-0.49349
1631632631987,-0.851621,-0.15738,-0.492392
1631632631997,-0.8510719999999999,-0.158966,-0.49288
1631632632006,-0.851011,-0.16006399999999998,-0.491782
1631632632016,-0.850523,-0.159698,-0.491355
1631632632026,-0.852048,-0.159698,-0.49202599999999996
1631632632035,-0.851865,-0.159698,-0.49233099999999996
1631632632045,-0.8513769999999999,-0.157258,-0.492392
1631632632054,-0.851865,-0.152866,-0.491172
1631632632064,-0.853451,-0.152256,-0.493856
1631632632074,-0.852963,-0.151097,-0.493917
1631632632083,-0.852963,-0.151524,-0.495076
1631632632093,-0.853024,-0.15298799999999999,-0.49519799999999997
1631632632102,-0.851926,-0.15420799999999998,-0.49593
1631632632112,-0.852475,-0.155489,-0.49641799999999997
1631632632122,-0.851743,-0.155306,-0.495076
1631632632131,-0.85217,-0.156038,-0.494466
1631632632141,-0.850523,-0.157014,-0.492453
1631632632150,-0.850096,-0.158478,-0.49294099999999996
1631632632160,-0.8501569999999999,-0.158722,-0.492697
1631632632170,-0.8516819999999999,-0.159698,-0.492453
1631632632179,-0.850279,-0.160491,-0.493978
1631632632189,-0.849974,-0.16067399999999998,-0.494344
1631632632198,-0.850218,-0.16128399999999998,-0.494161
1631632632208,-0.849791,-0.160857,-0.494161
1631632632218,-0.849974,-0.159332,-0.49202599999999996
1631632632227,-0.850279,-0.15982,-0.491904
1631632632237,-0.850401,-0.159698,-0.490989
1631632632246,-0.849608,-0.1586,-0.49105
1631632632256,-0.850523,-0.1586,-0.492697
1631632632266,-0.850218,-0.15823399999999999,-0.49263599999999996
1631632632275,-0.849974,-0.158478,-0.493917
1631632632285,-0.850401,-0.158722,-0.491538
1631632632294,-0.851499,-0.158478,-0.492392
1631632632304,-0.851194,-0.158966,-0.492819
1631632632314,-0.84973,-0.1586,-0.494405
1631632632323,-0.8516819999999999,-0.156038,-0.493612
1631632632333,-0.850706,-0.15372,-0.493734
1631632632342,-0.851194,-0.152622,-0.492758
1631632632352,-0.849974,-0.151768,-0.492575
1631632632362,-0.8495469999999999,-0.153049,-0.493002
1631632632371,-0.85034,-0.154147,-0.493002
1631632632381,-0.850706,-0.155428,-0.494832
1631632632390,-0.850584,-0.155001,-0.49458799999999997
1631632632400,-0.85095,-0.15555,-0.494283
1631632632410,-0.8510719999999999,-0.156587,-0.494344
1631632632419,-0.850584,-0.15738,-0.492148
1631632632429,-0.852475,-0.15823399999999999,-0.492392
1631632632438,-0.85522,-0.158295,-0.4941
1631632632448,-0.856074,-0.157807,-0.495869
1631632632458,-0.855159,-0.15677,-0.49489299999999997
1631632632467,-0.854915,-0.155916,-0.494649
1631632632477,-0.8550369999999999,-0.154757,-0.493978
1631632632486,-0.8541219999999999,-0.154452,-0.493307
1631632632496,-0.854,-0.154391,-0.49233099999999996
1631632632506,-0.853024,-0.153537,-0.493002
1631632632515,-0.853085,-0.153049,-0.493185
1631632632525,-0.85278,-0.151524,-0.493124
1631632632534,-0.851621,-0.151768,-0.493124
1631632632544,-0.851316,-0.151646,-0.491843
1631632632554,-0.8501569999999999,-0.152012,-0.492209
1631632632563,-0.8504619999999999,-0.151341,-0.492514
1631632632573,-0.850218,-0.151402,-0.49355099999999996
1631632632582,-0.849974,-0.15189,-0.493185
1631632632592,-0.849486,-0.151158,-0.492453
1631632632602,-0.850645,-0.151524,-0.491355
1631632632611,-0.85278,-0.151036,-0.493307
1631632632621,-0.851621,-0.152744,-0.492758
1631632632630,-0.851316,-0.15390299999999998,-0.493673
1631632632640,-0.8510719999999999,-0.154574,-0.494222
1631632632650,-0.850706,-0.15420799999999998,-0.493673
1631632632659,-0.851194,-0.154086,-0.492758
1631632632669,-0.850645,-0.15512299999999998,-0.493856
1631632632678,-0.849364,-0.154757,-0.493368
1631632632688,-0.849303,-0.154147,-0.493307
1631632632698,-0.848998,-0.15420799999999998,-0.493185
1631632632707,-0.8483269999999999,-0.155367,-0.493124
1631632632717,-0.848205,-0.157136,-0.49349
1631632632726,-0.850096,-0.15799,-0.493124
1631632632736,-0.850035,-0.158905,-0.493673
1631632632746,-0.851865,-0.158417,-0.4941
1631632632755,-0.850706,-0.158905,-0.493795
1631632632765,-0.851133,-0.158966,-0.493734
1631632632774,-0.851316,-0.15853899999999999,-0.492209
1631632632784,-0.852048,-0.160125,-0.492148
1631632632794,-0.851926,-0.160613,-0.492209
1631632632803,-0.852536,-0.160552,-0.49324599999999996
1631632632813,-0.852841,-0.16165,-0.493734
1631632632822,-0.853634,-0.162077,-0.49532
1631632632832,-0.8535119999999999,-0.161406,-0.495381
1631632632842,-0.851438,-0.160552,-0.495442
1631632632851,-0.8510719999999999,-0.156099,-0.493063
1631632632861,-0.8501569999999999,-0.153415,-0.49141599999999996
1631632632870,-0.850828,-0.152195,-0.493002
1631632632880,-0.85095,-0.153964,-0.494527
1631632632890,-0.851255,-0.15555,-0.49532
1631632632899,-0.8525969999999999,-0.156953,-0.497882
1631632632909,-0.852536,-0.159271,-0.498492
1631632632918,-0.8525969999999999,-0.160491,-0.49641799999999997
1631632632928,-0.852719,-0.161223,-0.495869
1631632632938,-0.852048,-0.16043,-0.495442
1631632632947,-0.849669,-0.16104,-0.494344
1631632632957,-0.849303,-0.160735,-0.493978
1631632632966,-0.8471069999999999,-0.16097899999999998,-0.492819
1631632632976,-0.846314,-0.160918,-0.493795
1631632632986,-0.847229,-0.160796,-0.49471
1631632632995,-0.8477169999999999,-0.16128399999999998,-0.49532
1631632633005,-0.8479,-0.160796,-0.49519799999999997
1631632633014,-0.848144,-0.160735,-0.494161
1631632633024,-0.847168,-0.160796,-0.49349
1631632633034,-0.847351,-0.158478,-0.494161
1631632633043,-0.848083,-0.156831,-0.493917
1631632633053,-0.8492419999999999,-0.155245,-0.496296
1631632633062,-0.851011,-0.15329299999999998,-0.497211
1631632633072,-0.848754,-0.152256,-0.497516
1631632633082,-0.851011,-0.151158,-0.497882
1631632633091,-0.85034,-0.150426,-0.49763799999999997
1631632633101,-0.850706,-0.150487,-0.496296
1631632633110,-0.847961,-0.150304,-0.49532
1631632633120,-0.847839,-0.149084,-0.494405
1631632633130,-0.848815,-0.14774199999999998,-0.496052
1631632633139,-0.848144,-0.14774199999999998,-0.495259
1631632633149,-0.848754,-0.14835199999999998,-0.495564
1631632633158,-0.848571,-0.149145,-0.495625
1631632633168,-0.849059,-0.150487,-0.495991
1631632633178,-0.850035,-0.150914,-0.497211
1631632633187,-0.85034,-0.151158,-0.49733299999999997
1631632633197,-0.851743,-0.151585,-0.499285
1631632633206,-0.852475,-0.15128,-0.49837
1631632633216,-0.8516819999999999,-0.150731,-0.498126
1631632633226,-0.851438,-0.151097,-0.498431
1631632633235,-0.85217,-0.150914,-0.499102
1631632633245,-0.851926,-0.15128,-0.499895
1631632633254,-0.851133,-0.150792,-0.499651
1631632633264,-0.850096,-0.152012,-0.498492
1631632633274,-0.849608,-0.152012,-0.49837
1631632633283,-0.8489369999999999,-0.15006,-0.498065
1631632633293,-0.84851,-0.150731,-0.499102
1631632633302,-0.8489369999999999,-0.151463,-0.49837
1631632633312,-0.847839,-0.151951,-0.49794299999999997
1631632633322,-0.8489369999999999,-0.151829,-0.498492
1631632633331,-0.84912,-0.151402,-0.499102
1631632633341,-0.84973,-0.15207299999999999,-0.49916299999999997
1631632633350,-0.849425,-0.15128,-0.498797
1631632633360,-0.847595,-0.150548,-0.49837
1631632633370,-0.848083,-0.150426,-0.499102
1631632633379,-0.8479,-0.148779,-0.49959
1631632633389,-0.84729,-0.150304,-0.49837
1631632633398,-0.846619,-0.149206,-0.498614
1631632633408,-0.847534,-0.150365,-0.498919
1631632633418,-0.8479,-0.150914,-0.49885799999999997
1631632633427,-0.847473,-0.152622,-0.497699
1631632633437,-0.847473,-0.153964,-0.498065
1631632633446,-0.847351,-0.153964,-0.49715
1631632633456,-0.8479,-0.155794,-0.498492
1631632633466,-0.846863,-0.157014,-0.497882
1631632633475,-0.846558,-0.157807,-0.496967
1631632633485,-0.8479,-0.15884399999999999,-0.498004
1631632633494,-0.848083,-0.158356,-0.497516
1631632633504,-0.8474119999999999,-0.157319,-0.496357
1631632633514,-0.847046,-0.157075,-0.49702799999999997
1631632633523,-0.847046,-0.157441,-0.496784
1631632633533,-0.84668,-0.157685,-0.496174
1631632633542,-0.848388,-0.159027,-0.49715
1631632633552,-0.849486,-0.160796,-0.498004
1631632633562,-0.850279,-0.163297,-0.498065
1631632633571,-0.850706,-0.164273,-0.49885799999999997
1631632633581,-0.850584,-0.163053,-0.498797
1631632633590,-0.84973,-0.16165,-0.49763799999999997
1631632633600,-0.849425,-0.159271,-0.49550299999999997
1631632633610,-0.8492419999999999,-0.156526,-0.493856
1631632633619,-0.8498519999999999,-0.156465,-0.49702799999999997
1631632633629,-0.850096,-0.15799,-0.499102
1631632633638,-0.849669,-0.160552,-0.49946799999999997
1631632633648,-0.848693,-0.16067399999999998,-0.499041
1631632633658,-0.848083,-0.161528,-0.49794299999999997
1631632633667,-0.847595,-0.163297,-0.497577
1631632633677,-0.846436,-0.163053,-0.495381
1631632633686,-0.847229,-0.163541,-0.495747
1631632633696,-0.846375,-0.16408999999999999,-0.495747
1631632633706,-0.8483269999999999,-0.163602,-0.496784
1631632633715,-0.848205,-0.162443,-0.496479
1631632633725,-0.8474119999999999,-0.161711,-0.49794299999999997
1631632633734,-0.8474119999999999,-0.161101,-0.498309
1631632633744,-0.846558,-0.161528,-0.496601
1631632633754,-0.845826,-0.160186,-0.496662
1631632633763,-0.846924,-0.16006399999999998,-0.495686
1631632633773,-0.846924,-0.159637,-0.49641799999999997
1631632633782,-0.848083,-0.15921,-0.496601
1631632633792,-0.848144,-0.157502,-0.49654
1631632633802,-0.8479,-0.156709,-0.49715
1631632633811,-0.8489369999999999,-0.15481799999999998,-0.496662
1631632633821,-0.849059,-0.15390299999999998,-0.497272
1631632633830,-0.849303,-0.152439,-0.496601
1631632633840,-0.849486,-0.151585,-0.497882
1631632633850,-0.8489369999999999,-0.152561,-0.49715
1631632633859,-0.848205,-0.150853,-0.49654
1631632633869,-0.847351,-0.15067,-0.496662
1631632633878,-0.848449,-0.149938,-0.498004
1631632633888,-0.8498519999999999,-0.149694,-0.498187
1631632633898,-0.8504619999999999,-0.150853,-0.49763799999999997
1631632633907,-0.850218,-0.151463,-0.49715
1631632633917,-0.851255,-0.151951,-0.498797
1631632633926,-0.852658,-0.152927,-0.49898
1631632633936,-0.85278,-0.153354,-0.498736
1631632633946,-0.853146,-0.15372,-0.498919
1631632633955,-0.852109,-0.153354,-0.499285
1631632633965,-0.85217,-0.153842,-0.499651
1631632633974,-0.8516819999999999,-0.153232,-0.498675
1631632633984,-0.851316,-0.153842,-0.49898
1631632633994,-0.8495469999999999,-0.153964,-0.49519799999999997
1631632634003,-0.849181,-0.154269,-0.495564
1631632634013,-0.850035,-0.154574,-0.495381
1631632634022,-0.851804,-0.15433,-0.496601
1631632634032,-0.851316,-0.153659,-0.496174
1631632634042,-0.85095,-0.152927,-0.496174
1631632634051,-0.850706,-0.151402,-0.495625
1631632634061,-0.850584,-0.15067,-0.495747
1631632634070,-0.85034,-0.150548,-0.49593
1631632634080,-0.8498519999999999,-0.15006,-0.495686
1631632634090,-0.8501569999999999,-0.148718,-0.49550299999999997
1631632634099,-0.849425,-0.147864,-0.495259
1631632634109,-0.8486319999999999,-0.14774199999999998,-0.494161
1631632634118,-0.847656,-0.147498,-0.493307
1631632634128,-0.8477169999999999,-0.14762,-0.494161
1631632634138,-0.849364,-0.14884,-0.495076
1631632634147,-0.8495469999999999,-0.14884,-0.495015
1631632634157,-0.849669,-0.149084,-0.495564
1631632634166,-0.848693,-0.14884,-0.495442
1631632634176,-0.8486319999999999,-0.150121,-0.494832
1631632634186,-0.84851,-0.151219,-0.493917
1631632634195,-0.848754,-0.151646,-0.493368
1631632634205,-0.848876,-0.154452,-0.493917
1631632634214,-0.849486,-0.155245,-0.493185
1631632634224,-0.84973,-0.155489,-0.493978
1631632634234,-0.850035,-0.156038,-0.494039
1631632634243,-0.849913,-0.155916,-0.494832
1631632634253,-0.851438,-0.156099,-0.494222
1631632634262,-0.851743,-0.155672,-0.49349
1631632634272,-0.850401,-0.157685,-0.491965
1631632634282,-0.850401,-0.157258,-0.492819
1631632634291,-0.851865,-0.15853899999999999,-0.49324599999999996
1631632634301,-0.852109,-0.159515,-0.493124
1631632634310,-0.853329,-0.160552,-0.492758
1631632634320,-0.853329,-0.161772,-0.493368
1631632634330,-0.853268,-0.159881,-0.491294
1631632634339,-0.853451,-0.156038,-0.491294
1631632634349,-0.854244,-0.155062,-0.493063
1631632634358,-0.853634,-0.15555,-0.493856
1631632634368,-0.853451,-0.154696,-0.494954
1631632634378,-0.853573,-0.155367,-0.495137
1631632634387,-0.852536,-0.155977,-0.494283
1631632634397,-0.8519869999999999,-0.156953,-0.495381
1631632634406,-0.852536,-0.157258,-0.495015
1631632634416,-0.8522919999999999,-0.15738,-0.494344
1631632634426,-0.85095,-0.157441,-0.493002
1631632634435,-0.849425,-0.156709,-0.491538
1631632634445,-0.8498519999999999,-0.156343,-0.492209
1631632634454,-0.849608,-0.156831,-0.492148
1631632634464,-0.84912,-0.15738,-0.493856
1631632634474,-0.848449,-0.15799,-0.494954
1631632634483,-0.84729,-0.158966,-0.4941
1631632634493,-0.846558,-0.15914899999999998,-0.492453
1631632634502,-0.847839,-0.159393,-0.491233
1631632634512,-0.849669,-0.159515,-0.490257
1631632634522,-0.851133,-0.15921,-0.490989
1631632634531,-0.853146,-0.159576,-0.492209
1631632634541,-0.852658,-0.15884399999999999,-0.493063
1631632634550,-0.854,-0.15823399999999999,-0.492514
1631632634560,-0.853268,-0.156648,-0.492392
1631632634570,-0.853878,-0.156038,-0.492758
1631632634579,-0.8547319999999999,-0.156526,-0.492819
1631632634589,-0.85156,-0.156648,-0.491843
1631632634598,-0.85095,-0.156587,-0.49111099999999996
1631632634608,-0.851804,-0.155306,-0.49141599999999996
1631632634618,-0.853329,-0.153781,-0.492453
1631632634627,-0.852963,-0.152866,-0.49233099999999996
1631632634637,-0.852414,-0.152439,-0.49263599999999996
1631632634646,-0.851621,-0.152195,-0.493002
1631632634656,-0.8513769999999999,-0.154391,-0.492758
1631632634666,-0.850645,-0.15329299999999998,-0.493124
1631632634675,-0.8519869999999999,-0.153781,-0.49263599999999996
1631632634685,-0.8504619999999999,-0.153049,-0.492209
1631632634694,-0.85095,-0.15329299999999998,-0.49294099999999996
1631632634704,-0.8510719999999999,-0.15372,-0.49355099999999996
1631632634714,-0.851194,-0.155001,-0.493734
1631632634723,-0.850279,-0.15616,-0.491904
1631632634733,-0.85095,-0.15677,-0.491965
1631632634742,-0.851194,-0.158173,-0.49105
1631632634752,-0.85217,-0.15792899999999999,-0.491233
1631632634762,-0.853024,-0.158051,-0.492087
1631632634771,-0.852536,-0.157075,-0.492819
1631632634781,-0.852475,-0.157807,-0.493002
1631632634790,-0.851743,-0.156587,-0.492087
1631632634800,-0.851194,-0.156038,-0.490379
1631632634810,-0.850279,-0.155367,-0.490684
1631632634819,-0.8522919999999999,-0.155916,-0.492087
1631632634829,-0.853878,-0.156709,-0.492392
1631632634838,-0.854549,-0.156465,-0.491965
1631632634848,-0.855098,-0.155977,-0.494161
1631632634858,-0.856318,-0.15677,-0.49349
1631632634867,-0.854915,-0.157319,-0.492148
1631632634877,-0.854305,-0.15738,-0.49172099999999996
1631632634886,-0.8547319999999999,-0.157136,-0.492209
1631632634896,-0.854366,-0.156038,-0.49227
1631632634906,-0.853329,-0.154696,-0.49263599999999996
1631632634915,-0.8522919999999999,-0.153964,-0.490623
1631632634925,-0.851499,-0.155184,-0.490867
1631632634934,-0.850401,-0.156099,-0.49202599999999996
1631632634944,-0.851926,-0.157441,-0.492575
1631632634954,-0.8504619999999999,-0.155794,-0.491477
1631632634963,-0.8504619999999999,-0.15512299999999998,-0.491477
1631632634973,-0.851743,-0.154635,-0.49105
1631632634982,-0.850523,-0.153842,-0.49105
1631632634992,-0.852841,-0.15329299999999998,-0.490928
1631632635002,-0.851926,-0.152805,-0.49080599999999996
1631632635011,-0.851743,-0.154086,-0.49080599999999996
1631632635021,-0.85217,-0.154757,-0.491477
1631632635030,-0.8522919999999999,-0.155184,-0.491477
1631632635040,-0.852109,-0.155306,-0.49263599999999996
1631632635050,-0.8529019999999999,-0.155489,-0.492148
1631632635059,-0.852048,-0.1525,-0.49080599999999996
1631632635069,-0.851499,-0.150487,-0.489647
1631632635078,-0.853146,-0.149023,-0.493307
1631632635088,-0.853268,-0.149511,-0.493734
1631632635098,-0.8529019999999999,-0.15067,-0.495686
1631632635107,-0.853024,-0.151585,-0.498065
1631632635117,-0.852048,-0.15372,-0.49776
1631632635126,-0.851621,-0.156221,-0.496784
1631632635136,-0.850218,-0.157441,-0.49532
1631632635146,-0.848693,-0.157624,-0.493185
1631632635155,-0.84851,-0.15823399999999999,-0.493429
1631632635165,-0.848693,-0.159027,-0.49471
1631632635174,-0.849059,-0.161833,-0.495259
1631632635184,-0.8486319999999999,-0.161589,-0.495686
1631632635194,-0.848571,-0.163602,-0.496662
1631632635203,-0.848205,-0.16469999999999999,-0.49593
1631632635213,-0.848754,-0.165798,-0.496174
1631632635222,-0.848205,-0.165188,-0.496235
1631632635232,-0.8486319999999999,-0.164273,-0.495076
1631632635242,-0.848998,-0.164151,-0.494466
1631632635251,-0.8483269999999999,-0.16287,-0.494344
1631632635261,-0.8486319999999999,-0.161894,-0.494466
1631632635270,-0.848998,-0.15921,-0.49471
1631632635280,-0.848815,-0.15799,-0.495869
1631632635290,-0.850401,-0.15792899999999999,-0.496296
1631632635299,-0.850096,-0.157868,-0.497516
1631632635309,-0.851011,-0.158051,-0.49763799999999997
1631632635318,-0.848754,-0.157502,-0.497089
1631632635328,-0.847839,-0.155001,-0.49593
1631632635338,-0.848754,-0.153049,-0.49611299999999997
1631632635347,-0.8480219999999999,-0.15237799999999999,-0.496479
1631632635357,-0.84729,-0.152134,-0.49471
1631632635366,-0.846314,-0.15372,-0.494649
1631632635376,-0.8468019999999999,-0.15481799999999998,-0.494466
1631632635386,-0.847839,-0.156038,-0.49458799999999997
1631632635395,-0.849303,-0.157014,-0.495564
1631632635405,-0.850218,-0.157807,-0.497272
1631632635414,-0.851804,-0.157868,-0.49702799999999997
1631632635424,-0.851255,-0.157563,-0.497089
1631632635434,-0.8507669999999999,-0.157746,-0.496784
1631632635443,-0.8510719999999999,-0.15853899999999999,-0.49580799999999997
1631632635453,-0.851133,-0.15738,-0.49580799999999997
1631632635462,-0.850401,-0.155916,-0.495442
1631632635472,-0.85156,-0.155184,-0.49611299999999997
1631632635482,-0.849913,-0.155367,-0.496052
1631632635491,-0.85034,-0.155428,-0.49593
1631632635501,-0.850645,-0.15494,-0.495991
1631632635510,-0.850706,-0.15555,-0.495869
1631632635520,-0.850096,-0.154391,-0.494039
1631632635530,-0.85095,-0.155489,-0.49672299999999997
1631632635539,-0.8529019999999999,-0.152866,-0.496662
1631632635549,-0.852048,-0.153232,-0.49776
1631632635558,-0.852536,-0.15189,-0.496357
1631632635568,-0.852109,-0.154757,-0.497089
1631632635578,-0.850706,-0.15268299999999999,-0.495686
1631632635587,-0.850584,-0.1525,-0.496174
1631632635597,-0.85095,-0.152622,-0.496235
1631632635606,-0.850828,-0.15237799999999999,-0.496479
1631632635616,-0.850523,-0.15128,-0.496479
1631632635626,-0.850035,-0.150731,-0.496601
1631632635635,-0.849059,-0.151768,-0.497272
1631632635645,-0.849303,-0.151585,-0.49593
1631632635654,-0.8483269999999999,-0.152195,-0.495259
1631632635664,-0.8489369999999999,-0.153232,-0.495442
1631632635674,-0.84851,-0.15298799999999999,-0.49519799999999997
1631632635683,-0.848571,-0.1525,-0.49519799999999997
1631632635693,-0.8483269999999999,-0.151402,-0.49489299999999997
1631632635702,-0.8492419999999999,-0.150609,-0.495259
1631632635712,-0.849913,-0.152622,-0.49519799999999997
1631632635722,-0.8492419999999999,-0.152012,-0.493612
1631632635731,-0.850096,-0.152622,-0.493185
1631632635741,-0.850035,-0.152744,-0.4941
1631632635750,-0.851499,-0.15390299999999998,-0.494771
1631632635760,-0.852414,-0.153842,-0.494832
1631632635770,-0.853268,-0.153659,-0.497577
1631632635779,-0.8532069999999999,-0.152256,-0.495747
1631632635789,-0.853695,-0.149084,-0.494283
1631632635798,-0.851438,-0.14682699999999999,-0.491843
1631632635808,-0.852109,-0.14457,-0.492453
1631632635818,-0.8529019999999999,-0.144753,-0.495564
1631632635827,-0.853085,-0.147803,-0.497272
1631632635837,-0.854183,-0.149877,-0.49763799999999997
1631632635846,-0.853695,-0.152866,-0.49580799999999997
1631632635856,-0.852841,-0.154574,-0.494466
1631632635866,-0.8522919999999999,-0.155916,-0.49324599999999996
1631632635875,-0.851804,-0.15616,-0.493307
1631632635885,-0.852719,-0.155672,-0.492758
1631632635894,-0.85156,-0.155367,-0.49288
1631632635904,-0.85095,-0.156038,-0.493734
1631632635914,-0.850279,-0.155306,-0.492148
1631632635923,-0.849608,-0.15555,-0.49324599999999996
1631632635933,-0.850401,-0.155428,-0.492209
1631632635942,-0.850828,-0.155489,-0.493124
1631632635952,-0.850828,-0.156648,-0.492575
1631632635962,-0.850828,-0.155916,-0.492514
1631632635971,-0.850401,-0.155977,-0.49202599999999996
1631632635981,-0.850584,-0.154879,-0.492453
1631632635990,-0.851316,-0.153964,-0.49489299999999997
1631632636000,-0.8510719999999999,-0.153964,-0.49458799999999997
1631632636010,-0.850523,-0.153354,-0.493978
1631632636019,-0.850828,-0.153171,-0.494466
1631632636029,-0.851438,-0.153842,-0.494832
1631632636038,-0.849974,-0.15329299999999998,-0.492453
1631632636048,-0.8486319999999999,-0.151341,-0.490989
1631632636058,-0.849486,-0.150853,-0.491904
1631632636067,-0.84912,-0.151829,-0.493124
1631632636077,-0.8504619999999999,-0.152439,-0.4941
1631632636086,-0.8507669999999999,-0.153171,-0.494039
1631632636096,-0.851011,-0.154452,-0.4941
1631632636106,-0.851743,-0.154879,-0.49471
1631632636115,-0.8532069999999999,-0.155672,-0.495747
1631632636125,-0.853024,-0.154452,-0.495991
1631632636134,-0.852963,-0.153842,-0.496235
1631632636144,-0.852658,-0.152622,-0.495686
1631632636154,-0.850584,-0.152866,-0.494649
1631632636163,-0.849913,-0.152134,-0.493856
1631632636173,-0.851194,-0.151829,-0.494344
1631632636182,-0.851316,-0.150548,-0.495442
1631632636192,-0.85217,-0.15128,-0.494649
1631632636202,-0.853634,-0.151219,-0.493978
1631632636211,-0.853268,-0.151768,-0.494954
1631632636221,-0.8532069999999999,-0.15189,-0.495381
1631632636230,-0.854366,-0.152561,-0.49532
1631632636240,-0.853939,-0.152317,-0.493856
1631632636250,-0.854244,-0.150731,-0.49288
1631632636259,-0.852719,-0.15006,-0.493429
1631632636269,-0.852048,-0.149328,-0.494222
1631632636278,-0.85156,-0.14896199999999998,-0.493429
1631632636288,-0.852048,-0.148901,-0.492697
1631632636298,-0.85217,-0.147681,-0.493307
1631632636307,-0.852231,-0.146339,-0.492758
1631632636317,-0.851926,-0.145302,-0.493185
1631632636326,-0.852414,-0.145241,-0.493368
1631632636336,-0.8516819999999999,-0.145058,-0.492514
1631632636346,-0.851438,-0.144631,-0.492758
1631632636355,-0.851926,-0.144692,-0.49324599999999996
1631632636365,-0.852048,-0.144753,-0.492392
1631632636374,-0.853146,-0.145546,-0.49349
1631632636384,-0.852719,-0.145546,-0.492514
1631632636394,-0.853146,-0.144387,-0.490379
1631632636403,-0.851743,-0.143838,-0.49050099999999996
1631632636413,-0.85278,-0.145241,-0.490562
1631632636422,-0.852475,-0.146278,-0.48922
1631632636432,-0.852963,-0.146644,-0.489708
1631632636442,-0.8541219999999999,-0.14652199999999999,-0.48897599999999997
1631632636451,-0.854854,-0.146766,-0.48922
1631632636461,-0.855464,-0.1464,-0.490013
1631632636470,-0.855586,-0.14682699999999999,-0.49019599999999997
1631632636480,-0.856379,-0.145729,-0.489037
1631632636490,-0.8565619999999999,-0.146339,-0.48678
1631632636499,-0.8565619999999999,-0.14621699999999999,-0.48739
1631632636509,-0.857721,-0.146888,-0.488732
1631632636518,-0.85705,-0.147803,-0.489769
1631632636528,-0.857904,-0.147986,-0.48958599999999997
1631632636538,-0.857416,-0.148169,-0.489098
1631632636547,-0.858209,-0.144997,-0.488854
1631632636557,-0.85705,-0.142557,-0.487085
1631632636566,-0.856745,-0.140849,-0.48623099999999997
1631632636576,-0.85705,-0.1403,-0.488488
1631632636586,-0.858026,-0.14066599999999999,-0.489952
1631632636595,-0.856928,-0.14158099999999998,-0.491355
1631632636605,-0.858514,-0.14274,-0.490318
1631632636614,-0.857843,-0.145424,-0.490562
1631632636624,-0.858148,-0.14579,-0.489769
1631632636634,-0.8562569999999999,-0.14518,-0.48897599999999997
1631632636643,-0.855769,-0.147254,-0.486963
1631632636653,-0.854488,-0.147986,-0.48562099999999997
1631632636662,-0.854305,-0.147864,-0.484767
