timestamp,ax,ay,az
1629370423004,-0.374906,0.756644,-0.532652
1629370423013,-0.37515,0.759999,-0.549549
1629370423023,-0.373747,0.762073,-0.556259
1629370423033,-0.376065,0.76372,-0.561627
1629370423042,-0.378261,0.768417,-0.564738
1629370423052,-0.38295799999999997,0.7674409999999999,-0.561078
1629370423061,-0.389363,0.768173,-0.559248
1629370423071,-0.393816,0.769698,-0.553453
1629370423081,-0.399306,0.769332,-0.551196
1629370423090,-0.401746,0.76921,-0.550342
1629370423100,-0.403088,0.770857,-0.540399
1629370423109,-0.407358,0.767258,-0.529968
1629370423119,-0.407053,0.763903,-0.522709
1629370423129,-0.407114,0.759938,-0.515755
1629370423138,-0.408944,0.761585,-0.504958
1629370423148,-0.411628,0.758108,-0.49855299999999997
1629370423157,-0.416142,0.753167,-0.492514
1629370423167,-0.42431599999999997,0.7512759999999999,-0.488793
1629370423177,-0.432856,0.750117,-0.48714599999999997
1629370423186,-0.437614,0.742858,-0.487695
1629370423196,-0.442982,0.734989,-0.476837
1629370423205,-0.447374,0.732183,-0.46543
1629370423215,-0.451461,0.7302919999999999,-0.451766
1629370423225,-0.465064,0.727486,-0.435845
1629370423234,-0.472628,0.729011,-0.428708
1629370423244,-0.480192,0.733769,-0.425475
1629370423253,-0.488183,0.738771,-0.421083
1629370423263,-0.49349,0.743956,-0.411628
1629370423273,-0.492392,0.750056,-0.399428
1629370423282,-0.502518,0.74664,-0.381372
1629370423292,-0.508496,0.739076,-0.368867
1629370423301,-0.510814,0.736514,-0.359961
1629370423311,-0.520513,0.734196,-0.354776
1629370423321,-0.531249,0.733464,-0.349774
1629370423330,-0.533689,0.7388319999999999,-0.34599199999999997
1629370423340,-0.539118,0.7409669999999999,-0.341234
1629370423349,-0.543022,0.7412719999999999,-0.331901
1629370423359,-0.551318,0.737978,-0.323178
1629370423369,-0.558516,0.735294,-0.310978
1629370423378,-0.5663239999999999,0.73383,-0.299693
1629370423388,-0.571936,0.739991,-0.284748
1629370423397,-0.580293,0.746762,-0.267119
1629370423407,-0.589992,0.751093,-0.251564
1629370423417,-0.595299,0.7528009999999999,-0.238876
1629370423426,-0.605486,0.749507,-0.22875
1629370423436,-0.611281,0.747555,-0.216001
1629370423445,-0.616039,0.748287,-0.202398
1629370423455,-0.619638,0.749263,-0.19763999999999998
1629370423465,-0.626897,0.746152,-0.187941
1629370423474,-0.632204,0.742309,-0.191052
1629370423484,-0.63867,0.742126,-0.18318299999999998
1629370423493,-0.643245,0.739503,-0.191967
1629370423503,-0.646844,0.745176,-0.192028
1629370423513,-0.652578,0.750239,-0.188856
1629370423522,-0.6603249999999999,0.757254,-0.184342
1629370423532,-0.663802,0.767014,-0.180438
1629370423541,-0.663009,0.773907,-0.17751
1629370423551,-0.663131,0.773114,-0.171288
1629370423561,-0.664351,0.771528,-0.164517
1629370423570,-0.662704,0.770552,-0.15738
1629370423580,-0.658068,0.770674,-0.149389
1629370423589,-0.6569699999999999,0.771284,-0.14158099999999998
1629370423599,-0.6581899999999999,0.769149,-0.133346
1629370423609,-0.658312,0.769149,-0.128893
1629370423618,-0.656116,0.77104,-0.124745
1629370423628,-0.652456,0.771589,-0.122488
1629370423637,-0.646539,0.768539,-0.116876
1629370423647,-0.640683,0.763354,-0.109495
1629370423657,-0.636474,0.757803,-0.10309
1629370423666,-0.632753,0.757193,-0.098088
1629370423676,-0.629764,0.761768,-0.09558699999999999
1629370423685,-0.626226,0.7634759999999999,-0.09455
1629370423695,-0.622383,0.761158,-0.095648
1629370423705,-0.617686,0.760609,-0.09333
1629370423714,-0.612501,0.760182,-0.08967
1629370423724,-0.608536,0.759267,-0.084363
1629370423733,-0.605669,0.755729,-0.081923
1629370423743,-0.603534,0.754265,-0.081618
1629370423753,-0.60329,0.749324,-0.08234999999999999
1629370423762,-0.603595,0.741516,-0.0854
1629370423772,-0.605059,0.734379,-0.090463
1629370423781,-0.605852,0.736941,-0.096014
1629370423791,-0.606645,0.74664,-0.096807
1629370423801,-0.605913,0.75762,-0.094428
1629370423810,-0.606645,0.763842,-0.091622
1629370423820,-0.605852,0.771772,-0.088023
1629370423829,-0.60756,0.776652,-0.081862
1629370423839,-0.609939,0.787937,-0.075823
1629370423849,-0.610305,0.792512,-0.076067
1629370423858,-0.611891,0.7893399999999999,-0.08113
1629370423868,-0.6122569999999999,0.784643,-0.08479
1629370423877,-0.614148,0.7807999999999999,-0.087413
1629370423887,-0.614758,0.778726,-0.081618
1629370423897,-0.617259,0.776347,-0.074237
1629370423906,-0.619638,0.771589,-0.06588
1629370423916,-0.620431,0.768356,-0.058072
1629370423925,-0.618723,0.770857,-0.052826
1629370423935,-0.6180519999999999,0.772626,-0.051727999999999996
1629370423945,-0.61732,0.768783,-0.055570999999999995
1629370423954,-0.617564,0.763842,-0.06831999999999999
1629370423964,-0.616954,0.761402,-0.082106
1629370423973,-0.615246,0.75945,-0.096319
1629370423983,-0.6150019999999999,0.7567659999999999,-0.10729899999999999
1629370423993,-0.611098,0.7558509999999999,-0.115351
1629370424002,-0.609756,0.755912,-0.12023099999999999
1629370424012,-0.610976,0.762927,-0.119255
1629370424021,-0.6125619999999999,0.770064,-0.116937
1629370424031,-0.612989,0.776591,-0.120475
1629370424041,-0.613538,0.781654,-0.126392
1629370424050,-0.615673,0.787632,-0.130052
1629370424060,-0.615246,0.796172,-0.13078399999999998
1629370424069,-0.6168319999999999,0.7999539999999999,-0.126575
1629370424079,-0.621529,0.801357,-0.119377
1629370424089,-0.622383,0.79788,-0.111996
1629370424098,-0.623542,0.797636,-0.105652
1629370424108,-0.622505,0.796233,-0.102724
1629370424117,-0.618906,0.793915,-0.10577399999999999
1629370424127,-0.615124,0.792146,-0.10992199999999999
1629370424137,-0.607804,0.787144,-0.11870599999999999
1629370424146,-0.600911,0.783606,-0.12627
1629370424156,-0.592615,0.781349,-0.13633499999999998
1629370424165,-0.5842579999999999,0.7759199999999999,-0.143411
1629370424175,-0.5795,0.770369,-0.149633
1629370424185,-0.5727289999999999,0.763354,-0.156221
1629370424194,-0.568276,0.753289,-0.162992
1629370424204,-0.565165,0.745481,-0.17025099999999999
1629370424213,-0.564311,0.741821,-0.17610699999999999
1629370424223,-0.565165,0.744017,-0.181475
1629370424233,-0.562542,0.74725,-0.189771
1629370424242,-0.563335,0.7509709999999999,-0.198494
1629370424252,-0.564006,0.755424,-0.20691199999999998
1629370424261,-0.564311,0.763964,-0.212585
1629370424271,-0.567178,0.77165,-0.219966
1629370424281,-0.568032,0.779458,-0.22265
1629370424290,-0.5699839999999999,0.784704,-0.220698
1629370424300,-0.572607,0.7887299999999999,-0.22265
1629370424309,-0.57279,0.792146,-0.226371
1629370424319,-0.572241,0.792695,-0.23003099999999999
1629370424329,-0.572973,0.789462,-0.235826
1629370424338,-0.576694,0.7853749999999999,-0.24583
1629370424348,-0.576694,0.779946,-0.255712
1629370424357,-0.577914,0.7777499999999999,-0.262483
1629370424367,-0.573705,0.774944,-0.267546
1629370424377,-0.5724239999999999,0.774761,-0.268583
1629370424386,-0.569313,0.779397,-0.268888
1629370424396,-0.5663239999999999,0.784277,-0.268644
1629370424405,-0.564128,0.788791,-0.26779
1629370424415,-0.563945,0.794159,-0.268339
1629370424425,-0.562542,0.8036139999999999,-0.266204
1629370424434,-0.558638,0.814045,-0.265777
1629370424444,-0.555222,0.817888,-0.264069
1629370424453,-0.549488,0.814777,-0.26047
1629370424463,-0.543266,0.8084939999999999,-0.255468
1629370424473,-0.537349,0.801418,-0.25071
1629370424482,-0.532225,0.794952,-0.248148
1629370424492,-0.528748,0.785802,-0.247843
1629370424501,-0.52521,0.778787,-0.245891
1629370424511,-0.522648,0.77043,-0.242597
1629370424521,-0.518988,0.764269,-0.23973
1629370424530,-0.519598,0.7662209999999999,-0.238205
1629370424540,-0.5225259999999999,0.775676,-0.236436
1629370424549,-0.521794,0.7865949999999999,-0.235033
1629370424559,-0.5197809999999999,0.792207,-0.23155599999999998
1629370424569,-0.5176459999999999,0.797697,-0.225273
1629370424578,-0.514962,0.800137,-0.217282
1629370424588,-0.515877,0.8036139999999999,-0.212036
1629370424597,-0.519842,0.799466,-0.207034
1629370424607,-0.522648,0.802455,-0.207034
1629370424617,-0.525454,0.806237,-0.208986
1629370424626,-0.523319,0.810141,-0.210999
1629370424636,-0.516792,0.811788,-0.212402
1629370424645,-0.511546,0.812093,-0.204838
1629370424655,-0.511546,0.813008,-0.201239
1629370424665,-0.51118,0.819596,-0.203984
1629370424674,-0.511485,0.8267329999999999,-0.2013
1629370424684,-0.517463,0.832406,-0.197396
1629370424693,-0.522038,0.841617,-0.199348
1629370424703,-0.524234,0.8525969999999999,-0.200568
1629370424713,-0.519354,0.861076,-0.198616
1629370424722,-0.515328,0.857721,-0.196847
1629370424732,-0.511912,0.8532069999999999,-0.196176
1629370424741,-0.506971,0.848144,-0.193919
1629370424751,-0.50386,0.846619,-0.190991
1629370424761,-0.502762,0.842532,-0.184586
1629370424770,-0.499651,0.840397,-0.18056
1629370424780,-0.496296,0.8349679999999999,-0.176473
1629370424789,-0.492514,0.8313079999999999,-0.169702
1629370424799,-0.483608,0.829356,-0.162138
1629370424809,-0.473787,0.8252079999999999,-0.155306
1629370424818,-0.463295,0.829234,-0.147498
1629370424828,-0.455853,0.8398479999999999,-0.131699
1629370424837,-0.449936,0.848876,-0.111691
1629370424847,-0.449326,0.843081,-0.096014
1629370424857,-0.450302,0.8328329999999999,-0.085034
1629370424866,-0.45933,0.818803,-0.081801
1629370424876,-0.46909,0.813252,-0.082594
1629370424885,-0.475312,0.816912,-0.087352
1629370424895,-0.479277,0.831064,-0.095099
1629370424905,-0.482815,0.843569,-0.10467599999999999
1629370424914,-0.485987,0.860588,-0.115534
1629370424924,-0.486109,0.874435,-0.126453
1629370424933,-0.488732,0.883219,-0.137189
1629370424943,-0.490867,0.886208,-0.142252
1629370424953,-0.490989,0.88633,-0.142374
1629370424962,-0.491599,0.883585,-0.14066599999999999
1629370424972,-0.493978,0.878949,-0.132919
1629370424981,-0.499285,0.8748009999999999,-0.126331
1629370424991,-0.504592,0.86864,-0.125721
1629370425001,-0.507703,0.864004,-0.129991
1629370425010,-0.509472,0.8599169999999999,-0.13633499999999998
1629370425020,-0.510448,0.856745,-0.144021
1629370425029,-0.510326,0.8525969999999999,-0.151585
1629370425039,-0.507154,0.841983,-0.154879
1629370425049,-0.510692,0.837957,-0.158417
1629370425058,-0.513925,0.83997,-0.15823399999999999
1629370425068,-0.5136809999999999,0.845033,-0.160491
1629370425077,-0.515633,0.851255,-0.16104
1629370425087,-0.514535,0.85339,-0.155611
1629370425097,-0.51118,0.8504619999999999,-0.15207299999999999
1629370425106,-0.510021,0.847351,-0.149877
1629370425116,-0.510387,0.846253,-0.147254
1629370425125,-0.511363,0.842288,-0.148474
1629370425135,-0.511119,0.831125,-0.14823
1629370425145,-0.511119,0.818559,-0.145912
1629370425154,-0.51057,0.811971,-0.139934
1629370425164,-0.51179,0.8052,-0.135664
1629370425173,-0.512339,0.7993439999999999,-0.132553
1629370425183,-0.5139859999999999,0.799283,-0.135359
1629370425193,-0.514962,0.8017839999999999,-0.141398
1629370425202,-0.518012,0.804712,-0.148535
1629370425212,-0.520879,0.80337,-0.155306
1629370425221,-0.523807,0.802943,-0.15823399999999999
1629370425231,-0.526857,0.806115,-0.158112
1629370425241,-0.531249,0.810873,-0.160613
1629370425250,-0.535458,0.8142889999999999,-0.164273
1629370425260,-0.537776,0.816546,-0.16469999999999999
1629370425269,-0.540338,0.8145939999999999,-0.162809
1629370425279,-0.542534,0.8139839999999999,-0.161162
1629370425289,-0.544791,0.815753,-0.15921
1629370425298,-0.547536,0.820084,-0.157014
1629370425308,-0.546926,0.823439,-0.155916
1629370425317,-0.546682,0.824171,-0.159088
1629370425327,-0.549183,0.822036,-0.159698
1629370425337,-0.549854,0.823439,-0.16104
1629370425346,-0.5480849999999999,0.82167,-0.165493
1629370425356,-0.544913,0.81984,-0.173362
1629370425365,-0.541314,0.81862,-0.183122
1629370425375,-0.5367999999999999,0.818498,-0.19154
1629370425385,-0.531798,0.814228,-0.199043
1629370425394,-0.530761,0.805688,-0.20679
1629370425404,-0.527101,0.802821,-0.213012
1629370425413,-0.525088,0.805871,-0.217648
1629370425423,-0.525149,0.810812,-0.222711
1629370425433,-0.523929,0.812398,-0.230092
1629370425442,-0.522404,0.812276,-0.238571
1629370425452,-0.521794,0.809836,-0.24509799999999998
1629370425461,-0.5219159999999999,0.804468,-0.253394
1629370425471,-0.521123,0.800137,-0.262117
1629370425481,-0.52155,0.798368,-0.266082
1629370425490,-0.521062,0.801052,-0.261995
1629370425500,-0.5203909999999999,0.807335,-0.256871
1629370425509,-0.517768,0.8155089999999999,-0.24631799999999998
1629370425519,-0.513803,0.825025,-0.23302
1629370425529,-0.513437,0.832406,-0.219112
1629370425538,-0.512156,0.835151,-0.211121
1629370425548,-0.50996,0.831796,-0.20801
1629370425557,-0.507581,0.823134,-0.208071
1629370425567,-0.505141,0.81801,-0.208986
1629370425577,-0.501908,0.815936,-0.210572
1629370425586,-0.49837,0.815387,-0.21167
1629370425596,-0.49471,0.818742,-0.210938
1629370425605,-0.498492,0.819413,-0.211914
1629370425615,-0.502396,0.82045,-0.211243
1629370425625,-0.50447,0.819596,-0.21154799999999999
1629370425634,-0.50691,0.823012,-0.206973
1629370425644,-0.509594,0.82594,-0.202459
1629370425653,-0.509716,0.826672,-0.198433
1629370425663,-0.510204,0.825635,-0.196298
1629370425673,-0.512583,0.825574,-0.195627
1629370425682,-0.5149009999999999,0.822951,-0.199226
1629370425692,-0.5176459999999999,0.822036,-0.204777
1629370425701,-0.518378,0.819962,-0.206424
1629370425711,-0.518073,0.817461,-0.207888
1629370425721,-0.515694,0.815692,-0.207461
1629370425730,-0.513559,0.812703,-0.208925
1629370425740,-0.513132,0.8133739999999999,-0.207888
1629370425749,-0.510631,0.8130689999999999,-0.206729
1629370425759,-0.511119,0.813557,-0.203862
1629370425769,-0.51301,0.81191,-0.20288599999999998
1629370425778,-0.513925,0.813862,-0.20410599999999998
1629370425788,-0.5142909999999999,0.8161189999999999,-0.206729
1629370425797,-0.514718,0.817888,-0.208864
1629370425807,-0.515328,0.817888,-0.210267
1629370425817,-0.51606,0.820084,-0.207888
1629370425826,-0.5185,0.8221579999999999,-0.206363
1629370425836,-0.520147,0.822097,-0.205326
1629370425845,-0.51911,0.8233779999999999,-0.204472
1629370425855,-0.5164259999999999,0.825452,-0.20258099999999998
1629370425865,-0.517524,0.8258179999999999,-0.200324
1629370425874,-0.5173409999999999,0.8264279999999999,-0.199592
1629370425884,-0.517219,0.824842,-0.200812
1629370425893,-0.5167309999999999,0.823195,-0.2013
1629370425903,-0.5142909999999999,0.820938,-0.202215
1629370425913,-0.513864,0.820206,-0.202093
1629370425922,-0.512888,0.818742,-0.2013
1629370425932,-0.5127659999999999,0.818559,-0.199714
1629370425941,-0.512339,0.817705,-0.19702999999999998
1629370425951,-0.510631,0.817034,-0.192272
1629370425961,-0.511241,0.821365,-0.191052
1629370425970,-0.511302,0.82533,-0.19056399999999998
1629370425980,-0.511912,0.829234,-0.192028
1629370425989,-0.512522,0.830149,-0.192394
1629370425999,-0.511973,0.830271,-0.193797
1629370426009,-0.511729,0.830576,-0.193614
1629370426018,-0.511851,0.830637,-0.194224
1629370426028,-0.5127659999999999,0.833321,-0.193797
1629370426037,-0.511912,0.8386279999999999,-0.193065
1629370426047,-0.510692,0.840031,-0.190625
1629370426057,-0.509472,0.839299,-0.18971
1629370426066,-0.508252,0.837225,-0.1891
1629370426076,-0.505812,0.837164,-0.18934399999999998
1629370426085,-0.504409,0.8371029999999999,-0.191723
1629370426095,-0.502335,0.836432,-0.194651
1629370426105,-0.500993,0.8364929999999999,-0.198799
1629370426114,-0.499346,0.834297,-0.201849
1629370426124,-0.498492,0.82838,-0.204899
1629370426133,-0.496174,0.823866,-0.20679
1629370426143,-0.49349,0.822097,-0.205204
1629370426153,-0.493856,0.824476,-0.20069
1629370426162,-0.49141599999999996,0.829356,-0.195017
1629370426172,-0.489952,0.833931,-0.191967
1629370426181,-0.489708,0.8361879999999999,-0.19056399999999998
1629370426191,-0.490562,0.83631,-0.190076
1629370426201,-0.489403,0.836554,-0.194041
1629370426210,-0.489159,0.832345,-0.19763999999999998
1629370426220,-0.490135,0.8288679999999999,-0.203374
1629370426229,-0.488122,0.827404,-0.207461
1629370426239,-0.48958599999999997,0.826489,-0.209779
1629370426249,-0.488488,0.827709,-0.21472
1629370426258,-0.48684099999999997,0.828685,-0.219783
1629370426268,-0.48775599999999997,0.82777,-0.219783
1629370426277,-0.48678,0.8264279999999999,-0.21533
1629370426287,-0.48653599999999997,0.824659,-0.210084
1629370426297,-0.48806099999999997,0.819962,-0.205936
1629370426306,-0.488793,0.825452,-0.197091
1629370426316,-0.488427,0.8340529999999999,-0.194651
1629370426325,-0.487024,0.839787,-0.197213
1629370426335,-0.487939,0.841922,-0.199226
1629370426345,-0.487878,0.843508,-0.202642
1629370426354,-0.482388,0.8486319999999999,-0.207156
1629370426364,-0.478545,0.856074,-0.211426
1629370426373,-0.47451899999999997,0.863394,-0.21594
1629370426383,-0.472262,0.865834,-0.216733
1629370426393,-0.468541,0.867542,-0.215757
1629370426402,-0.463051,0.868518,-0.21337799999999998
1629370426412,-0.456524,0.8614419999999999,-0.21551299999999998
1629370426421,-0.454084,0.853878,-0.216489
1629370426431,-0.452254,0.837652,-0.215269
1629370426441,-0.458049,0.819657,-0.21472
1629370426450,-0.46189199999999997,0.81679,-0.215757
1629370426460,-0.46238,0.821731,-0.21899
1629370426469,-0.458964,0.8294779999999999,-0.22228399999999998
1629370426479,-0.458232,0.8357,-0.226188
1629370426489,-0.458903,0.839604,-0.228811
1629370426498,-0.458293,0.8461919999999999,-0.230519
1629370426508,-0.457378,0.850645,-0.232227
1629370426517,-0.458049,0.854,-0.231495
1629370426527,-0.460916,0.853878,-0.229238
1629370426537,-0.460245,0.852658,-0.227286
1629370426546,-0.460245,0.849303,-0.223748
1629370426556,-0.46055,0.84668,-0.221186
1629370426565,-0.461404,0.84241,-0.21953899999999998
1629370426575,-0.462685,0.840702,-0.219478
1629370426585,-0.465186,0.8361879999999999,-0.22045399999999998
1629370426594,-0.46738199999999996,0.834602,-0.221735
1629370426604,-0.46738199999999996,0.835639,-0.221918
1629370426613,-0.470493,0.839909,-0.220637
1629370426623,-0.471347,0.843752,-0.21770899999999999
1629370426633,-0.47214,0.845155,-0.21429299999999998
1629370426642,-0.47336,0.8461919999999999,-0.208864
1629370426652,-0.47397,0.8471069999999999,-0.20313
1629370426661,-0.475251,0.847473,-0.19733499999999998
1629370426671,-0.478972,0.84668,-0.192272
1629370426681,-0.480985,0.846131,-0.188307
1629370426690,-0.483974,0.845826,-0.186965
1629370426700,-0.48373,0.847168,-0.186599
1629370426709,-0.48312,0.8477169999999999,-0.189466
1629370426719,-0.483608,0.8474119999999999,-0.193248
1629370426729,-0.482754,0.844301,-0.195749
1629370426738,-0.481778,0.841007,-0.198738
1629370426748,-0.48007,0.8386279999999999,-0.199043
1629370426757,-0.478057,0.83875,-0.196298
1629370426767,-0.477813,0.839116,-0.194102
1629370426777,-0.47726399999999997,0.8389329999999999,-0.192638
1629370426786,-0.478362,0.83875,-0.192577
1629370426796,-0.47946,0.83814,-0.193126
1629370426805,-0.480802,0.839482,-0.196298
1629370426815,-0.48129,0.83997,-0.198921
1629370426825,-0.48287599999999997,0.84058,-0.200629
1629370426834,-0.48312,0.839726,-0.200873
1629370426844,-0.48440099999999997,0.836005,-0.200934
1629370426853,-0.484828,0.8322229999999999,-0.201178
1629370426863,-0.48501099999999997,0.8316129999999999,-0.20136099999999998
1629370426873,-0.485194,0.833382,-0.202764
1629370426882,-0.485255,0.8371029999999999,-0.203008
1629370426892,-0.48440099999999997,0.83936,-0.204838
1629370426901,-0.48409599999999997,0.840092,-0.20782699999999998
1629370426911,-0.483608,0.839726,-0.209596
1629370426921,-0.48409599999999997,0.839787,-0.210023
1629370426930,-0.485072,0.842044,-0.209108
1629370426940,-0.484767,0.843081,-0.207156
1629370426949,-0.486475,0.843081,-0.207766
1629370426959,-0.486963,0.842898,-0.207278
1629370426969,-0.487878,0.843569,-0.208193
1629370426978,-0.485377,0.844423,-0.207156
1629370426988,-0.484218,0.844423,-0.206485
1629370426997,-0.48373,0.843508,-0.20630199999999999
1629370427007,-0.482388,0.844179,-0.20569199999999999
1629370427017,-0.480436,0.844362,-0.205753
1629370427026,-0.478301,0.844789,-0.205448
1629370427036,-0.476776,0.843203,-0.205082
1629370427045,-0.474946,0.842837,-0.204899
1629370427055,-0.47458,0.843264,-0.205509
1629370427065,-0.473787,0.845521,-0.20569199999999999
1629370427074,-0.47153,0.848266,-0.2074
1629370427084,-0.470493,0.849486,-0.20843699999999998
1629370427093,-0.468541,0.850279,-0.209291
1629370427103,-0.467626,0.848815,-0.210145
1629370427113,-0.465979,0.845094,-0.212036
1629370427122,-0.465796,0.841556,-0.213866
1629370427132,-0.465064,0.838384,-0.214842
1629370427141,-0.466223,0.8358829999999999,-0.216245
1629370427151,-0.467016,0.8358829999999999,-0.217648
1629370427161,-0.464454,0.837835,-0.218807
1629370427170,-0.462075,0.841251,-0.219356
1629370427180,-0.460733,0.845094,-0.218685
1629370427189,-0.459696,0.846558,-0.216672
1629370427199,-0.460123,0.848388,-0.213866
1629370427209,-0.457073,0.849791,-0.212829
1629370427218,-0.458781,0.8498519999999999,-0.212707
1629370427228,-0.459269,0.848571,-0.212585
1629370427237,-0.458354,0.846985,-0.212524
1629370427247,-0.457683,0.845155,-0.21246299999999999
1629370427257,-0.45658499999999996,0.843325,-0.21289
1629370427266,-0.457988,0.841922,-0.21533
1629370427276,-0.457927,0.837286,-0.21838
1629370427285,-0.459391,0.8279529999999999,-0.22326
1629370427295,-0.4636,0.824842,-0.22478499999999998
1629370427305,-0.463905,0.825452,-0.228201
1629370427314,-0.465613,0.827526,-0.22942099999999999
1629370427324,-0.466955,0.832345,-0.229543
1629370427333,-0.46921199999999996,0.837225,-0.228201
1629370427343,-0.469944,0.843142,-0.225334
1629370427353,-0.470615,0.850523,-0.224053
1629370427362,-0.47360399999999997,0.8529019999999999,-0.219356
1629370427372,-0.473787,0.855708,-0.217282
1629370427381,-0.47299399999999997,0.857538,-0.216245
1629370427391,-0.472628,0.8605269999999999,-0.213744
1629370427401,-0.470432,0.8601,-0.21154799999999999
1629370427410,-0.470005,0.855769,-0.212097
1629370427420,-0.468358,0.8525969999999999,-0.212829
1629370427429,-0.465918,0.850279,-0.217282
1629370427439,-0.462868,0.849974,-0.220515
1629370427449,-0.460611,0.849486,-0.224053
1629370427458,-0.457866,0.846131,-0.225761
1629370427468,-0.455792,0.842898,-0.226676
1629370427477,-0.455182,0.840214,-0.22783499999999998
1629370427487,-0.45444999999999997,0.842776,-0.228201
1629370427497,-0.453474,0.843447,-0.22752999999999998
1629370427506,-0.45292499999999997,0.8464969999999999,-0.226798
1629370427516,-0.452986,0.8474119999999999,-0.225212
1629370427525,-0.455487,0.848693,-0.223504
1629370427535,-0.456463,0.8504619999999999,-0.222711
1629370427545,-0.45597499999999996,0.85156,-0.221857
1629370427554,-0.455853,0.853939,-0.220942
1629370427564,-0.456951,0.853939,-0.22106399999999998
1629370427573,-0.455731,0.851865,-0.220576
1629370427583,-0.457134,0.850401,-0.221796
1629370427593,-0.456463,0.847229,-0.222467
1629370427602,-0.458049,0.843935,-0.221735
1629370427612,-0.4575,0.842044,-0.220942
1629370427621,-0.458537,0.84058,-0.220027
1629370427631,-0.458537,0.839787,-0.21923399999999998
1629370427641,-0.46055,0.8401529999999999,-0.217831
1629370427650,-0.46280699999999997,0.8404579999999999,-0.21655
1629370427660,-0.46341699999999997,0.8404579999999999,-0.215696
1629370427669,-0.465308,0.842044,-0.2135
1629370427679,-0.465613,0.843142,-0.212402
1629370427689,-0.467138,0.845094,-0.210816
1629370427698,-0.468419,0.845399,-0.211914
1629370427708,-0.469822,0.844972,-0.211243
1629370427717,-0.469822,0.846314,-0.20965699999999998
1629370427727,-0.470188,0.84607,-0.208376
1629370427737,-0.468968,0.846009,-0.207766
1629370427746,-0.468419,0.847168,-0.206546
1629370427756,-0.46726,0.848693,-0.205875
1629370427765,-0.465918,0.84912,-0.206729
1629370427775,-0.464454,0.849364,-0.205875
1629370427785,-0.464393,0.849425,-0.20679
1629370427794,-0.4636,0.84851,-0.208193
1629370427804,-0.46311199999999997,0.846131,-0.208864
1629370427813,-0.46421,0.844606,-0.210572
1629370427823,-0.464454,0.843447,-0.21276799999999998
1629370427833,-0.46555199999999997,0.843935,-0.215269
1629370427842,-0.465369,0.844667,-0.216733
1629370427852,-0.465918,0.844057,-0.2196
1629370427861,-0.46543,0.842654,-0.221003
1629370427871,-0.46604,0.84302,-0.222406
1629370427881,-0.464454,0.84241,-0.223748
1629370427890,-0.464515,0.841617,-0.224114
1629370427900,-0.46482,0.8407629999999999,-0.223443
1629370427909,-0.465186,0.840214,-0.223382
1629370427919,-0.467138,0.839604,-0.222833
1629370427929,-0.46848,0.840031,-0.22167399999999998
1629370427938,-0.46829699999999996,0.840031,-0.222894
1629370427948,-0.469395,0.840092,-0.223626
1629370427957,-0.470493,0.840824,-0.225212
1629370427967,-0.471225,0.839299,-0.227774
1629370427977,-0.471896,0.838689,-0.22813999999999998
1629370427986,-0.472872,0.838506,-0.229177
1629370427996,-0.474153,0.838872,-0.228994
1629370428005,-0.475617,0.839482,-0.227591
1629370428015,-0.476471,0.840397,-0.229116
1629370428025,-0.47848399999999996,0.840519,-0.228811
1629370428034,-0.47817899999999997,0.840702,-0.22875
1629370428044,-0.478545,0.841434,-0.227469
1629370428053,-0.47909399999999996,0.840275,-0.226066
1629370428063,-0.478911,0.839055,-0.22508999999999998
1629370428073,-0.479277,0.839421,-0.22326
1629370428082,-0.479948,0.839909,-0.22136899999999998
1629370428092,-0.480558,0.838262,-0.220698
1629370428101,-0.481656,0.837286,-0.219173
1629370428111,-0.480985,0.835639,-0.218807
1629370428121,-0.482083,0.835944,-0.216672
1629370428130,-0.482144,0.8361879999999999,-0.21612299999999998
1629370428140,-0.48122899999999996,0.836432,-0.21533
1629370428149,-0.480741,0.836249,-0.215574
1629370428159,-0.48068,0.836066,-0.21472
1629370428169,-0.48122899999999996,0.8355779999999999,-0.21368299999999998
1629370428178,-0.480741,0.835761,-0.214049
1629370428188,-0.480802,0.835517,-0.21398799999999998
1629370428197,-0.481107,0.836432,-0.212646
1629370428207,-0.48092399999999996,0.836981,-0.21154799999999999
1629370428217,-0.479582,0.837042,-0.21167
1629370428226,-0.480131,0.837164,-0.21106
1629370428236,-0.480253,0.83692,-0.211914
1629370428245,-0.480131,0.836371,-0.211121
1629370428255,-0.480436,0.836554,-0.21045
1629370428265,-0.48092399999999996,0.837469,-0.210572
1629370428274,-0.479643,0.8383229999999999,-0.211182
1629370428284,-0.480253,0.8392379999999999,-0.21154799999999999
1629370428293,-0.479948,0.839299,-0.211792
1629370428303,-0.478972,0.8386279999999999,-0.211304
1629370428313,-0.47817899999999997,0.837896,-0.211792
1629370428322,-0.480131,0.836005,-0.213622
1629370428332,-0.480253,0.836981,-0.21398799999999998
1629370428341,-0.47946,0.837896,-0.214964
1629370428351,-0.47970399999999996,0.839787,-0.213866
1629370428361,-0.48007,0.840519,-0.212951
1629370428370,-0.481839,0.84119,-0.21167
1629370428380,-0.48257099999999997,0.841434,-0.212341
1629370428389,-0.482266,0.842471,-0.21276799999999998
1629370428399,-0.481595,0.8418,-0.213622
1629370428409,-0.481168,0.841373,-0.214537
1629370428418,-0.479338,0.841129,-0.214537
1629370428428,-0.479033,0.841129,-0.215147
1629370428437,-0.47848399999999996,0.840824,-0.216001
1629370428447,-0.476471,0.841007,-0.215757
1629370428457,-0.47665399999999997,0.841434,-0.215086
1629370428466,-0.475861,0.841678,-0.214781
1629370428476,-0.47634899999999997,0.840336,-0.21520799999999998
1629370428485,-0.475373,0.839909,-0.215025
1629370428495,-0.475312,0.840397,-0.214476
1629370428505,-0.474946,0.84058,-0.215391
1629370428514,-0.47390899999999997,0.841495,-0.215086
1629370428524,-0.47397,0.841922,-0.215391
1629370428533,-0.473177,0.843203,-0.214964
1629370428543,-0.474153,0.84363,-0.214354
1629370428553,-0.471896,0.844911,-0.214415
1629370428562,-0.47177399999999997,0.846375,-0.213439
1629370428572,-0.471103,0.845643,-0.213927
1629370428581,-0.47031,0.844545,-0.21228
1629370428591,-0.468968,0.84424,-0.210755
1629370428601,-0.468724,0.842898,-0.209901
1629370428610,-0.46860199999999996,0.843569,-0.210267
1629370428620,-0.46707699999999996,0.841983,-0.210267
1629370428629,-0.466345,0.84241,-0.21106
1629370428639,-0.466955,0.842593,-0.211609
1629370428649,-0.46555199999999997,0.841739,-0.212707
1629370428658,-0.465369,0.84241,-0.213561
1629370428668,-0.46494199999999997,0.843142,-0.213866
1629370428677,-0.46421,0.842959,-0.213256
1629370428687,-0.463356,0.841983,-0.212646
1629370428697,-0.463356,0.842776,-0.213561
1629370428706,-0.463051,0.842959,-0.21472
1629370428716,-0.463478,0.842959,-0.213805
1629370428725,-0.463844,0.842044,-0.21411
1629370428735,-0.46402699999999997,0.844484,-0.213317
1629370428745,-0.464149,0.844789,-0.213256
1629370428754,-0.465125,0.844972,-0.21289
1629370428764,-0.463966,0.845582,-0.214659
1629370428773,-0.46494199999999997,0.846436,-0.216733
1629370428783,-0.464881,0.8468019999999999,-0.217404
1629370428793,-0.465674,0.846619,-0.218136
1629370428802,-0.46604,0.845765,-0.218746
1629370428812,-0.46433199999999997,0.845582,-0.21899
1629370428821,-0.464515,0.844606,-0.21923399999999998
1629370428831,-0.464149,0.84424,-0.219905
1629370428841,-0.464393,0.843569,-0.220027
1629370428850,-0.463661,0.843264,-0.22204
1629370428860,-0.464454,0.843508,-0.222223
1629370428869,-0.465064,0.843508,-0.222223
1629370428879,-0.465186,0.843996,-0.222955
1629370428889,-0.465735,0.843874,-0.222345
1629370428898,-0.465735,0.844362,-0.222894
1629370428908,-0.46677199999999996,0.844484,-0.222467
1629370428917,-0.466528,0.845338,-0.222955
1629370428927,-0.46665,0.84424,-0.22204
1629370428937,-0.468053,0.842227,-0.222894
1629370428946,-0.468968,0.84241,-0.22228399999999998
1629370428956,-0.46799199999999996,0.841678,-0.221857
1629370428965,-0.469273,0.842044,-0.220942
1629370428975,-0.469822,0.841556,-0.22106399999999998
1629370428985,-0.469822,0.841312,-0.22167399999999998
1629370428994,-0.471225,0.842227,-0.221247
1629370429004,-0.471591,0.841556,-0.22106399999999998
1629370429013,-0.472201,0.839726,-0.219783
1629370429023,-0.472567,0.839177,-0.21899
1629370429033,-0.473238,0.839909,-0.218197
1629370429042,-0.47390899999999997,0.839604,-0.216916
1629370429052,-0.47458,0.83997,-0.217831
1629370429061,-0.474885,0.840519,-0.218441
1629370429071,-0.475373,0.8418,-0.21838
1629370429081,-0.47543399999999997,0.841312,-0.21984399999999998
1629370429090,-0.475312,0.842532,-0.22082
1629370429100,-0.475861,0.843264,-0.220271
1629370429109,-0.475373,0.841068,-0.220088
1629370429119,-0.47451899999999997,0.8401529999999999,-0.21984399999999998
1629370429129,-0.474641,0.840275,-0.220088
1629370429138,-0.47519,0.840885,-0.2196
1629370429148,-0.474153,0.841129,-0.22143
1629370429157,-0.473726,0.840641,-0.22167399999999998
1629370429167,-0.473665,0.839604,-0.221552
1629370429177,-0.47214,0.8389329999999999,-0.222223
1629370429186,-0.471835,0.838872,-0.22265
1629370429196,-0.471103,0.839116,-0.223199
1629370429205,-0.47092,0.836981,-0.223016
1629370429215,-0.471103,0.83631,-0.224907
1629370429225,-0.470615,0.836005,-0.226432
1629370429234,-0.47116399999999997,0.8364929999999999,-0.227347
1629370429244,-0.470005,0.8380179999999999,-0.228018
1629370429253,-0.47031,0.8383229999999999,-0.228079
1629370429263,-0.47092,0.8389329999999999,-0.229116
1629370429273,-0.47031,0.839726,-0.229604
1629370429282,-0.47153,0.8392379999999999,-0.230885
1629370429292,-0.471225,0.837957,-0.230519
1629370429301,-0.47031,0.838201,-0.23125099999999998
1629370429311,-0.47092,0.838689,-0.231312
1629370429321,-0.470188,0.838567,-0.232532
1629370429330,-0.47031,0.837774,-0.23094599999999998
1629370429340,-0.471103,0.836859,-0.23277599999999998
1629370429349,-0.471286,0.83753,-0.23241
1629370429359,-0.470432,0.837591,-0.232715
1629370429369,-0.471042,0.837957,-0.23302
1629370429378,-0.47146899999999997,0.838506,-0.23277599999999998
1629370429388,-0.471103,0.839055,-0.233508
1629370429397,-0.47153,0.838872,-0.234362
1629370429407,-0.471591,0.83936,-0.233813
1629370429417,-0.472262,0.8389329999999999,-0.23424
1629370429426,-0.47153,0.83692,-0.235033
1629370429436,-0.472201,0.836371,-0.235765
1629370429445,-0.472018,0.836676,-0.235704
1629370429455,-0.471896,0.836554,-0.23588699999999999
1629370429465,-0.471713,0.836859,-0.23619199999999999
1629370429474,-0.471652,0.8395429999999999,-0.235521
1629370429484,-0.472323,0.83997,-0.235399
1629370429493,-0.47299399999999997,0.840885,-0.234911
1629370429503,-0.47268899999999997,0.8404579999999999,-0.23546
1629370429513,-0.471347,0.838872,-0.235338
1629370429522,-0.47268899999999997,0.839909,-0.236375
1629370429532,-0.470737,0.8386279999999999,-0.235826
1629370429541,-0.469517,0.837652,-0.234972
1629370429551,-0.469456,0.837774,-0.236741
1629370429561,-0.469578,0.838262,-0.236436
1629370429570,-0.468358,0.837469,-0.235948
1629370429580,-0.46707699999999996,0.83692,-0.237046
1629370429589,-0.46787,0.837896,-0.23588699999999999
1629370429599,-0.465979,0.838079,-0.235338
1629370429609,-0.465918,0.838994,-0.23607
1629370429618,-0.467321,0.8392379999999999,-0.235643
1629370429628,-0.467016,0.840031,-0.236253
1629370429637,-0.466711,0.838872,-0.23485
1629370429647,-0.46726,0.839177,-0.235094
1629370429657,-0.467199,0.8398479999999999,-0.233874
1629370429666,-0.465796,0.838689,-0.233752
1629370429676,-0.465918,0.839482,-0.234057
1629370429685,-0.466589,0.83936,-0.235094
1629370429695,-0.466406,0.83936,-0.23399599999999998
1629370429705,-0.46616199999999997,0.8389329999999999,-0.234057
1629370429714,-0.46616199999999997,0.8389329999999999,-0.233447
1629370429724,-0.466101,0.839299,-0.233813
1629370429733,-0.466406,0.8401529999999999,-0.233325
1629370429743,-0.46585699999999997,0.840397,-0.231739
1629370429753,-0.46555199999999997,0.841312,-0.23277599999999998
1629370429762,-0.46616199999999997,0.840824,-0.23241
1629370429772,-0.466589,0.841434,-0.230702
1629370429781,-0.466711,0.84119,-0.231007
1629370429791,-0.466589,0.841312,-0.23033599999999999
1629370429801,-0.464698,0.840214,-0.230275
1629370429810,-0.465491,0.839909,-0.230702
1629370429820,-0.465796,0.83875,-0.230092
1629370429829,-0.465735,0.840214,-0.23155599999999998
1629370429839,-0.46543,0.840946,-0.231495
1629370429849,-0.465613,0.84119,-0.231373
1629370429858,-0.464881,0.841983,-0.230275
1629370429868,-0.46585699999999997,0.842105,-0.230397
1629370429877,-0.46616199999999997,0.840214,-0.229543
1629370429887,-0.465674,0.841129,-0.22997
1629370429897,-0.46555199999999997,0.841007,-0.231312
1629370429906,-0.465186,0.840824,-0.231007
1629370429916,-0.465735,0.84119,-0.230397
1629370429925,-0.465613,0.841251,-0.23125099999999998
1629370429935,-0.465064,0.842044,-0.232349
1629370429945,-0.46585699999999997,0.841739,-0.230824
1629370429954,-0.465491,0.840336,-0.230885
1629370429964,-0.46543,0.8404579999999999,-0.230458
1629370429973,-0.46677199999999996,0.840519,-0.230397
1629370429983,-0.466101,0.83997,-0.23155599999999998
1629370429993,-0.46707699999999996,0.8392379999999999,-0.23155599999999998
1629370430002,-0.467199,0.840214,-0.23125099999999998
1629370430012,-0.467016,0.84119,-0.231739
1629370430021,-0.46726,0.8401529999999999,-0.231922
1629370430031,-0.466711,0.8401529999999999,-0.231495
1629370430041,-0.465735,0.840702,-0.230458
1629370430050,-0.466711,0.840641,-0.231129
1629370430060,-0.466894,0.839116,-0.230458
1629370430069,-0.468236,0.838384,-0.229177
1629370430079,-0.46860199999999996,0.8380179999999999,-0.229116
1629370430089,-0.46890699999999996,0.83875,-0.228933
1629370430098,-0.470249,0.839299,-0.228689
1629370430108,-0.470371,0.84058,-0.229299
1629370430117,-0.47085899999999997,0.842166,-0.22936
1629370430127,-0.470188,0.841678,-0.23094599999999998
1629370430137,-0.470188,0.840702,-0.230702
1629370430146,-0.471103,0.840824,-0.230763
1629370430156,-0.470554,0.841434,-0.231312
1629370430165,-0.471042,0.838811,-0.230824
1629370430175,-0.471042,0.83753,-0.231068
1629370430185,-0.470615,0.836676,-0.22972599999999999
1629370430194,-0.471042,0.838079,-0.23058
1629370430204,-0.468724,0.838872,-0.231068
1629370430213,-0.469517,0.838872,-0.231312
1629370430223,-0.468968,0.83936,-0.23119
1629370430233,-0.46909,0.838506,-0.23186099999999998
1629370430242,-0.468663,0.837591,-0.232288
1629370430252,-0.468724,0.837774,-0.233203
1629370430261,-0.468846,0.836859,-0.232288
1629370430271,-0.468968,0.837286,-0.232105
1629370430281,-0.468968,0.835639,-0.233325
1629370430290,-0.469151,0.8380179999999999,-0.23308099999999998
1629370430300,-0.47031,0.838262,-0.23125099999999998
1629370430309,-0.469456,0.839726,-0.23186099999999998
1629370430319,-0.470249,0.839055,-0.231495
1629370430329,-0.469822,0.839726,-0.232105
1629370430338,-0.469822,0.8392379999999999,-0.232105
1629370430348,-0.4697,0.839299,-0.23216599999999998
1629370430357,-0.4697,0.838689,-0.232227
1629370430367,-0.469151,0.840092,-0.232044
1629370430377,-0.467748,0.838994,-0.231922
1629370430386,-0.46909,0.837652,-0.231495
1629370430396,-0.469944,0.838445,-0.23186099999999998
1629370430405,-0.469944,0.83875,-0.231434
1629370430415,-0.4697,0.837896,-0.231678
1629370430425,-0.46921199999999996,0.8401529999999999,-0.231312
1629370430434,-0.4697,0.839604,-0.230275
1629370430444,-0.470005,0.839177,-0.231007
1629370430453,-0.470188,0.8395429999999999,-0.230763
1629370430463,-0.470249,0.840214,-0.230458
1629370430473,-0.470737,0.840641,-0.230458
1629370430482,-0.470493,0.840702,-0.230092
1629370430492,-0.47116399999999997,0.8404579999999999,-0.229299
1629370430501,-0.471896,0.841068,-0.228506
1629370430511,-0.472018,0.842288,-0.228262
1629370430521,-0.471713,0.843996,-0.22936
1629370430530,-0.471408,0.843935,-0.229116
1629370430540,-0.47146899999999997,0.844118,-0.23064099999999998
1629370430549,-0.471957,0.843203,-0.228994
1629370430559,-0.470493,0.841617,-0.22875
1629370430569,-0.469151,0.839299,-0.22813999999999998
1629370430578,-0.46829699999999996,0.838079,-0.228567
1629370430588,-0.467748,0.837957,-0.22936
1629370430597,-0.46799199999999996,0.8386279999999999,-0.230214
1629370430607,-0.46787,0.840214,-0.230458
1629370430617,-0.467443,0.8418,-0.228933
1629370430626,-0.468114,0.841373,-0.227286
1629370430636,-0.468358,0.841068,-0.226432
1629370430645,-0.46909,0.840702,-0.224724
1629370430655,-0.468724,0.840275,-0.225151
1629370430665,-0.468114,0.840702,-0.224846
1629370430674,-0.468358,0.841861,-0.223748
1629370430684,-0.467626,0.84119,-0.22447999999999999
1629370430693,-0.46726,0.840885,-0.225944
1629370430703,-0.467321,0.8418,-0.225944
1629370430713,-0.46768699999999996,0.842349,-0.225151
1629370430722,-0.466406,0.840702,-0.224846
1629370430732,-0.465918,0.841922,-0.224846
1629370430741,-0.466101,0.841556,-0.225151
1629370430751,-0.46482,0.841373,-0.22539499999999998
1629370430761,-0.464393,0.84119,-0.226859
1629370430770,-0.463661,0.840214,-0.226188
1629370430780,-0.463173,0.840946,-0.227774
1629370430789,-0.4636,0.840702,-0.228933
1629370430799,-0.462319,0.838872,-0.230824
1629370430809,-0.462868,0.838201,-0.231312
1629370430818,-0.461526,0.83936,-0.233142
1629370430828,-0.461099,0.83997,-0.234911
1629370430837,-0.460733,0.840519,-0.23668
1629370430847,-0.461404,0.8392379999999999,-0.237168
1629370430857,-0.460794,0.839726,-0.237595
1629370430866,-0.460794,0.839726,-0.237534
1629370430876,-0.460245,0.839665,-0.23912
1629370430885,-0.46116,0.839482,-0.23973
1629370430895,-0.46067199999999997,0.838506,-0.241194
1629370430905,-0.460916,0.837957,-0.24174299999999999
1629370430914,-0.461099,0.83875,-0.242536
1629370430924,-0.46177,0.839116,-0.243146
1629370430933,-0.46158699999999997,0.838506,-0.244244
1629370430943,-0.46128199999999997,0.83814,-0.24296299999999998
1629370430953,-0.462075,0.837896,-0.243146
1629370430962,-0.46189199999999997,0.837347,-0.242536
1629370430972,-0.46219699999999997,0.8364929999999999,-0.242475
1629370430981,-0.462624,0.836676,-0.241194
1629370430991,-0.463661,0.83692,-0.24095
1629370431001,-0.464088,0.836981,-0.241072
1629370431010,-0.462746,0.8364929999999999,-0.24156
1629370431020,-0.46494199999999997,0.836066,-0.24174299999999999
1629370431029,-0.464271,0.836066,-0.241987
1629370431039,-0.46311199999999997,0.83509,-0.242231
1629370431049,-0.465003,0.835517,-0.243451
1629370431058,-0.465308,0.835212,-0.243817
1629370431068,-0.465308,0.835029,-0.244122
1629370431077,-0.46604,0.835944,-0.243817
1629370431087,-0.46616199999999997,0.836981,-0.24357299999999998
1629370431097,-0.467626,0.837347,-0.243451
1629370431106,-0.467931,0.8392379999999999,-0.244976
1629370431116,-0.468541,0.8404579999999999,-0.24387799999999998
1629370431125,-0.46848,0.84119,-0.244732
1629370431135,-0.46860199999999996,0.843142,-0.24418299999999998
1629370431145,-0.46890699999999996,0.845277,-0.24461
1629370431154,-0.468663,0.845826,-0.24461
1629370431164,-0.468541,0.845765,-0.243634
1629370431173,-0.469273,0.844423,-0.242536
1629370431183,-0.46829699999999996,0.843203,-0.241926
1629370431193,-0.46799199999999996,0.842227,-0.240706
1629370431202,-0.467565,0.842044,-0.239425
1629370431212,-0.46726,0.840824,-0.23802199999999998
1629370431221,-0.46726,0.841678,-0.237351
1629370431231,-0.46646699999999996,0.842227,-0.236375
1629370431241,-0.466589,0.841434,-0.23399599999999998
1629370431250,-0.465674,0.841434,-0.232959
1629370431260,-0.466406,0.83997,-0.231678
1629370431269,-0.465674,0.838689,-0.230214
1629370431279,-0.466284,0.8383229999999999,-0.22936
1629370431289,-0.467016,0.838811,-0.227774
1629370431298,-0.468053,0.8389329999999999,-0.227591
1629370431308,-0.46726,0.8407629999999999,-0.225578
1629370431317,-0.467931,0.841129,-0.223992
1629370431327,-0.469395,0.842532,-0.222894
1629370431337,-0.470127,0.842898,-0.22082
1629370431346,-0.47092,0.843081,-0.21923399999999998
1629370431356,-0.470432,0.843752,-0.21892899999999998
1629370431365,-0.4697,0.845033,-0.219417
1629370431375,-0.469578,0.845948,-0.22021
1629370431385,-0.468785,0.845094,-0.219295
1629370431394,-0.46799199999999996,0.844606,-0.21899
1629370431404,-0.467748,0.842776,-0.217892
1629370431413,-0.46677199999999996,0.843752,-0.218685
1629370431423,-0.46646699999999996,0.843386,-0.21923399999999998
1629370431433,-0.465674,0.84302,-0.21899
1629370431442,-0.465064,0.84302,-0.219356
1629370431452,-0.464576,0.844179,-0.21953899999999998
1629370431461,-0.463295,0.843996,-0.220088
1629370431471,-0.462563,0.844484,-0.220576
1629370431481,-0.462136,0.843508,-0.22204
1629370431490,-0.460611,0.84363,-0.223809
1629370431500,-0.460611,0.842288,-0.224846
1629370431509,-0.459574,0.842105,-0.226432
1629370431519,-0.458903,0.84424,-0.227957
1629370431529,-0.457378,0.84424,-0.228872
1629370431538,-0.458171,0.84607,-0.23186099999999998
1629370431548,-0.456341,0.845582,-0.232532
1629370431557,-0.45597499999999996,0.8474119999999999,-0.235155
1629370431567,-0.455304,0.84729,-0.235948
1629370431577,-0.455609,0.844911,-0.237473
1629370431586,-0.455426,0.845094,-0.23851
1629370431596,-0.45414499999999997,0.845582,-0.240218
1629370431605,-0.453596,0.844423,-0.24015699999999998
1629370431615,-0.45353499999999997,0.844911,-0.24095
1629370431625,-0.452803,0.844301,-0.241804
1629370431634,-0.45322999999999997,0.844362,-0.24156
1629370431644,-0.452193,0.844301,-0.24296299999999998
1629370431653,-0.452254,0.844545,-0.24326799999999998
1629370431663,-0.45292499999999997,0.843813,-0.243207
1629370431673,-0.451339,0.843752,-0.244305
1629370431682,-0.452071,0.843203,-0.24418299999999998
1629370431692,-0.452437,0.842959,-0.244732
1629370431701,-0.452071,0.842959,-0.244
1629370431711,-0.452254,0.843081,-0.24448799999999998
1629370431721,-0.452437,0.843081,-0.244671
1629370431730,-0.451217,0.843691,-0.244976
1629370431740,-0.452864,0.844362,-0.243512
1629370431749,-0.45322999999999997,0.844118,-0.242902
1629370431759,-0.453718,0.84363,-0.244
1629370431769,-0.454389,0.842349,-0.243024
1629370431778,-0.454389,0.842288,-0.242597
1629370431788,-0.454267,0.842715,-0.242414
1629370431797,-0.454877,0.841617,-0.24235299999999999
1629370431807,-0.454572,0.842532,-0.243085
1629370431817,-0.455487,0.841617,-0.242231
1629370431826,-0.455731,0.841434,-0.241987
1629370431836,-0.455182,0.841373,-0.24156
1629370431845,-0.455548,0.841861,-0.24217
1629370431855,-0.456097,0.842471,-0.24278
1629370431865,-0.457012,0.842532,-0.24217
1629370431874,-0.45688999999999996,0.841617,-0.241987
1629370431884,-0.458049,0.842288,-0.241499
1629370431893,-0.45884199999999997,0.841922,-0.240828
1629370431903,-0.45945199999999997,0.841922,-0.240401
1629370431913,-0.459696,0.841251,-0.239608
1629370431922,-0.45914699999999997,0.841007,-0.240035
1629370431932,-0.460245,0.84058,-0.240767
1629370431941,-0.459635,0.841983,-0.240584
1629370431951,-0.459269,0.842349,-0.24156
1629370431961,-0.460611,0.842593,-0.242292
1629370431970,-0.461831,0.842593,-0.241255
1629370431980,-0.461404,0.84302,-0.240706
1629370431989,-0.461099,0.841495,-0.241316
1629370431999,-0.46219699999999997,0.842959,-0.239364
1629370432009,-0.46238,0.842349,-0.239608
1629370432018,-0.461953,0.841251,-0.238876
1629370432028,-0.462563,0.841312,-0.238876
1629370432037,-0.462868,0.841922,-0.238998
1629370432047,-0.462746,0.840885,-0.23863199999999998
1629370432057,-0.462075,0.840519,-0.238144
1629370432066,-0.462868,0.841678,-0.23851
1629370432076,-0.464149,0.841373,-0.238388
1629370432085,-0.4636,0.84058,-0.237778
1629370432095,-0.463966,0.839116,-0.237046
1629370432105,-0.465125,0.839055,-0.23668
1629370432114,-0.465674,0.838872,-0.235948
1629370432124,-0.46555199999999997,0.839604,-0.23741199999999998
1629370432133,-0.46665,0.8401529999999999,-0.237534
1629370432143,-0.466345,0.84119,-0.236863
1629370432153,-0.467748,0.842288,-0.235948
1629370432162,-0.467138,0.843264,-0.235521
1629370432172,-0.466833,0.842654,-0.234972
1629370432181,-0.467748,0.843081,-0.235338
1629370432191,-0.46848,0.84241,-0.234362
1629370432201,-0.468785,0.842593,-0.23424
1629370432210,-0.467626,0.842044,-0.233874
1629370432220,-0.467138,0.8404579999999999,-0.233813
1629370432229,-0.46677199999999996,0.8407629999999999,-0.234179
1629370432239,-0.46543,0.841129,-0.23424
1629370432249,-0.465674,0.841678,-0.235155
1629370432258,-0.464149,0.841312,-0.23607
1629370432268,-0.4636,0.839726,-0.23607
1629370432277,-0.463661,0.838811,-0.23558199999999999
1629370432287,-0.462868,0.837652,-0.23680199999999998
1629370432297,-0.46238,0.837225,-0.237534
1629370432306,-0.46158699999999997,0.837347,-0.237839
1629370432316,-0.462136,0.838384,-0.237656
1629370432325,-0.461953,0.839726,-0.238449
1629370432335,-0.461404,0.839482,-0.23924199999999998
1629370432345,-0.46177,0.840275,-0.240035
1629370432354,-0.460733,0.840519,-0.240218
1629370432364,-0.46116,0.840641,-0.240279
1629370432373,-0.459818,0.84058,-0.239913
1629370432383,-0.46036699999999997,0.841495,-0.240218
1629370432393,-0.46055,0.840519,-0.239913
1629370432402,-0.459574,0.841434,-0.24034
1629370432412,-0.45933,0.840275,-0.241072
1629370432421,-0.460428,0.840275,-0.241377
1629370432431,-0.46067199999999997,0.840641,-0.241926
1629370432441,-0.46067199999999997,0.841617,-0.242231
1629370432450,-0.460245,0.8407629999999999,-0.243756
1629370432460,-0.45914699999999997,0.841922,-0.24357299999999998
1629370432469,-0.459635,0.842471,-0.243512
1629370432479,-0.459696,0.842349,-0.24387799999999998
1629370432489,-0.459269,0.842166,-0.243451
1629370432498,-0.459696,0.842044,-0.24357299999999998
1629370432508,-0.459269,0.840885,-0.243695
1629370432517,-0.458964,0.840275,-0.243451
1629370432527,-0.45945199999999997,0.8401529999999999,-0.243817
1629370432537,-0.459025,0.84058,-0.243939
1629370432546,-0.45945199999999997,0.84119,-0.244732
1629370432556,-0.459635,0.841983,-0.245647
1629370432565,-0.459391,0.842715,-0.24522
1629370432575,-0.460306,0.843264,-0.245159
1629370432585,-0.45933,0.842227,-0.246257
1629370432594,-0.458537,0.842044,-0.245952
1629370432604,-0.458781,0.841373,-0.24540299999999998
1629370432613,-0.458232,0.840336,-0.24479299999999998
1629370432623,-0.458659,0.840702,-0.244976
1629370432633,-0.458598,0.840519,-0.244305
1629370432642,-0.45811,0.840641,-0.244915
1629370432652,-0.458354,0.84058,-0.243085
1629370432661,-0.458354,0.8401529999999999,-0.242414
1629370432671,-0.458781,0.841495,-0.241926
1629370432681,-0.459086,0.841373,-0.242536
1629370432690,-0.459574,0.840946,-0.242292
1629370432700,-0.458781,0.8407629999999999,-0.241987
1629370432709,-0.45933,0.840275,-0.241987
1629370432719,-0.45994,0.841068,-0.242109
1629370432729,-0.459391,0.840092,-0.242231
1629370432738,-0.46006199999999997,0.840824,-0.240828
1629370432748,-0.46006199999999997,0.840336,-0.241255
1629370432757,-0.460428,0.84119,-0.240645
1629370432767,-0.460611,0.840397,-0.241072
1629370432777,-0.461038,0.840092,-0.241011
1629370432786,-0.46097699999999997,0.840275,-0.241865
1629370432796,-0.461526,0.840031,-0.241804
1629370432805,-0.460611,0.841068,-0.240889
1629370432815,-0.45975699999999997,0.840702,-0.24174299999999999
1629370432825,-0.460733,0.841617,-0.241072
1629370432834,-0.459513,0.841129,-0.240706
1629370432844,-0.458781,0.841617,-0.23954699999999998
1629370432853,-0.458232,0.841861,-0.23973
1629370432863,-0.458354,0.841068,-0.239669
1629370432873,-0.456829,0.838811,-0.241194
1629370432882,-0.45627999999999996,0.837347,-0.23973
1629370432892,-0.454816,0.836127,-0.239974
1629370432901,-0.454633,0.83509,-0.240584
1629370432911,-0.453657,0.834419,-0.241133
1629370432921,-0.45383999999999997,0.839116,-0.241926
1629370432930,-0.453962,0.842959,-0.239486
1629370432940,-0.45475499999999996,0.844484,-0.237046
1629370432949,-0.456219,0.844484,-0.236375
1629370432959,-0.454694,0.843996,-0.23338599999999998
1629370432969,-0.452742,0.846924,-0.228933
1629370432978,-0.450424,0.8510719999999999,-0.223992
1629370432988,-0.446886,0.856196,-0.220881
1629370432997,-0.447191,0.8571719999999999,-0.223138
1629370433007,-0.446276,0.853573,-0.232105
1629370433017,-0.444446,0.848571,-0.243634
1629370433026,-0.443226,0.842166,-0.25668799999999997
1629370433036,-0.444019,0.831796,-0.267485
1629370433045,-0.447374,0.823256,-0.274988
1629370433055,-0.45078999999999997,0.817766,-0.279014
1629370433065,-0.454633,0.815082,-0.27816
1629370433074,-0.459269,0.817949,-0.272609
1629370433084,-0.46238,0.824659,-0.269803
1629370433093,-0.46311199999999997,0.833504,-0.264252
1629370433103,-0.463051,0.84119,-0.257847
1629370433113,-0.463783,0.845582,-0.25668799999999997
1629370433122,-0.463661,0.8477169999999999,-0.256871
1629370433132,-0.46250199999999997,0.8479,-0.25803
1629370433141,-0.46055,0.845277,-0.256017
1629370433151,-0.460855,0.838506,-0.255895
1629370433161,-0.46036699999999997,0.83021,-0.25638299999999997
1629370433170,-0.459025,0.8239879999999999,-0.25790799999999997
1629370433180,-0.4575,0.821243,-0.258274
1629370433189,-0.455182,0.823927,-0.256566
1629370433199,-0.452132,0.82838,-0.254736
1629370433209,-0.448167,0.831857,-0.248148
1629370433218,-0.445971,0.835822,-0.241133
1629370433228,-0.444507,0.841556,-0.232959
1629370433237,-0.445117,0.844911,-0.22600499999999998
1629370433247,-0.445239,0.842227,-0.220088
1629370433257,-0.44895999999999997,0.8367979999999999,-0.217831
1629370433266,-0.454389,0.828502,-0.2196
1629370433276,-0.460001,0.81923,-0.226127
1629370433285,-0.46372199999999997,0.810873,-0.237168
1629370433295,-0.468968,0.803553,-0.250649
1629370433305,-0.470615,0.797392,-0.263215
1629370433314,-0.471713,0.795989,-0.277367
1629370433324,-0.473482,0.796294,-0.292373
1629370433333,-0.47329899999999997,0.798307,-0.30597599999999997
1629370433343,-0.47482399999999997,0.8020889999999999,-0.318725
1629370433353,-0.47848399999999996,0.803797,-0.329827
1629370433362,-0.483242,0.8036139999999999,-0.33672
1629370433372,-0.48836599999999997,0.8057489999999999,-0.340746
1629370433381,-0.492514,0.803858,-0.343064
1629370433391,-0.497089,0.797026,-0.34294199999999997
1629370433401,-0.50081,0.793244,-0.345443
1629370433410,-0.50203,0.790926,-0.348676
1629370433420,-0.503189,0.791719,-0.357338
1629370433429,-0.501908,0.791292,-0.37033099999999997
1629370433439,-0.49885799999999997,0.790377,-0.38552
1629370433449,-0.49641799999999997,0.789706,-0.403759
1629370433458,-0.493124,0.790133,-0.416203
1629370433468,-0.490318,0.786839,-0.424987
1629370433477,-0.488427,0.781349,-0.431392
1629370433487,-0.488122,0.780312,-0.435235
1629370433497,-0.483913,0.7783599999999999,-0.43737
1629370433506,-0.479582,0.7765299999999999,-0.435967
1629370433516,-0.4758,0.776957,-0.435052
1629370433525,-0.47214,0.776896,-0.431697
1629370433535,-0.46604,0.775981,-0.433039
1629370433545,-0.459574,0.774578,-0.43633299999999997
1629370433554,-0.452986,0.777384,-0.441335
1629370433564,-0.445056,0.779214,-0.449509
1629370433573,-0.438895,0.776469,-0.45078999999999997
1629370433583,-0.436089,0.769881,-0.452559
1629370433593,-0.433893,0.765428,-0.451461
1629370433602,-0.430965,0.7650009999999999,-0.449082
1629370433612,-0.427915,0.7656109999999999,-0.447862
1629370433621,-0.426573,0.764635,-0.44804499999999997
1629370433631,-0.422425,0.763842,-0.446764
1629370433641,-0.419863,0.7616459999999999,-0.446642
1629370433650,-0.418277,0.762073,-0.451522
1629370433660,-0.413092,0.765062,-0.457073
1629370433669,-0.408944,0.771223,-0.463356
1629370433679,-0.403454,0.776347,-0.465796
1629370433689,-0.399733,0.773419,-0.468663
1629370433698,-0.401258,0.774883,-0.465186
1629370433708,-0.398635,0.780068,-0.463539
1629370433717,-0.396927,0.7847649999999999,-0.46311199999999997
1629370433727,-0.394304,0.786656,-0.463295
1629370433737,-0.390583,0.7887299999999999,-0.461953
1629370433746,-0.386191,0.789157,-0.460855
1629370433756,-0.384056,0.786534,-0.461526
1629370433765,-0.38247,0.787022,-0.46189199999999997
1629370433775,-0.37990799999999997,0.7859849999999999,-0.463539
1629370433785,-0.378261,0.7862899999999999,-0.46665
1629370433794,-0.374601,0.784643,-0.46738199999999996
1629370433804,-0.372466,0.783118,-0.468663
1629370433813,-0.371856,0.785436,-0.467626
1629370433823,-0.37033099999999997,0.788669,-0.46604
1629370433833,-0.368013,0.791414,-0.463356
1629370433842,-0.366915,0.7920849999999999,-0.461038
1629370433852,-0.36819599999999997,0.7896449999999999,-0.459269
1629370433861,-0.369538,0.789828,-0.456951
1629370433871,-0.371368,0.789584,-0.455548
1629370433881,-0.370209,0.791719,-0.442494
1629370433890,-0.37155099999999996,0.795196,-0.428952
1629370433900,-0.36941599999999997,0.785802,-0.434137
1629370433909,-0.376736,0.775676,-0.437919
1629370433919,-0.382836,0.773785,-0.449082
1629370433929,-0.391864,0.775859,-0.452437
1629370433938,-0.396134,0.784338,-0.453779
1629370433948,-0.40150199999999997,0.785192,-0.457744
1629370433957,-0.407236,0.784887,-0.45872
1629370433967,-0.412726,0.7878149999999999,-0.456097
1629370433977,-0.416813,0.791719,-0.448594
1629370433986,-0.418216,0.796111,-0.440176
1629370433996,-0.419802,0.8014789999999999,-0.431392
1629370434005,-0.422547,0.803248,-0.423828
1629370434015,-0.425109,0.804285,-0.418643
1629370434025,-0.42675599999999997,0.804163,-0.41602
1629370434034,-0.42883,0.803675,-0.413031
1629370434044,-0.42883,0.80154,-0.410835
1629370434053,-0.428037,0.79971,-0.411628
1629370434063,-0.428525,0.797758,-0.411323
1629370434073,-0.429318,0.794403,-0.411323
1629370434082,-0.429318,0.790377,-0.410225
1629370434092,-0.42980599999999997,0.788303,-0.408639
1629370434101,-0.43127,0.786778,-0.410225
1629370434111,-0.431514,0.785558,-0.411628
1629370434121,-0.431453,0.785924,-0.412787
1629370434130,-0.43127,0.784216,-0.413946
1629370434140,-0.431758,0.783484,-0.416813
1629370434149,-0.431453,0.780861,-0.418277
1629370434159,-0.432124,0.7759199999999999,-0.421327
1629370434169,-0.43432,0.772138,-0.423584
1629370434178,-0.43493,0.771162,-0.42553599999999997
1629370434188,-0.43493,0.771345,-0.428647
1629370434197,-0.43554,0.774761,-0.43188
1629370434207,-0.435357,0.775188,-0.432612
1629370434217,-0.434686,0.777384,-0.43224599999999996
1629370434226,-0.434137,0.781044,-0.432612
1629370434236,-0.43255099999999996,0.784704,-0.43127
1629370434245,-0.43127,0.787144,-0.427488
1629370434255,-0.429074,0.789767,-0.424438
1629370434265,-0.423157,0.7911699999999999,-0.419802
1629370434274,-0.417606,0.788913,-0.416386
1629370434284,-0.41297,0.783179,-0.418765
1629370434293,-0.410957,0.780373,-0.424438
1629370434303,-0.40821199999999996,0.779641,-0.43224599999999996
1629370434313,-0.40516199999999997,0.782142,-0.440359
1629370434322,-0.403088,0.782569,-0.447008
1629370434332,-0.400648,0.784216,-0.45017999999999997
1629370434341,-0.397232,0.785802,-0.453657
1629370434351,-0.393389,0.787754,-0.456463
1629370434361,-0.391254,0.789279,-0.459086
1629370434370,-0.388143,0.7896449999999999,-0.460001
1629370434380,-0.386191,0.787083,-0.459208
1629370434389,-0.386191,0.785009,-0.458781
1629370434399,-0.386984,0.783301,-0.458598
1629370434409,-0.385764,0.783728,-0.459696
1629370434418,-0.386679,0.783728,-0.462258
1629370434428,-0.387106,0.7841549999999999,-0.463844
1629370434437,-0.386252,0.7835449999999999,-0.465003
1629370434447,-0.385947,0.782569,-0.465613
1629370434457,-0.384483,0.7841549999999999,-0.466589
1629370434466,-0.38186,0.785802,-0.465796
1629370434476,-0.38143299999999997,0.787632,-0.46219699999999997
1629370434485,-0.380396,0.7875099999999999,-0.45884199999999997
1629370434495,-0.381189,0.7868999999999999,-0.456036
1629370434505,-0.381311,0.786168,-0.453413
1629370434514,-0.382775,0.7853749999999999,-0.452071
1629370434524,-0.38356799999999996,0.785436,-0.451461
1629370434533,-0.382104,0.786168,-0.45200999999999997
1629370434543,-0.38356799999999996,0.784704,-0.453779
1629370434553,-0.383019,0.785558,-0.455243
1629370434562,-0.385398,0.787571,-0.457805
1629370434572,-0.386191,0.786961,-0.46097699999999997
1629370434581,-0.387045,0.783606,-0.463356
1629370434591,-0.389058,0.7814099999999999,-0.462929
1629370434601,-0.390766,0.7801899999999999,-0.460306
1629370434610,-0.38978999999999997,0.7814099999999999,-0.455426
1629370434620,-0.388997,0.784948,-0.448228
1629370434629,-0.387899,0.786168,-0.44243299999999997
1629370434639,-0.38826499999999997,0.786778,-0.43846799999999997
1629370434649,-0.389241,0.786961,-0.433954
1629370434658,-0.390644,0.783972,-0.435357
1629370434668,-0.393572,0.782752,-0.43846799999999997
1629370434677,-0.39527999999999996,0.785802,-0.443592
1629370434687,-0.396012,0.787632,-0.446154
1629370434697,-0.396317,0.791658,-0.445422
1629370434706,-0.395036,0.793488,-0.443592
1629370434716,-0.39314499999999997,0.794952,-0.441396
1629370434725,-0.394243,0.793366,-0.440237
1629370434735,-0.394182,0.789828,-0.43999299999999997
1629370434745,-0.395463,0.789523,-0.44164
1629370434754,-0.397293,0.7890349999999999,-0.443104
1629370434764,-0.397293,0.789889,-0.44456799999999996
1629370434773,-0.39772,0.791353,-0.444751
1629370434783,-0.397537,0.79239,-0.445361
1629370434793,-0.398208,0.792695,-0.445422
1629370434802,-0.39833,0.792512,-0.447374
1629370434812,-0.398574,0.791414,-0.449448
1629370434821,-0.398879,0.791597,-0.449692
1629370434831,-0.39833,0.791109,-0.449936
1629370434841,-0.397903,0.790133,-0.450973
1629370434850,-0.399306,0.789096,-0.453413
1629370434860,-0.40138,0.788669,-0.453596
1629370434869,-0.40150199999999997,0.788974,-0.453901
1629370434879,-0.40211199999999997,0.789218,-0.452864
1629370434889,-0.39997699999999997,0.790804,-0.447191
1629370434898,-0.398147,0.793671,-0.44365299999999996
1629370434908,-0.397415,0.789157,-0.440542
1629370434917,-0.398025,0.788059,-0.440176
1629370434927,-0.398757,0.783362,-0.43816299999999997
1629370434937,-0.398452,0.778787,-0.438346
1629370434946,-0.399184,0.777262,-0.440725
1629370434956,-0.399611,0.779397,-0.44286
1629370434965,-0.400709,0.780373,-0.445605
1629370434975,-0.401136,0.780617,-0.450424
1629370434985,-0.401868,0.7795799999999999,-0.453352
1629370434994,-0.403515,0.7801899999999999,-0.457866
1629370435004,-0.404735,0.779641,-0.45884199999999997
1629370435013,-0.406199,0.780434,-0.462014
1629370435023,-0.40729699999999996,0.780007,-0.46299
1629370435033,-0.408578,0.7829349999999999,-0.462685
1629370435042,-0.409737,0.782569,-0.460306
1629370435052,-0.410225,0.781532,-0.457439
1629370435061,-0.408151,0.7804949999999999,-0.454572
1629370435071,-0.407419,0.780434,-0.449448
1629370435081,-0.406138,0.780983,-0.445788
1629370435090,-0.404186,0.780434,-0.441274
1629370435100,-0.402173,0.780983,-0.438041
1629370435109,-0.399611,0.7832399999999999,-0.436882
1629370435119,-0.397354,0.784094,-0.43615
1629370435129,-0.39711,0.7853749999999999,-0.436882
1629370435138,-0.396866,0.785558,-0.43785799999999997
1629370435148,-0.396988,0.784582,-0.440359
1629370435157,-0.396378,0.786534,-0.446215
1629370435167,-0.396378,0.788547,-0.448899
1629370435177,-0.393328,0.791109,-0.449082
1629370435186,-0.389973,0.788242,-0.447984
1629370435196,-0.386984,0.785131,-0.444934
1629370435205,-0.382836,0.784094,-0.44273799999999996
1629370435215,-0.382897,0.783667,-0.44408
1629370435225,-0.383385,0.782691,-0.447008
1629370435234,-0.38369,0.783484,-0.44987499999999997
1629370435244,-0.383446,0.785131,-0.454633
1629370435253,-0.384544,0.785131,-0.45994
1629370435263,-0.38387299999999996,0.7841549999999999,-0.463295
1629370435273,-0.384544,0.783667,-0.467565
1629370435282,-0.38491,0.783362,-0.469883
1629370435292,-0.387289,0.784277,-0.471652
1629370435301,-0.38978999999999997,0.7826299999999999,-0.473726
1629370435311,-0.391681,0.783606,-0.473848
1629370435321,-0.392413,0.7850699999999999,-0.472445
1629370435330,-0.394487,0.785131,-0.469944
1629370435340,-0.397354,0.783423,-0.46787
1629370435349,-0.398208,0.783972,-0.46677199999999996
1629370435359,-0.399245,0.785802,-0.465308
1629370435369,-0.39936699999999997,0.787632,-0.464576
1629370435378,-0.40058699999999997,0.788181,-0.46433199999999997
1629370435388,-0.399855,0.785314,-0.464576
1629370435397,-0.399794,0.783179,-0.46463699999999997
1629370435407,-0.39936699999999997,0.782874,-0.464576
1629370435417,-0.395219,0.784643,-0.460184
1629370435426,-0.393511,0.782386,-0.455243
1629370435436,-0.390583,0.778299,-0.452742
1629370435445,-0.390217,0.776347,-0.45078999999999997
1629370435455,-0.389119,0.775554,-0.451034
1629370435465,-0.387777,0.775249,-0.451217
1629370435474,-0.388509,0.773968,-0.453108
1629370435484,-0.391864,0.771894,-0.454572
1629370435493,-0.392657,0.772992,-0.457012
1629370435503,-0.39497499999999997,0.772931,-0.458964
1629370435513,-0.397293,0.774944,-0.46128199999999997
1629370435522,-0.398818,0.779763,-0.463234
1629370435532,-0.398452,0.782569,-0.461526
1629370435541,-0.397415,0.784033,-0.457134
1629370435551,-0.396622,0.785619,-0.453413
1629370435561,-0.396073,0.788242,-0.45078999999999997
1629370435570,-0.398391,0.787388,-0.447069
1629370435580,-0.39997699999999997,0.785741,-0.446764
1629370435589,-0.403271,0.7862899999999999,-0.447557
1629370435599,-0.401929,0.7881199999999999,-0.445178
1629370435609,-0.403271,0.787754,-0.44273799999999996
1629370435618,-0.403515,0.787388,-0.442494
1629370435628,-0.401685,0.786656,-0.440847
1629370435637,-0.39936699999999997,0.784826,-0.439932
1629370435647,-0.399245,0.7859849999999999,-0.438651
1629370435657,-0.399184,0.786229,-0.43981
1629370435666,-0.39894,0.786351,-0.440054
1629370435676,-0.398208,0.7887299999999999,-0.440847
1629370435685,-0.396744,0.790316,-0.43968799999999997
1629370435695,-0.396439,0.788608,-0.43968799999999997
1629370435705,-0.396073,0.7868999999999999,-0.440481
1629370435714,-0.394731,0.784887,-0.44212799999999997
1629370435724,-0.395768,0.783606,-0.445178
1629370435733,-0.397903,0.783728,-0.44895999999999997
1629370435743,-0.398574,0.784582,-0.452742
1629370435753,-0.399855,0.784338,-0.455426
1629370435762,-0.402539,0.785253,-0.455914
1629370435772,-0.404369,0.785009,-0.455548
1629370435781,-0.406321,0.784216,-0.454084
1629370435791,-0.407663,0.784094,-0.452193
1629370435801,-0.40760199999999996,0.784826,-0.44926499999999997
1629370435810,-0.408029,0.7835449999999999,-0.445544
1629370435820,-0.407541,0.783423,-0.442494
1629370435829,-0.407358,0.782874,-0.442189
1629370435839,-0.405223,0.781654,-0.44304299999999996
1629370435849,-0.403515,0.782996,-0.446215
1629370435858,-0.400404,0.784887,-0.451217
1629370435868,-0.397903,0.783484,-0.455914
1629370435877,-0.39527999999999996,0.781959,-0.45914699999999997
1629370435887,-0.393999,0.780739,-0.461953
1629370435897,-0.39558499999999996,0.781349,-0.46433199999999997
1629370435906,-0.395768,0.780617,-0.467931
1629370435916,-0.39772,0.7801899999999999,-0.46921199999999996
1629370435925,-0.397964,0.779336,-0.470371
1629370435935,-0.400404,0.781044,-0.46829699999999996
1629370435945,-0.401685,0.783057,-0.466894
1629370435954,-0.402173,0.783606,-0.46421
1629370435964,-0.403393,0.782508,-0.460916
1629370435973,-0.40455199999999997,0.781654,-0.457439
1629370435983,-0.40516199999999997,0.7804949999999999,-0.455121
1629370435993,-0.404735,0.779153,-0.45444999999999997
1629370436002,-0.404064,0.778604,-0.45322999999999997
1629370436012,-0.402661,0.7798849999999999,-0.452132
1629370436021,-0.400953,0.780983,-0.449204
1629370436031,-0.400343,0.780983,-0.448838
1629370436041,-0.39955,0.7789699999999999,-0.448228
1629370436050,-0.399184,0.775188,-0.452437
1629370436060,-0.396988,0.775554,-0.455304
1629370436069,-0.394731,0.779641,-0.456951
1629370436079,-0.394609,0.782874,-0.458232
1629370436089,-0.392352,0.783362,-0.458964
1629370436098,-0.391681,0.783179,-0.459269
1629370436108,-0.391681,0.780983,-0.462258
1629370436117,-0.391254,0.775432,-0.470737
1629370436127,-0.389851,0.771345,-0.476776
1629370436137,-0.388509,0.770918,-0.478423
1629370436146,-0.388021,0.774334,-0.476532
1629370436156,-0.386862,0.778787,-0.473177
1629370436165,-0.387594,0.781898,-0.470554
1629370436175,-0.386313,0.7868999999999999,-0.467931
1629370436185,-0.385764,0.788791,-0.465369
1629370436194,-0.384422,0.7905599999999999,-0.46280699999999997
1629370436204,-0.383446,0.791292,-0.45884199999999997
1629370436213,-0.382775,0.789706,-0.456951
1629370436223,-0.383141,0.7862899999999999,-0.454267
1629370436233,-0.38186,0.784643,-0.454084
1629370436242,-0.379481,0.785314,-0.454267
1629370436252,-0.37716299999999997,0.7893399999999999,-0.454328
1629370436261,-0.373625,0.791841,-0.456036
1629370436271,-0.37033099999999997,0.794708,-0.45872
1629370436281,-0.367037,0.795806,-0.46097699999999997
1629370436290,-0.366488,0.794891,-0.464271
1629370436300,-0.362584,0.795013,-0.46768699999999996
1629370436309,-0.357277,0.794098,-0.469517
1629370436319,-0.351726,0.795928,-0.469761
1629370436329,-0.346053,0.798612,-0.469273
1629370436338,-0.340868,0.80032,-0.469761
1629370436348,-0.335439,0.803065,-0.469761
1629370436357,-0.32909499999999997,0.80703,-0.469944
1629370436367,-0.324459,0.808433,-0.470188
1629370436377,-0.320006,0.8066639999999999,-0.473848
1629370436386,-0.315248,0.803492,-0.47604399999999997
1629370436396,-0.308904,0.804041,-0.477325
1629370436405,-0.304268,0.806603,-0.47946
1629370436415,-0.300242,0.810995,-0.47885
1629370436425,-0.29456899999999997,0.815265,-0.47824
1629370436434,-0.289506,0.816302,-0.47909399999999996
1629370436444,-0.286578,0.814838,-0.476166
1629370436453,-0.283589,0.812825,-0.47482399999999997
1629370436463,-0.28224699999999997,0.812642,-0.47275
1629370436473,-0.27938,0.8124589999999999,-0.47238399999999997
1629370436482,-0.278282,0.811361,-0.473116
1629370436492,-0.27816,0.8097139999999999,-0.474336
1629370436501,-0.276818,0.8069689999999999,-0.47458
1629370436511,-0.274927,0.803553,-0.47878899999999996
1629370436521,-0.274927,0.799588,-0.483547
1629370436530,-0.275781,0.798124,-0.487085
1629370436540,-0.274744,0.799283,-0.49263599999999996
1629370436549,-0.274378,0.8030039999999999,-0.496601
1629370436559,-0.275537,0.805322,-0.50081
1629370436569,-0.277306,0.805078,-0.49959
1629370436578,-0.28346699999999997,0.808738,-0.488183
1629370436588,-0.275964,0.8118489999999999,-0.500017
1629370436597,-0.28102699999999997,0.795928,-0.494283
1629370436607,-0.284138,0.79483,-0.505568
1629370436617,-0.288347,0.795501,-0.507703
1629370436626,-0.289445,0.794769,-0.508984
1629370436636,-0.29402,0.797331,-0.505629
1629370436645,-0.296948,0.797392,-0.505568
1629370436655,-0.299205,0.794098,-0.508679
1629370436665,-0.301157,0.795928,-0.506788
1629370436674,-0.30475599999999997,0.800381,-0.504287
1629370436684,-0.30622,0.802638,-0.501603
1629370436693,-0.30567099999999997,0.8063589999999999,-0.497455
1629370436703,-0.30439,0.811605,-0.492758
1629370436713,-0.302743,0.810202,-0.490623
1629370436722,-0.301279,0.805261,-0.489037
1629370436732,-0.299815,0.802516,-0.488549
1629370436741,-0.299144,0.800442,-0.489464
1629370436751,-0.300181,0.79727,-0.491233
1629370436761,-0.299754,0.794586,-0.495015
1629370436770,-0.299632,0.793427,-0.50081
1629370436780,-0.298656,0.794403,-0.505202
1629370436789,-0.298656,0.797087,-0.507947
1629370436799,-0.298168,0.7990389999999999,-0.510631
1629370436809,-0.298412,0.801052,-0.510692
1629370436818,-0.298107,0.800442,-0.510082
1629370436828,-0.298351,0.7990389999999999,-0.507886
1629370436837,-0.299632,0.79605,-0.505812
1629370436847,-0.300364,0.794342,-0.502823
1629370436857,-0.299815,0.793427,-0.500139
1629370436866,-0.30012,0.791048,-0.500322
1629370436876,-0.300852,0.791658,-0.499224
1629370436885,-0.301035,0.792146,-0.501359
1629370436895,-0.300974,0.7905599999999999,-0.503799
1629370436905,-0.30256,0.788974,-0.505873
1629370436914,-0.301706,0.790743,-0.506849
1629370436924,-0.302194,0.792329,-0.508618
1629370436933,-0.301706,0.792878,-0.511851
1629370436943,-0.301218,0.793854,-0.512034
1629370436953,-0.299327,0.793854,-0.511668
1629370436962,-0.29731399999999997,0.795623,-0.511546
1629370436972,-0.295972,0.795074,-0.510936
1629370436981,-0.294508,0.795013,-0.510265
1629370436991,-0.293288,0.794464,-0.512522
1629370437001,-0.29212899999999997,0.791658,-0.5136809999999999
1629370437010,-0.290604,0.791963,-0.516182
1629370437020,-0.288713,0.790133,-0.51667
1629370437029,-0.287554,0.789523,-0.5185609999999999
1629370437039,-0.28621199999999997,0.788486,-0.519842
1629370437049,-0.285541,0.7896449999999999,-0.519049
1629370437058,-0.285175,0.7899499999999999,-0.519232
1629370437068,-0.286151,0.789096,-0.5185
1629370437077,-0.28590699999999997,0.7899499999999999,-0.518439
1629370437087,-0.28560199999999997,0.789523,-0.5173409999999999
1629370437097,-0.286517,0.788974,-0.51667
1629370437106,-0.287554,0.788242,-0.51606
1629370437116,-0.287859,0.788059,-0.518988
1629370437125,-0.288835,0.788669,-0.5210009999999999
1629370437135,-0.28914,0.787937,-0.523807
1629370437145,-0.290177,0.786046,-0.527345
1629370437154,-0.291397,0.785436,-0.528138
1629370437164,-0.2928,0.7853749999999999,-0.528504
1629370437173,-0.29304399999999997,0.786534,-0.528626
1629370437183,-0.295362,0.787876,-0.526796
1629370437193,-0.296582,0.790621,-0.5206959999999999
1629370437202,-0.296826,0.792329,-0.514413
1629370437212,-0.296582,0.7911699999999999,-0.509655
1629370437221,-0.297192,0.789584,-0.50447
1629370437231,-0.298961,0.790743,-0.501542
1629370437241,-0.299388,0.792878,-0.50081
1629370437250,-0.301096,0.79361,-0.503372
1629370437260,-0.300852,0.792878,-0.507276
1629370437269,-0.301157,0.791963,-0.512156
1629370437279,-0.301767,0.79239,-0.515694
1629370437289,-0.300547,0.794586,-0.517524
1629370437298,-0.298473,0.797697,-0.515389
1629370437308,-0.297741,0.797697,-0.511302
1629370437317,-0.296338,0.796538,-0.508313
1629370437327,-0.295423,0.794891,-0.504653
1629370437337,-0.29487399999999997,0.793244,-0.50081
1629370437346,-0.29578899999999997,0.792695,-0.500871
1629370437356,-0.296033,0.79483,-0.501664
1629370437365,-0.29548399999999997,0.796355,-0.501847
1629370437375,-0.29487399999999997,0.797026,-0.501847
1629370437385,-0.293227,0.796111,-0.5002
1629370437394,-0.292861,0.794159,-0.499712
1629370437404,-0.29158,0.791902,-0.499834
1629370437413,-0.29097,0.7914749999999999,-0.501176
1629370437423,-0.291397,0.791536,-0.502335
1629370437433,-0.291519,0.793427,-0.503494
1629370437442,-0.29036,0.793183,-0.504165
1629370437452,-0.290604,0.795867,-0.50691
1629370437461,-0.289384,0.798612,-0.507825
1629370437471,-0.289506,0.800198,-0.509045
1629370437481,-0.288286,0.800625,-0.509655
1629370437490,-0.287981,0.800015,-0.510631
1629370437500,-0.287371,0.800686,-0.512888
1629370437509,-0.28609,0.800137,-0.51545
1629370437519,-0.285785,0.798063,-0.51728
1629370437529,-0.28609,0.794952,-0.519537
1629370437538,-0.286395,0.7917799999999999,-0.520147
1629370437548,-0.286395,0.791902,-0.519537
1629370437557,-0.287371,0.791048,-0.521245
1629370437567,-0.288652,0.788913,-0.5219159999999999
1629370437577,-0.288652,0.7881199999999999,-0.52094
1629370437586,-0.291336,0.790133,-0.51911
1629370437596,-0.291458,0.792817,-0.5164259999999999
1629370437605,-0.292678,0.794769,-0.512644
1629370437615,-0.294203,0.795562,-0.507337
1629370437625,-0.294508,0.798185,-0.502945
1629370437634,-0.29524,0.798246,-0.499224
1629370437644,-0.295362,0.795806,-0.49715
1629370437653,-0.29609399999999997,0.79422,-0.496357
1629370437663,-0.296338,0.795257,-0.49489299999999997
1629370437673,-0.295667,0.795135,-0.498126
1629370437682,-0.296216,0.793488,-0.49916299999999997
1629370437692,-0.29585,0.793427,-0.503616
1629370437701,-0.294081,0.793976,-0.50874
1629370437711,-0.294996,0.792634,-0.512278
1629370437721,-0.294691,0.791963,-0.51423
1629370437730,-0.295728,0.788791,-0.5155109999999999
1629370437740,-0.295728,0.789279,-0.5170359999999999
1629370437749,-0.29524,0.790682,-0.515938
1629370437759,-0.295545,0.794159,-0.513925
1629370437769,-0.296216,0.796233,-0.510692
1629370437778,-0.295606,0.796477,-0.505202
1629370437788,-0.29456899999999997,0.796477,-0.503921
1629370437797,-0.29463,0.796172,-0.500078
1629370437807,-0.292312,0.796782,-0.499102
1629370437817,-0.291214,0.798124,-0.498614
1629370437826,-0.289933,0.798368,-0.496662
1629370437836,-0.288713,0.800442,-0.495137
1629370437845,-0.288835,0.800503,-0.491782
1629370437855,-0.288164,0.79666,-0.490989
1629370437865,-0.2867,0.795745,-0.49141599999999996
1629370437874,-0.285236,0.794708,-0.493734
1629370437884,-0.285785,0.795806,-0.495625
1629370437893,-0.28621199999999997,0.794342,-0.497821
1629370437903,-0.287432,0.794952,-0.498004
1629370437913,-0.288164,0.797941,-0.500993
1629370437922,-0.289262,0.798856,-0.503616
1629370437932,-0.291702,0.796721,-0.506178
1629370437941,-0.294081,0.791353,-0.508557
1629370437951,-0.297863,0.789157,-0.509045
1629370437961,-0.301828,0.7893399999999999,-0.509472
1629370437970,-0.303353,0.791109,-0.507032
1629370437980,-0.30719599999999997,0.793122,-0.503433
1629370437989,-0.309819,0.794952,-0.499102
1629370437999,-0.314699,0.794586,-0.4941
1629370438009,-0.318176,0.794403,-0.489525
1629370438018,-0.32104299999999997,0.79422,-0.484157
1629370438028,-0.326838,0.797148,-0.48092399999999996
1629370438037,-0.330864,0.799771,-0.479338
1629370438047,-0.336049,0.803126,-0.475251
1629370438057,-0.340746,0.803126,-0.471591
1629370438066,-0.346419,0.8014789999999999,-0.467443
1629370438076,-0.352031,0.794525,-0.46250199999999997
1629370438085,-0.361608,0.782874,-0.458476
1629370438095,-0.370209,0.777506,-0.45945199999999997
1629370438105,-0.379176,0.776042,-0.459208
1629370438114,-0.388143,0.776957,-0.45884199999999997
1629370438124,-0.395097,0.779214,-0.457439
1629370438133,-0.401014,0.780007,-0.455182
1629370438143,-0.40809,0.7804949999999999,-0.448533
1629370438153,-0.413885,0.778177,-0.445605
1629370438162,-0.423584,0.774395,-0.440359
1629370438172,-0.435845,0.764513,-0.435967
1629370438181,-0.446764,0.755973,-0.434198
1629370438191,-0.457683,0.750117,-0.428464
1629370438201,-0.469273,0.754875,-0.429928
1629370438210,-0.47702,0.762805,-0.423462
1629370438220,-0.483913,0.76982,-0.41504399999999997
1629370438229,-0.490013,0.7759199999999999,-0.408456
1629370438239,-0.495076,0.779519,-0.40028199999999997
1629370438249,-0.501786,0.777567,-0.39222999999999997
1629370438258,-0.509167,0.768234,-0.385642
1629370438268,-0.520513,0.755485,-0.38295799999999997
1629370438277,-0.527223,0.745237,-0.383202
1629370438287,-0.533445,0.740296,-0.382104
1629370438297,-0.537959,0.743163,-0.37899299999999997
1629370438306,-0.5422899999999999,0.752862,-0.375699
1629370438316,-0.544852,0.762134,-0.371063
1629370438325,-0.547963,0.76616,-0.363255
1629370438335,-0.551318,0.7665259999999999,-0.356545
1629370438345,-0.556137,0.7659159999999999,-0.350506
1629370438354,-0.557418,0.768234,-0.345626
1629370438364,-0.558333,0.77348,-0.341478
1629370438373,-0.559736,0.781898,-0.336171
1629370438383,-0.56181,0.7865949999999999,-0.328546
1629370438393,-0.5638839999999999,0.780983,-0.32195799999999997
1629370438402,-0.569252,0.772199,-0.312625
1629370438412,-0.575474,0.766099,-0.302255
1629370438421,-0.578158,0.761585,-0.295423
1629370438431,-0.581757,0.762073,-0.290665
1629370438441,-0.583587,0.768539,-0.28346699999999997
1629370438450,-0.582306,0.777262,-0.273829
1629370438460,-0.580293,0.781593,-0.262971
1629370438469,-0.577365,0.7887299999999999,-0.25193
1629370438479,-0.574681,0.794464,-0.241133
1629370438489,-0.570838,0.79971,-0.230092
1629370438498,-0.567422,0.804712,-0.219417
1629370438508,-0.567361,0.805383,-0.210511
1629370438517,-0.5629689999999999,0.806115,-0.201544
1629370438527,-0.5612,0.806603,-0.18873399999999999
1629370438537,-0.559126,0.803431,-0.177571
1629370438546,-0.558577,0.79971,-0.168055
1629370438556,-0.558699,0.796477,-0.160247
1629370438565,-0.557906,0.791963,-0.154452
1629370438575,-0.55754,0.790194,-0.15067
1629370438585,-0.556381,0.7902549999999999,-0.144997
1629370438594,-0.555405,0.793305,-0.141703
1629370438604,-0.554612,0.79605,-0.136457
1629370438613,-0.553331,0.798978,-0.132065
1629370438623,-0.551745,0.8017839999999999,-0.131272
1629370438633,-0.549488,0.806847,-0.12986899999999998
1629370438642,-0.547719,0.8100189999999999,-0.12834399999999999
1629370438652,-0.546499,0.8127639999999999,-0.127063
1629370438661,-0.5432049999999999,0.81618,-0.122671
1629370438671,-0.537776,0.817888,-0.118523
1629370438681,-0.535702,0.819169,-0.113399
1629370438690,-0.53558,0.82106,-0.107177
1629370438700,-0.532896,0.824659,-0.101321
1629370438709,-0.530578,0.825696,-0.098149
1629370438719,-0.52826,0.825269,-0.097417
1629370438729,-0.524356,0.825391,-0.097966
1629370438738,-0.521794,0.824232,-0.100406
1629370438748,-0.519354,0.824842,-0.105408
1629370438757,-0.514169,0.8296,-0.107543
1629370438767,-0.508496,0.8316129999999999,-0.111264
1629370438777,-0.503494,0.832589,-0.115107
1629370438786,-0.498004,0.835395,-0.116144
1629370438796,-0.493185,0.836676,-0.118279
1629370438805,-0.48806099999999997,0.83509,-0.119804
1629370438815,-0.485438,0.832955,-0.120963
1629370438825,-0.481351,0.8306979999999999,-0.122671
1629370438834,-0.479033,0.828624,-0.125233
1629370438844,-0.474885,0.827709,-0.124379
1629370438853,-0.474946,0.825452,-0.124806
1629370438863,-0.476288,0.8252079999999999,-0.125355
1629370438873,-0.47909399999999996,0.827892,-0.127002
1629370438882,-0.481961,0.831735,-0.128832
1629370438892,-0.484279,0.83753,-0.129137
1629370438901,-0.487695,0.84424,-0.12895399999999999
1629370438911,-0.486902,0.852719,-0.128039
1629370438921,-0.48775599999999997,0.864065,-0.127124
1629370438930,-0.489464,0.875655,-0.122671
1629370438940,-0.486902,0.8824259999999999,-0.117547
1629370438949,-0.48714599999999997,0.883463,-0.112911
1629370438959,-0.48122899999999996,0.883219,-0.111569
1629370438969,-0.47885,0.87901,-0.114192
1629370438978,-0.47763,0.87169,-0.116632
1629370438988,-0.475617,0.863333,-0.116815
1629370438997,-0.473177,0.855586,-0.118645
1629370439007,-0.47390899999999997,0.848815,-0.119072
1629370439017,-0.475068,0.84058,-0.117974
1629370439026,-0.479582,0.835822,-0.110288
1629370439036,-0.481656,0.8331379999999999,-0.104188
1629370439045,-0.483974,0.832772,-0.09516
1629370439055,-0.48714599999999997,0.836981,-0.085339
1629370439065,-0.491294,0.840031,-0.078141
1629370439074,-0.495564,0.840336,-0.078202
1629370439084,-0.497699,0.8371029999999999,-0.08113
1629370439093,-0.500444,0.832284,-0.083631
1629370439103,-0.504226,0.83082,-0.085034
1629370439113,-0.507764,0.829966,-0.089182
1629370439122,-0.511485,0.8300879999999999,-0.091256
1629370439132,-0.5167309999999999,0.831186,-0.092598
1629370439141,-0.520757,0.829905,-0.094184
1629370439151,-0.525027,0.829844,-0.093513
1629370439161,-0.528687,0.8296,-0.09028
1629370439170,-0.534177,0.827526,-0.084668
1629370439180,-0.536434,0.824842,-0.0793
1629370439189,-0.5398499999999999,0.825147,-0.074603
1629370439199,-0.5462549999999999,0.826062,-0.069113
1629370439209,-0.548024,0.828441,-0.065331
1629370439218,-0.551806,0.829661,-0.064111
1629370439228,-0.552599,0.831186,-0.063196
1629370439237,-0.553697,0.829234,-0.062525
1629370439247,-0.55449,0.825879,-0.062464
1629370439257,-0.555405,0.8235,-0.06161
1629370439266,-0.555649,0.825635,-0.060207
1629370439276,-0.557662,0.826855,-0.057462
1629370439285,-0.55815,0.828685,-0.055632
1629370439295,-0.557113,0.831552,-0.053009
1629370439305,-0.556625,0.83265,-0.052094
1629370439314,-0.556686,0.828319,-0.052216
1629370439324,-0.555344,0.822524,-0.052765
1629370439333,-0.552233,0.817949,-0.054655999999999996
1629370439343,-0.554185,0.814777,-0.054107
1629370439353,-0.555649,0.8139839999999999,-0.054960999999999996
1629370439362,-0.556137,0.820206,-0.052521
1629370439372,-0.553392,0.823866,-0.055815
1629370439381,-0.553331,0.823561,-0.059109
1629370439391,-0.553087,0.8252079999999999,-0.057888999999999996
1629370439401,-0.548817,0.825635,-0.057218
1629370439410,-0.546743,0.82594,-0.055022
1629370439420,-0.546987,0.824537,-0.053496999999999996
1629370439429,-0.547048,0.823744,-0.049715
1629370439439,-0.550708,0.8233779999999999,-0.045506
1629370439449,-0.55083,0.823805,-0.043737
1629370439458,-0.550891,0.8233779999999999,-0.043676
1629370439468,-0.548024,0.823805,-0.047335999999999996
1629370439477,-0.547963,0.820694,-0.048799999999999996
1629370439487,-0.547536,0.817461,-0.049532
1629370439497,-0.548207,0.814167,-0.054229
1629370439506,-0.548512,0.814838,-0.057767
1629370439516,-0.549305,0.81679,-0.061244
1629370439525,-0.549793,0.817522,-0.06508699999999999
1629370439535,-0.551501,0.820023,-0.064416
1629370439545,-0.55266,0.821975,-0.061975999999999996
1629370439554,-0.552599,0.82289,-0.061488
1629370439564,-0.551257,0.8239879999999999,-0.058498999999999995
1629370439573,-0.552111,0.823622,-0.055327
1629370439583,-0.554124,0.82594,-0.05307
1629370439593,-0.553819,0.82655,-0.051972
1629370439602,-0.551135,0.829417,-0.051118
1629370439612,-0.551684,0.829234,-0.048799999999999996
1629370439621,-0.551196,0.827892,-0.04758
1629370439631,-0.551318,0.826306,-0.049715
1629370439641,-0.550525,0.827526,-0.054473
1629370439650,-0.549915,0.826794,-0.058377
1629370439660,-0.548634,0.82655,-0.05917
1629370439669,-0.546926,0.823927,-0.058621
1629370439679,-0.545218,0.822097,-0.057279
1629370439689,-0.544486,0.820816,-0.053801999999999996
1629370439698,-0.542351,0.822219,-0.050203
1629370439708,-0.541802,0.824781,-0.046176999999999996
1629370439717,-0.539179,0.8273429999999999,-0.041174999999999996
1629370439727,-0.537898,0.830149,-0.038064
1629370439737,-0.5371049999999999,0.832162,-0.036539
1629370439746,-0.535153,0.8325279999999999,-0.0366
1629370439756,-0.534238,0.832772,-0.036661
1629370439765,-0.533384,0.831979,-0.038369
1629370439775,-0.53253,0.828685,-0.039406
1629370439785,-0.531188,0.825879,-0.041968
1629370439794,-0.532286,0.827709,-0.043798
1629370439804,-0.532164,0.8276479999999999,-0.044286
1629370439813,-0.531798,0.829539,-0.046299
1629370439823,-0.530761,0.831674,-0.048799999999999996
1629370439833,-0.530822,0.834602,-0.050325
1629370439842,-0.532164,0.83509,-0.05063
1629370439852,-0.532774,0.833687,-0.05063
1629370439861,-0.532713,0.833504,-0.049349
1629370439871,-0.531554,0.8316129999999999,-0.049349
1629370439881,-0.53314,0.831674,-0.050263999999999996
1629370439890,-0.533262,0.830515,-0.051911
1629370439900,-0.53253,0.8282579999999999,-0.055144
1629370439909,-0.53253,0.826916,-0.056729999999999996
1629370439919,-0.532225,0.827892,-0.058193999999999996
1629370439929,-0.533079,0.8279529999999999,-0.05917
1629370439938,-0.533384,0.8270379999999999,-0.05856
1629370439948,-0.535153,0.827831,-0.058438
1629370439957,-0.536678,0.828502,-0.059536
1629370439967,-0.537837,0.829844,-0.061975999999999996
1629370439977,-0.539118,0.830942,-0.06466
1629370439986,-0.5392399999999999,0.831979,-0.067893
1629370439996,-0.540521,0.830942,-0.07124799999999999
1629370440005,-0.539606,0.830576,-0.073688
1629370440015,-0.539728,0.829966,-0.07625
1629370440025,-0.540399,0.8291729999999999,-0.079788
1629370440034,-0.5398499999999999,0.827465,-0.081069
1629370440044,-0.539911,0.828136,-0.083326
1629370440053,-0.539728,0.8264279999999999,-0.083997
1629370440063,-0.5404599999999999,0.8261229999999999,-0.086437
1629370440073,-0.539362,0.8230729999999999,-0.08790099999999999
1629370440082,-0.540216,0.820511,-0.08967
1629370440092,-0.540277,0.818193,-0.08973099999999999
1629370440101,-0.539606,0.818498,-0.089487
1629370440111,-0.541192,0.815265,-0.089914
1629370440121,-0.542473,0.812215,-0.090158
1629370440130,-0.543388,0.808982,-0.091195
1629370440140,-0.5459499999999999,0.803126,-0.091012
1629370440149,-0.549732,0.799588,-0.09089
1629370440159,-0.551074,0.7996489999999999,-0.093208
1629370440169,-0.55449,0.799283,-0.095465
1629370440178,-0.556747,0.800381,-0.099491
1629370440188,-0.560773,0.804773,-0.104005
1629370440197,-0.562908,0.808372,-0.108336
1629370440207,-0.565653,0.81008,-0.113887
1629370440217,-0.567178,0.8115439999999999,-0.116327
1629370440226,-0.56913,0.814106,-0.11895
1629370440236,-0.5684589999999999,0.816607,-0.116754
1629370440245,-0.5678489999999999,0.821304,-0.109983
1629370440255,-0.567117,0.826001,-0.103944
1629370440265,-0.5675439999999999,0.8279529999999999,-0.09638
1629370440274,-0.5663239999999999,0.822524,-0.09467199999999999
1629370440284,-0.56852,0.808372,-0.093269
1629370440293,-0.57035,0.796111,-0.093818
1629370440303,-0.571082,0.783484,-0.094306
1629370440313,-0.575657,0.7774449999999999,-0.097417
1629370440322,-0.576328,0.779702,-0.100711
1629370440332,-0.579378,0.787327,-0.10467599999999999
1629370440341,-0.579866,0.795867,-0.11053199999999999
1629370440351,-0.579073,0.803736,-0.11547299999999999
1629370440361,-0.578646,0.81069,-0.117181
1629370440370,-0.578402,0.817644,-0.11577799999999999
1629370440380,-0.577426,0.823012,-0.112423
1629370440389,-0.575535,0.8288679999999999,-0.10992199999999999
1629370440399,-0.573278,0.83204,-0.10699399999999999
1629370440409,-0.5718139999999999,0.834419,-0.104432
1629370440418,-0.570167,0.83387,-0.101016
1629370440428,-0.568703,0.833382,-0.09943
1629370440437,-0.5666289999999999,0.83021,-0.10022299999999999
1629370440447,-0.562908,0.8264279999999999,-0.102114
1629370440457,-0.560285,0.823866,-0.10437099999999999
1629370440466,-0.557601,0.822402,-0.105957
1629370440476,-0.553758,0.819718,-0.107116
1629370440485,-0.550403,0.818254,-0.109068
1629370440495,-0.547719,0.817583,-0.11083699999999999
1629370440505,-0.545828,0.817034,-0.113277
1629370440514,-0.543693,0.815875,-0.11529
1629370440524,-0.542473,0.815875,-0.117547
1629370440533,-0.540948,0.81557,-0.118157
1629370440543,-0.538752,0.8158139999999999,-0.118645
1629370440553,-0.538996,0.813557,-0.118462
1629370440562,-0.538874,0.812703,-0.118828
1629370440572,-0.537776,0.81252,-0.118645
1629370440581,-0.5380199999999999,0.8118489999999999,-0.11931599999999999
1629370440591,-0.536922,0.81435,-0.119133
1629370440601,-0.536434,0.816241,-0.119194
1629370440610,-0.536007,0.816912,-0.118157
1629370440620,-0.535641,0.817522,-0.11809599999999999
1629370440629,-0.534116,0.821121,-0.118218
1629370440639,-0.533933,0.823622,-0.120841
1629370440649,-0.53253,0.8267329999999999,-0.123098
1629370440658,-0.532225,0.827709,-0.123464
1629370440668,-0.530883,0.827404,-0.124074
1629370440677,-0.528382,0.826306,-0.125538
1629370440687,-0.527589,0.8239879999999999,-0.127551
1629370440697,-0.524783,0.823256,-0.12834399999999999
1629370440706,-0.5228309999999999,0.824354,-0.130296
1629370440716,-0.520269,0.825025,-0.132309
1629370440725,-0.51789,0.825452,-0.135542
1629370440735,-0.5161209999999999,0.826001,-0.13847
1629370440745,-0.512522,0.8270379999999999,-0.1403
1629370440754,-0.51179,0.826977,-0.141947
1629370440764,-0.510082,0.827282,-0.144021
1629370440773,-0.508862,0.828441,-0.145729
1629370440783,-0.506178,0.8288679999999999,-0.147254
1629370440793,-0.504043,0.831064,-0.147864
1629370440802,-0.504592,0.833321,-0.146644
1629370440812,-0.504531,0.8343579999999999,-0.146461
1629370440821,-0.503494,0.836737,-0.146156
1629370440831,-0.503189,0.836615,-0.1464
1629370440841,-0.501908,0.83631,-0.147559
1629370440850,-0.500993,0.8377129999999999,-0.149328
1629370440860,-0.500932,0.8383229999999999,-0.149145
1629370440869,-0.500261,0.83814,-0.151463
1629370440879,-0.5002,0.837957,-0.15311
1629370440889,-0.499285,0.839421,-0.15311
1629370440898,-0.498004,0.842349,-0.15359799999999998
1629370440908,-0.49794299999999997,0.842349,-0.15372
1629370440917,-0.498126,0.844545,-0.153842
1629370440927,-0.497577,0.844667,-0.155306
1629370440937,-0.49593,0.843081,-0.155184
1629370440946,-0.495076,0.84363,-0.154147
1629370440956,-0.493673,0.844301,-0.153964
1629370440965,-0.49324599999999996,0.846009,-0.154696
1629370440975,-0.491294,0.846741,-0.153659
1629370440985,-0.489952,0.848998,-0.15311
1629370440994,-0.488793,0.850035,-0.151768
1629370441004,-0.488305,0.849303,-0.149633
1629370441013,-0.486902,0.849181,-0.149755
1629370441023,-0.488,0.846375,-0.148901
1629370441033,-0.486902,0.845887,-0.14823
1629370441042,-0.485987,0.84668,-0.147254
1629370441052,-0.486109,0.8477169999999999,-0.146339
1629370441061,-0.484767,0.8495469999999999,-0.14518
1629370441071,-0.484035,0.851133,-0.145058
1629370441081,-0.484035,0.853634,-0.144692
1629370441090,-0.482998,0.85461,-0.14274
1629370441100,-0.481595,0.855464,-0.141764
1629370441109,-0.481839,0.855769,-0.14127599999999998
1629370441119,-0.48068,0.856379,-0.14005599999999999
1629370441129,-0.479765,0.855281,-0.138226
1629370441138,-0.48007,0.853146,-0.137494
1629370441148,-0.47970399999999996,0.85034,-0.138043
1629370441157,-0.478911,0.846253,-0.138104
1629370441167,-0.478911,0.843813,-0.138165
1629370441177,-0.477935,0.842593,-0.1403
1629370441186,-0.478911,0.842227,-0.143533
1629370441196,-0.478972,0.843081,-0.144997
1629370441205,-0.480192,0.842898,-0.14621699999999999
1629370441215,-0.481534,0.843874,-0.14774199999999998
1629370441225,-0.481351,0.843813,-0.148718
1629370441234,-0.481534,0.844667,-0.149206
1629370441244,-0.482632,0.84424,-0.14896199999999998
1629370441253,-0.484279,0.843874,-0.14884
1629370441263,-0.48531599999999997,0.843874,-0.149816
1629370441273,-0.48678,0.842288,-0.149877
1629370441282,-0.48739,0.842776,-0.151524
1629370441292,-0.489342,0.843935,-0.153842
1629370441301,-0.49080599999999996,0.844301,-0.15481799999999998
1629370441311,-0.490928,0.843752,-0.15555
1629370441321,-0.491843,0.843142,-0.157563
1629370441330,-0.493307,0.842227,-0.15884399999999999
1629370441340,-0.494405,0.841983,-0.161406
1629370441349,-0.496479,0.840702,-0.162992
1629370441359,-0.497882,0.8407629999999999,-0.163968
1629370441369,-0.499407,0.840214,-0.165371
1629370441378,-0.5002,0.838079,-0.166103
1629370441388,-0.502091,0.835944,-0.168543
1629370441397,-0.503616,0.834297,-0.170068
1629370441407,-0.504714,0.834236,-0.173118
1629370441417,-0.505507,0.83265,-0.175131
1629370441426,-0.506605,0.829356,-0.17568
1629370441436,-0.507581,0.826855,-0.178791
1629370441445,-0.508923,0.823866,-0.180926
1629370441455,-0.510814,0.82228,-0.18361
1629370441465,-0.511241,0.8221579999999999,-0.18440299999999998
1629370441474,-0.512949,0.820328,-0.184891
1629370441484,-0.515694,0.820816,-0.184952
1629370441493,-0.518012,0.81923,-0.185562
1629370441503,-0.52033,0.820938,-0.185989
1629370441513,-0.521977,0.820816,-0.185989
1629370441522,-0.524539,0.820816,-0.186599
1629370441532,-0.525271,0.819474,-0.187453
1629370441541,-0.52765,0.819535,-0.187514
1629370441551,-0.528748,0.818437,-0.188002
1629370441561,-0.530944,0.81679,-0.189893
1629370441570,-0.531676,0.814106,-0.191052
1629370441580,-0.532957,0.812886,-0.19117399999999998
1629370441589,-0.535092,0.811666,-0.191418
1629370441599,-0.5374099999999999,0.811666,-0.192455
1629370441609,-0.538752,0.810202,-0.192943
1629370441618,-0.542168,0.8081889999999999,-0.194346
1629370441628,-0.544181,0.806481,-0.195566
1629370441637,-0.546133,0.806176,-0.195627
1629370441647,-0.548329,0.806725,-0.194773
1629370441657,-0.549732,0.8066639999999999,-0.19641999999999998
1629370441666,-0.551196,0.806481,-0.196603
1629370441676,-0.552965,0.806237,-0.196603
1629370441685,-0.553514,0.805932,-0.19580999999999998
1629370441695,-0.554246,0.80398,-0.197274
1629370441705,-0.555832,0.802943,-0.197579
1629370441714,-0.555466,0.802516,-0.199287
1629370441724,-0.55449,0.801662,-0.199592
1629370441733,-0.554368,0.800503,-0.199531
1629370441743,-0.553575,0.801235,-0.20069
1629370441753,-0.552904,0.80215,-0.200934
1629370441762,-0.554002,0.801357,-0.20044599999999999
1629370441772,-0.552721,0.800808,-0.200873
1629370441781,-0.551501,0.800076,-0.20069
1629370441791,-0.551196,0.7993439999999999,-0.202215
1629370441801,-0.551684,0.800015,-0.20319099999999998
1629370441810,-0.551501,0.800991,-0.204472
1629370441820,-0.550952,0.800991,-0.204899
1629370441829,-0.549488,0.801967,-0.206668
1629370441839,-0.550098,0.80154,-0.206851
1629370441849,-0.549244,0.8020889999999999,-0.206363
1629370441858,-0.547902,0.802943,-0.206851
1629370441868,-0.548024,0.803797,-0.20599699999999999
1629370441877,-0.546682,0.803858,-0.205021
1629370441887,-0.545096,0.80642,-0.205326
1629370441897,-0.5438149999999999,0.807152,-0.203923
1629370441906,-0.543327,0.80642,-0.204594
1629370441916,-0.542473,0.805871,-0.202703
1629370441925,-0.540643,0.80642,-0.202459
1629370441935,-0.5401549999999999,0.806786,-0.201483
1629370441945,-0.537898,0.808128,-0.20166599999999998
1629370441954,-0.537593,0.8087989999999999,-0.199958
1629370441964,-0.536617,0.808372,-0.19825
1629370441973,-0.53558,0.80947,-0.197152
1629370441983,-0.534482,0.810873,-0.19763999999999998
1629370441993,-0.532957,0.810812,-0.19763999999999998
1629370442002,-0.532286,0.8113,-0.19672499999999998
1629370442012,-0.5307,0.811178,-0.196176
1629370442021,-0.529419,0.811971,-0.195993
1629370442031,-0.527711,0.813435,-0.195139
1629370442041,-0.526918,0.815631,-0.195261
1629370442050,-0.526674,0.816058,-0.192882
1629370442060,-0.525515,0.818376,-0.19178399999999998
1629370442069,-0.523502,0.820084,-0.190991
1629370442079,-0.523563,0.820145,-0.1891
1629370442089,-0.52216,0.821182,-0.188551
1629370442098,-0.5203909999999999,0.822402,-0.187758
1629370442108,-0.51911,0.823317,-0.185867
1629370442117,-0.517097,0.824659,-0.18605
1629370442127,-0.514962,0.825086,-0.18666
1629370442137,-0.514474,0.825025,-0.183976
1629370442146,-0.512949,0.8258179999999999,-0.184586
1629370442156,-0.509777,0.826367,-0.183671
1629370442165,-0.508313,0.8264279999999999,-0.183122
1629370442175,-0.507459,0.827404,-0.184037
1629370442185,-0.505934,0.828014,-0.182695
1629370442194,-0.503616,0.8288679999999999,-0.182146
1629370442204,-0.502335,0.830332,-0.182146
1629370442213,-0.501298,0.830454,-0.181658
1629370442223,-0.49946799999999997,0.832345,-0.18226799999999999
1629370442233,-0.49824799999999997,0.833016,-0.18178
1629370442242,-0.49672299999999997,0.83448,-0.181109
1629370442252,-0.495747,0.835029,-0.180743
1629370442261,-0.494039,0.835334,-0.180438
1629370442271,-0.49288,0.8358829999999999,-0.180194
1629370442281,-0.491904,0.836371,-0.17915699999999998
1629370442290,-0.48989099999999997,0.837896,-0.178791
1629370442300,-0.489647,0.838079,-0.178608
1629370442309,-0.48922,0.839116,-0.178181
1629370442319,-0.487573,0.838994,-0.177876
1629370442329,-0.486963,0.8389329999999999,-0.177449
1629370442338,-0.485377,0.8386279999999999,-0.17641199999999999
1629370442348,-0.485804,0.838872,-0.17629
1629370442357,-0.484889,0.838872,-0.17702199999999998
1629370442367,-0.48440099999999997,0.840092,-0.177144
1629370442377,-0.48409599999999997,0.840336,-0.17702199999999998
1629370442386,-0.483913,0.841739,-0.176778
1629370442396,-0.484035,0.841556,-0.176168
1629370442405,-0.482754,0.842654,-0.176351
1629370442415,-0.482022,0.842105,-0.176168
1629370442425,-0.482144,0.842715,-0.175558
1629370442434,-0.48251,0.842898,-0.175985
1629370442444,-0.48373,0.84241,-0.174948
1629370442453,-0.483242,0.842288,-0.175375
1629370442463,-0.483669,0.842776,-0.174948
1629370442473,-0.484035,0.843752,-0.175192
1629370442482,-0.483547,0.844545,-0.175253
1629370442492,-0.482998,0.844118,-0.175558
1629370442501,-0.483669,0.845643,-0.175009
1629370442511,-0.48348599999999997,0.844972,-0.175009
1629370442521,-0.483364,0.845033,-0.176168
1629370442530,-0.48531599999999997,0.84424,-0.17610699999999999
1629370442540,-0.485743,0.843691,-0.17507
1629370442549,-0.484584,0.843203,-0.174704
1629370442559,-0.48470599999999997,0.843203,-0.174582
1629370442569,-0.48495,0.841495,-0.174155
1629370442578,-0.484584,0.841739,-0.174582
1629370442588,-0.485133,0.8418,-0.175314
1629370442597,-0.484767,0.840824,-0.175924
1629370442607,-0.48562099999999997,0.841068,-0.17629
1629370442617,-0.48623099999999997,0.841068,-0.177144
1629370442626,-0.48653599999999997,0.839421,-0.178303
1629370442636,-0.48531599999999997,0.8401529999999999,-0.178913
1629370442645,-0.48556,0.838994,-0.179218
1629370442655,-0.487085,0.8395429999999999,-0.17934
1629370442665,-0.48739,0.8380179999999999,-0.179828
1629370442674,-0.48922,0.836066,-0.18056
1629370442684,-0.490318,0.834602,-0.180682
1629370442693,-0.491538,0.83509,-0.180743
1629370442703,-0.492758,0.8355779999999999,-0.182512
1629370442713,-0.494466,0.835395,-0.183305
1629370442722,-0.49532,0.835822,-0.183732
1629370442732,-0.497394,0.8377129999999999,-0.18318299999999998
1629370442741,-0.49898,0.837286,-0.18318299999999998
1629370442751,-0.499712,0.836066,-0.182817
1629370442761,-0.500993,0.835151,-0.18257299999999999
1629370442770,-0.501847,0.834724,-0.18287799999999999
1629370442780,-0.503738,0.8316129999999999,-0.18257299999999999
1629370442789,-0.504531,0.830454,-0.181048
1629370442799,-0.505385,0.828807,-0.18257299999999999
1629370442809,-0.506361,0.827892,-0.182024
1629370442818,-0.507886,0.827709,-0.18409799999999998
1629370442828,-0.508069,0.828502,-0.18562299999999998
1629370442837,-0.508801,0.827892,-0.18666
1629370442847,-0.508984,0.826611,-0.187453
1629370442857,-0.510387,0.825391,-0.188185
1629370442866,-0.511302,0.82594,-0.189527
1629370442876,-0.511424,0.824232,-0.189588
1629370442885,-0.513498,0.824171,-0.190747
1629370442895,-0.5145959999999999,0.822829,-0.190747
1629370442905,-0.514474,0.823622,-0.19093
1629370442914,-0.515328,0.823012,-0.189893
1629370442924,-0.51728,0.822707,-0.190442
1629370442933,-0.518744,0.822707,-0.190137
1629370442943,-0.5197809999999999,0.822097,-0.190747
1629370442953,-0.519049,0.820999,-0.190808
1629370442962,-0.51972,0.82106,-0.191967
1629370442972,-0.519598,0.820633,-0.192516
1629370442981,-0.5213059999999999,0.818132,-0.191845
1629370442991,-0.521794,0.817949,-0.192577
1629370443001,-0.522404,0.817034,-0.192943
1629370443010,-0.522404,0.817217,-0.19276
1629370443020,-0.523014,0.818132,-0.193126
1629370443029,-0.524966,0.819413,-0.193248
1629370443039,-0.526247,0.819657,-0.191967
1629370443049,-0.525637,0.81923,-0.192821
1629370443058,-0.526491,0.818559,-0.19215
1629370443068,-0.527406,0.818498,-0.193065
1629370443077,-0.527528,0.817034,-0.192577
1629370443087,-0.528016,0.815692,-0.19178399999999998
1629370443097,-0.527833,0.815753,-0.191723
1629370443106,-0.529297,0.816546,-0.190808
1629370443116,-0.528687,0.817766,-0.190198
1629370443125,-0.529236,0.817888,-0.189832
1629370443135,-0.529297,0.818559,-0.189832
1629370443145,-0.52948,0.818132,-0.18873399999999999
1629370443154,-0.529724,0.8164239999999999,-0.19056399999999998
1629370443164,-0.529602,0.816607,-0.190991
1629370443173,-0.529602,0.8174,-0.191357
1629370443183,-0.530029,0.816912,-0.19178399999999998
1629370443193,-0.529358,0.817217,-0.19086899999999998
1629370443202,-0.529358,0.817461,-0.192089
1629370443212,-0.529297,0.817034,-0.19117399999999998
1629370443221,-0.529053,0.816668,-0.190381
1629370443231,-0.529358,0.816546,-0.190076
1629370443241,-0.528565,0.8158139999999999,-0.190198
1629370443250,-0.528321,0.816241,-0.18903899999999998
1629370443260,-0.528199,0.8161189999999999,-0.187941
1629370443269,-0.527101,0.816485,-0.189222
1629370443279,-0.526308,0.8174,-0.18849
1629370443289,-0.526491,0.817278,-0.18788
1629370443298,-0.526064,0.817949,-0.187453
1629370443308,-0.52521,0.818742,-0.187392
1629370443317,-0.524356,0.817827,-0.186843
1629370443327,-0.524295,0.817522,-0.186111
1629370443337,-0.523868,0.818376,-0.187392
1629370443346,-0.523563,0.820633,-0.186599
1629370443356,-0.523319,0.82045,-0.18562299999999998
1629370443365,-0.522648,0.821243,-0.186721
1629370443375,-0.522648,0.820328,-0.186294
1629370443385,-0.522038,0.82106,-0.185745
1629370443394,-0.521428,0.82045,-0.185501
1629370443404,-0.521367,0.821426,-0.18483
1629370443413,-0.520635,0.821365,-0.184159
1629370443423,-0.51972,0.820816,-0.185257
1629370443433,-0.51911,0.821853,-0.185806
1629370443442,-0.5185,0.822829,-0.18501299999999998
1629370443452,-0.5179509999999999,0.8221579999999999,-0.185928
1629370443461,-0.516792,0.823744,-0.185379
1629370443471,-0.5161209999999999,0.82472,-0.185257
1629370443481,-0.515999,0.82472,-0.185379
1629370443490,-0.515023,0.825086,-0.185501
1629370443500,-0.513742,0.82472,-0.186172
1629370443509,-0.513315,0.825879,-0.18605
1629370443519,-0.513437,0.825574,-0.186111
1629370443529,-0.511912,0.824537,-0.185745
1629370443538,-0.510753,0.825574,-0.185806
1629370443548,-0.50996,0.825086,-0.187148
1629370443557,-0.50996,0.825452,-0.186294
1629370443567,-0.508984,0.8258179999999999,-0.186843
1629370443577,-0.508984,0.825879,-0.184769
1629370443586,-0.507703,0.82533,-0.18470799999999998
1629370443596,-0.507947,0.825269,-0.185562
1629370443605,-0.507825,0.826367,-0.18409799999999998
1629370443615,-0.508618,0.826306,-0.184342
1629370443625,-0.507398,0.826245,-0.184464
1629370443634,-0.508679,0.8264279999999999,-0.183549
1629370443644,-0.509411,0.8276479999999999,-0.184464
1629370443653,-0.509228,0.827831,-0.184159
1629370443663,-0.508252,0.827526,-0.184037
1629370443673,-0.508252,0.828014,-0.184647
1629370443682,-0.508496,0.826916,-0.18440299999999998
1629370443692,-0.509045,0.828502,-0.182939
1629370443701,-0.509228,0.8276479999999999,-0.181658
1629370443711,-0.509167,0.827709,-0.180926
1629370443721,-0.509472,0.8288679999999999,-0.180011
1629370443730,-0.509655,0.828136,-0.178486
1629370443740,-0.50935,0.82716,-0.177693
1629370443749,-0.509167,0.8276479999999999,-0.177876
1629370443759,-0.509411,0.826794,-0.1769
1629370443769,-0.508984,0.826916,-0.176168
1629370443778,-0.510021,0.826367,-0.176595
1629370443788,-0.510631,0.8264279999999999,-0.17641199999999999
1629370443797,-0.511363,0.82594,-0.176473
1629370443807,-0.511058,0.824476,-0.177144
1629370443817,-0.511851,0.8255129999999999,-0.17763199999999998
1629370443826,-0.511424,0.826489,-0.177754
1629370443836,-0.512827,0.827892,-0.180987
1629370443845,-0.512644,0.828746,-0.182024
1629370443855,-0.512156,0.829905,-0.183244
1629370443865,-0.512339,0.8303929999999999,-0.18348799999999998
1629370443874,-0.513132,0.830271,-0.183366
1629370443884,-0.5127659999999999,0.829112,-0.182695
1629370443893,-0.512156,0.826611,-0.182512
1629370443903,-0.511546,0.8264279999999999,-0.18196299999999999
1629370443913,-0.511302,0.825147,-0.181536
1629370443922,-0.512339,0.825696,-0.181536
1629370443932,-0.512034,0.826245,-0.180377
1629370443941,-0.51057,0.826672,-0.180926
1629370443951,-0.50996,0.8261229999999999,-0.181231
1629370443961,-0.510448,0.8258179999999999,-0.18178
1629370443970,-0.510204,0.825086,-0.181719
1629370443980,-0.510753,0.824476,-0.182634
1629370443989,-0.51179,0.823805,-0.183244
1629370443999,-0.511424,0.824232,-0.183915
1629370444009,-0.510814,0.8245979999999999,-0.184159
1629370444018,-0.512278,0.8242929999999999,-0.183976
1629370444028,-0.51179,0.8245979999999999,-0.185074
1629370444037,-0.5127659999999999,0.8261229999999999,-0.183976
1629370444047,-0.512278,0.825696,-0.184464
1629370444057,-0.512827,0.82594,-0.183366
1629370444066,-0.51423,0.825757,-0.183122
1629370444076,-0.51423,0.825452,-0.183061
1629370444085,-0.515145,0.825391,-0.184647
1629370444095,-0.5145959999999999,0.826062,-0.184281
1629370444105,-0.515145,0.824232,-0.183244
1629370444114,-0.51545,0.8239879999999999,-0.182329
1629370444124,-0.516304,0.8239879999999999,-0.182329
1629370444133,-0.5161209999999999,0.823561,-0.18196299999999999
1629370444143,-0.516243,0.824415,-0.181353
1629370444153,-0.516975,0.825635,-0.181475
1629370444162,-0.517463,0.825452,-0.180987
1629370444172,-0.5170359999999999,0.825757,-0.18226799999999999
1629370444181,-0.5173409999999999,0.825574,-0.181353
1629370444191,-0.517219,0.825574,-0.180926
1629370444201,-0.5182559999999999,0.824354,-0.180011
1629370444210,-0.518134,0.824659,-0.179645
1629370444220,-0.518317,0.823927,-0.17995
1629370444229,-0.518012,0.8255129999999999,-0.179401
1629370444239,-0.517585,0.825391,-0.17946199999999998
1629370444249,-0.51667,0.825635,-0.179279
1629370444258,-0.518378,0.826184,-0.17885199999999998
1629370444268,-0.5173409999999999,0.825391,-0.178486
1629370444277,-0.5167309999999999,0.824537,-0.180194
1629370444287,-0.5167309999999999,0.825269,-0.180926
1629370444297,-0.51606,0.825452,-0.181414
1629370444306,-0.515694,0.826184,-0.181414
1629370444316,-0.515938,0.8252079999999999,-0.181109
1629370444325,-0.514718,0.824537,-0.182329
1629370444335,-0.514474,0.823622,-0.182146
1629370444345,-0.514108,0.8242929999999999,-0.180926
1629370444354,-0.51423,0.8245979999999999,-0.180804
1629370444364,-0.514474,0.824232,-0.180865
1629370444373,-0.51484,0.824049,-0.180499
1629370444383,-0.514535,0.82472,-0.180499
1629370444393,-0.513437,0.824537,-0.179218
1629370444402,-0.5149009999999999,0.8245979999999999,-0.179523
1629370444412,-0.514779,0.825147,-0.17995
1629370444421,-0.515572,0.825696,-0.179584
1629370444431,-0.515389,0.825574,-0.179401
1629370444441,-0.5152059999999999,0.826062,-0.180011
1629370444450,-0.514779,0.82594,-0.17946199999999998
1629370444460,-0.514718,0.825269,-0.178486
1629370444469,-0.515084,0.825391,-0.179279
1629370444479,-0.514413,0.82533,-0.179706
1629370444489,-0.5136809999999999,0.82472,-0.179279
1629370444498,-0.51423,0.826306,-0.17995
1629370444508,-0.514413,0.8264279999999999,-0.17934
1629370444517,-0.514169,0.8261229999999999,-0.179828
1629370444527,-0.514535,0.8258179999999999,-0.178974
1629370444537,-0.514352,0.825147,-0.179645
1629370444546,-0.51423,0.826184,-0.17946199999999998
1629370444556,-0.513437,0.82655,-0.180255
1629370444565,-0.51362,0.826855,-0.180316
1629370444575,-0.513742,0.826794,-0.180865
1629370444585,-0.512827,0.826184,-0.180499
1629370444594,-0.513864,0.82716,-0.181536
1629370444604,-0.513864,0.827526,-0.181048
1629370444613,-0.5130709999999999,0.82716,-0.180804
1629370444623,-0.512705,0.82716,-0.181658
1629370444633,-0.511302,0.828197,-0.182512
1629370444642,-0.511912,0.826672,-0.18226799999999999
1629370444652,-0.511424,0.828441,-0.182756
1629370444661,-0.510204,0.826916,-0.183122
1629370444671,-0.510448,0.828014,-0.18196299999999999
1629370444681,-0.510875,0.826977,-0.182207
1629370444690,-0.510387,0.82594,-0.181841
1629370444700,-0.509655,0.826794,-0.182024
1629370444709,-0.508923,0.827831,-0.18239
1629370444719,-0.508923,0.827526,-0.182207
1629370444729,-0.508496,0.827221,-0.181353
1629370444738,-0.510143,0.827465,-0.182207
1629370444748,-0.50996,0.827404,-0.179584
1629370444757,-0.509289,0.82716,-0.182146
1629370444767,-0.508679,0.828014,-0.181109
1629370444777,-0.510082,0.827282,-0.179828
1629370444786,-0.510814,0.826977,-0.178974
1629370444796,-0.510631,0.826794,-0.17793699999999998
1629370444805,-0.510387,0.8273429999999999,-0.178425
1629370444815,-0.510448,0.827526,-0.179096
1629370444825,-0.510997,0.826794,-0.180865
1629370444834,-0.511119,0.826062,-0.180194
1629370444844,-0.509655,0.82655,-0.18056
1629370444853,-0.511485,0.828136,-0.181902
1629370444863,-0.51118,0.82777,-0.18196299999999999
1629370444873,-0.511302,0.8270379999999999,-0.181414
1629370444882,-0.511302,0.825696,-0.180499
1629370444892,-0.512217,0.826001,-0.180194
1629370444901,-0.51179,0.827099,-0.179401
1629370444911,-0.512827,0.8264279999999999,-0.17873
1629370444921,-0.513742,0.824842,-0.178181
1629370444930,-0.513864,0.825086,-0.176656
1629370444940,-0.514535,0.825696,-0.177754
1629370444949,-0.51484,0.826977,-0.178791
1629370444959,-0.514474,0.828441,-0.180316
1629370444969,-0.515389,0.82838,-0.180438
1629370444978,-0.516243,0.828746,-0.18196299999999999
1629370444988,-0.5152059999999999,0.8276479999999999,-0.181597
1629370444997,-0.515145,0.826916,-0.182939
1629370445007,-0.5161209999999999,0.825391,-0.183244
1629370445017,-0.514657,0.82472,-0.18348799999999998
1629370445026,-0.515572,0.825391,-0.18287799999999999
1629370445036,-0.514718,0.8261229999999999,-0.181658
1629370445045,-0.513803,0.8264279999999999,-0.181841
1629370445055,-0.513742,0.82655,-0.181475
1629370445065,-0.513498,0.826611,-0.181902
1629370445074,-0.512888,0.825696,-0.181658
1629370445084,-0.512644,0.825086,-0.18287799999999999
1629370445093,-0.5124609999999999,0.8252079999999999,-0.18318299999999998
1629370445103,-0.511851,0.8249029999999999,-0.18226799999999999
1629370445113,-0.511668,0.825086,-0.18287799999999999
1629370445122,-0.5124609999999999,0.825879,-0.182634
1629370445132,-0.512034,0.826672,-0.182756
1629370445141,-0.511424,0.826367,-0.183549
1629370445151,-0.512644,0.8261229999999999,-0.182939
1629370445161,-0.512217,0.826855,-0.182939
1629370445170,-0.511912,0.826611,-0.18257299999999999
1629370445180,-0.512583,0.826855,-0.181536
1629370445189,-0.512522,0.826489,-0.181536
1629370445199,-0.512095,0.826184,-0.180804
1629370445209,-0.512034,0.826672,-0.180377
1629370445218,-0.51179,0.82594,-0.179706
1629370445228,-0.511912,0.824842,-0.17854699999999998
1629370445237,-0.513132,0.825269,-0.178425
1629370445247,-0.511668,0.826672,-0.178669
1629370445257,-0.511668,0.826306,-0.179035
1629370445266,-0.512217,0.827282,-0.178974
1629370445276,-0.5127659999999999,0.82716,-0.179828
1629370445285,-0.513193,0.827099,-0.179096
1629370445295,-0.514535,0.8273429999999999,-0.178608
1629370445305,-0.513315,0.82716,-0.178974
1629370445314,-0.51362,0.826855,-0.17934
1629370445324,-0.514047,0.826489,-0.17934
1629370445333,-0.512827,0.825757,-0.17824199999999998
1629370445343,-0.51362,0.826001,-0.17915699999999998
1629370445353,-0.513742,0.826916,-0.177693
1629370445362,-0.513254,0.827587,-0.17854699999999998
1629370445372,-0.513254,0.828624,-0.177998
1629370445381,-0.514108,0.8282579999999999,-0.179218
1629370445391,-0.513803,0.8276479999999999,-0.179828
1629370445401,-0.512583,0.82777,-0.180316
1629370445410,-0.512888,0.8270379999999999,-0.180316
1629370445420,-0.512949,0.827099,-0.180621
1629370445429,-0.5133759999999999,0.8276479999999999,-0.181658
1629370445439,-0.512217,0.826672,-0.182634
1629370445449,-0.512034,0.82655,-0.18318299999999998
1629370445458,-0.511424,0.8264279999999999,-0.182756
1629370445468,-0.5124,0.8267329999999999,-0.18239
1629370445477,-0.511302,0.826306,-0.18257299999999999
1629370445487,-0.511973,0.8258179999999999,-0.182146
1629370445497,-0.512034,0.8264279999999999,-0.181475
1629370445506,-0.511912,0.827831,-0.181475
1629370445516,-0.512156,0.8279529999999999,-0.180865
1629370445525,-0.511485,0.828136,-0.181292
1629370445535,-0.511973,0.82838,-0.181292
1629370445545,-0.5124,0.8279529999999999,-0.181231
1629370445554,-0.511485,0.8285629999999999,-0.180682
1629370445564,-0.512339,0.827831,-0.181353
1629370445573,-0.511729,0.827526,-0.180987
1629370445583,-0.511302,0.8267329999999999,-0.180926
1629370445593,-0.513132,0.8279529999999999,-0.181109
1629370445602,-0.5124,0.827404,-0.181109
1629370445612,-0.511363,0.8267329999999999,-0.181292
1629370445621,-0.512156,0.827221,-0.181292
1629370445631,-0.511424,0.827099,-0.181048
1629370445641,-0.510753,0.827526,-0.181475
1629370445650,-0.510326,0.82655,-0.181658
1629370445660,-0.510753,0.82655,-0.181109
1629370445669,-0.510875,0.826306,-0.18117
1629370445679,-0.511058,0.82655,-0.180804
1629370445689,-0.510448,0.82716,-0.181231
1629370445698,-0.508984,0.827404,-0.181719
1629370445708,-0.510814,0.826611,-0.181292
1629370445717,-0.510082,0.827221,-0.182329
1629370445727,-0.510875,0.828441,-0.181414
1629370445737,-0.510082,0.828136,-0.182817
1629370445746,-0.50996,0.828075,-0.18287799999999999
1629370445756,-0.509899,0.827404,-0.182756
1629370445765,-0.509716,0.826977,-0.18318299999999998
1629370445775,-0.509777,0.827221,-0.183061
1629370445785,-0.509594,0.827709,-0.183854
1629370445794,-0.509838,0.827465,-0.183305
1629370445804,-0.510143,0.827404,-0.18422
1629370445813,-0.50996,0.8276479999999999,-0.183732
1629370445823,-0.510997,0.82777,-0.182939
1629370445833,-0.50996,0.827587,-0.183671
1629370445842,-0.50996,0.8276479999999999,-0.183549
1629370445852,-0.509838,0.827221,-0.182756
1629370445861,-0.510631,0.82716,-0.183
1629370445871,-0.510875,0.827099,-0.183
1629370445881,-0.50996,0.827892,-0.18409799999999998
1629370445890,-0.50935,0.828136,-0.183
1629370445900,-0.51057,0.8279529999999999,-0.18196299999999999
1629370445909,-0.511241,0.829234,-0.183244
1629370445919,-0.511973,0.8285629999999999,-0.183366
1629370445929,-0.511546,0.828746,-0.18318299999999998
1629370445938,-0.51179,0.8282579999999999,-0.182634
1629370445948,-0.512034,0.828197,-0.182146
1629370445957,-0.512034,0.827526,-0.182024
1629370445967,-0.511607,0.82777,-0.182146
1629370445977,-0.5124,0.82838,-0.182512
1629370445986,-0.512034,0.828014,-0.182817
1629370445996,-0.510326,0.82838,-0.18257299999999999
1629370446005,-0.511119,0.82838,-0.181536
1629370446015,-0.511546,0.828014,-0.182329
1629370446025,-0.510814,0.8273429999999999,-0.182329
1629370446034,-0.511302,0.827526,-0.182207
1629370446044,-0.512156,0.827404,-0.181536
1629370446053,-0.511912,0.826794,-0.181536
1629370446063,-0.510936,0.8270379999999999,-0.180072
1629370446073,-0.511973,0.826001,-0.177998
1629370446082,-0.5124609999999999,0.8255129999999999,-0.177815
1629370446092,-0.512583,0.82655,-0.177571
1629370446101,-0.513254,0.82655,-0.177205
1629370446111,-0.513132,0.8288679999999999,-0.17671699999999999
1629370446121,-0.513315,0.830271,-0.176473
1629370446130,-0.512522,0.830332,-0.175985
1629370446140,-0.512278,0.8294779999999999,-0.174704
1629370446149,-0.512339,0.82777,-0.17446
1629370446159,-0.511729,0.828502,-0.173667
1629370446169,-0.512278,0.826306,-0.172935
1629370446178,-0.512217,0.826184,-0.173545
1629370446188,-0.510814,0.82655,-0.172203
1629370446197,-0.511119,0.826794,-0.17019
1629370446207,-0.511912,0.827099,-0.170922
1629370446217,-0.511424,0.8282579999999999,-0.17141
1629370446226,-0.512034,0.8273429999999999,-0.1708
1629370446236,-0.511546,0.826611,-0.172264
1629370446245,-0.510265,0.82594,-0.173118
1629370446255,-0.510936,0.82655,-0.173484
1629370446265,-0.511241,0.826855,-0.173057
1629370446274,-0.509777,0.826062,-0.173789
1629370446284,-0.510143,0.8270379999999999,-0.173667
1629370446293,-0.509899,0.827587,-0.174887
1629370446303,-0.510082,0.82777,-0.174094
1629370446313,-0.510204,0.828746,-0.17446
1629370446322,-0.50996,0.829722,-0.173911
1629370446332,-0.510265,0.829234,-0.17629
1629370446341,-0.510448,0.829356,-0.176778
1629370446351,-0.51057,0.830759,-0.177388
1629370446361,-0.510021,0.831491,-0.177266
1629370446370,-0.510387,0.831674,-0.177693
1629370446380,-0.510021,0.830149,-0.177815
1629370446389,-0.511363,0.829722,-0.17976699999999998
1629370446399,-0.510936,0.829051,-0.180499
1629370446409,-0.509777,0.830759,-0.183671
1629370446418,-0.509716,0.831064,-0.184647
1629370446428,-0.509777,0.831125,-0.186111
1629370446437,-0.509411,0.8310029999999999,-0.186355
1629370446447,-0.509777,0.83204,-0.187575
1629370446457,-0.509167,0.83143,-0.18812399999999999
1629370446466,-0.508679,0.830149,-0.18727
1629370446476,-0.507947,0.829722,-0.187087
1629370446485,-0.508374,0.828197,-0.185501
1629370446495,-0.50935,0.829295,-0.184037
1629370446505,-0.508374,0.829966,-0.18318299999999998
1629370446514,-0.508313,0.83082,-0.182146
1629370446524,-0.508618,0.8306979999999999,-0.18226799999999999
1629370446533,-0.507337,0.830271,-0.181414
1629370446543,-0.508801,0.829234,-0.180743
1629370446553,-0.508618,0.828807,-0.180682
1629370446562,-0.507703,0.8282579999999999,-0.18226799999999999
1629370446572,-0.508374,0.828746,-0.180987
1629370446581,-0.508313,0.827526,-0.181231
1629370446591,-0.508557,0.827587,-0.180804
1629370446601,-0.507154,0.8270379999999999,-0.180682
1629370446610,-0.507337,0.826672,-0.179096
1629370446620,-0.508557,0.8267329999999999,-0.17812
1629370446629,-0.507825,0.826794,-0.1769
1629370446639,-0.508008,0.826489,-0.17580199999999999
1629370446649,-0.50935,0.826062,-0.176473
1629370446658,-0.509167,0.826367,-0.176595
1629370446668,-0.509045,0.828014,-0.17580199999999999
1629370446677,-0.508069,0.82716,-0.175924
1629370446687,-0.508984,0.8276479999999999,-0.175558
1629370446697,-0.50874,0.8282579999999999,-0.177205
1629370446706,-0.508618,0.828502,-0.176595
1629370446716,-0.509106,0.828502,-0.17763199999999998
1629370446725,-0.508008,0.827831,-0.179645
1629370446735,-0.509045,0.828685,-0.180987
1629370446745,-0.507703,0.82716,-0.182329
1629370446754,-0.507947,0.828136,-0.18287799999999999
1629370446764,-0.507581,0.8288679999999999,-0.182756
1629370446773,-0.507703,0.8282579999999999,-0.18318299999999998
1629370446783,-0.508679,0.829356,-0.184281
1629370446793,-0.508313,0.82838,-0.184525
1629370446802,-0.508984,0.829356,-0.18501299999999998
1629370446812,-0.508801,0.829661,-0.18531799999999998
1629370446821,-0.507703,0.828746,-0.18501299999999998
1629370446831,-0.508984,0.828197,-0.185196
1629370446841,-0.508496,0.829539,-0.185684
1629370446850,-0.508191,0.828807,-0.186172
1629370446860,-0.508679,0.8285629999999999,-0.185806
1629370446869,-0.509716,0.828624,-0.185745
1629370446879,-0.510082,0.8291729999999999,-0.185989
1629370446889,-0.509228,0.8291729999999999,-0.186416
1629370446898,-0.510082,0.829722,-0.186599
1629370446908,-0.510265,0.829661,-0.185562
1629370446917,-0.511058,0.8296,-0.18422
1629370446927,-0.510692,0.829661,-0.183915
1629370446937,-0.510997,0.8282579999999999,-0.182512
1629370446946,-0.51118,0.828502,-0.182634
1629370446956,-0.511973,0.828746,-0.180743
1629370446965,-0.51179,0.8285629999999999,-0.180804
1629370446975,-0.512034,0.828319,-0.17915699999999998
1629370446985,-0.512278,0.827282,-0.178425
1629370446994,-0.511912,0.827404,-0.17751
1629370447004,-0.511729,0.8282579999999999,-0.176961
1629370447013,-0.51301,0.827404,-0.174948
1629370447023,-0.513437,0.826916,-0.173179
1629370447033,-0.513132,0.826611,-0.172142
1629370447042,-0.512522,0.827465,-0.171532
1629370447052,-0.5124609999999999,0.828929,-0.17086099999999999
1629370447061,-0.512827,0.8279529999999999,-0.170434
1629370447071,-0.512522,0.828075,-0.16994599999999999
1629370447081,-0.513803,0.828197,-0.171044
1629370447090,-0.513132,0.828197,-0.16994599999999999
1629370447100,-0.51362,0.827587,-0.169702
1629370447109,-0.5136809999999999,0.8282579999999999,-0.169397
1629370447119,-0.5133759999999999,0.828014,-0.169336
1629370447129,-0.512644,0.828319,-0.16958
1629370447138,-0.513864,0.827892,-0.169824
1629370447148,-0.512705,0.828136,-0.170007
1629370447157,-0.511912,0.82777,-0.17141
1629370447167,-0.511668,0.828075,-0.171654
1629370447177,-0.512278,0.82777,-0.172508
1629370447186,-0.511363,0.828502,-0.174216
1629370447196,-0.510326,0.828319,-0.176351
1629370447205,-0.509899,0.829112,-0.177266
1629370447215,-0.509655,0.82899,-0.177998
1629370447225,-0.509533,0.829234,-0.17763199999999998
1629370447234,-0.508984,0.829234,-0.176961
1629370447244,-0.509472,0.828136,-0.17793699999999998
1629370447253,-0.509594,0.828014,-0.178303
1629370447263,-0.510204,0.828502,-0.178669
1629370447273,-0.510021,0.8285629999999999,-0.180072
1629370447282,-0.510326,0.829112,-0.180926
1629370447292,-0.510875,0.831064,-0.18178
1629370447301,-0.510021,0.831369,-0.182817
1629370447311,-0.510204,0.832711,-0.183976
1629370447321,-0.509472,0.831552,-0.182939
1629370447330,-0.510265,0.8316129999999999,-0.18348799999999998
1629370447340,-0.510326,0.830942,-0.182939
1629370447349,-0.509899,0.829844,-0.182451
1629370447359,-0.509472,0.830759,-0.181597
1629370447369,-0.509655,0.829539,-0.18117
1629370447378,-0.508984,0.8297829999999999,-0.180987
1629370447388,-0.508435,0.829539,-0.180133
1629370447397,-0.50813,0.828624,-0.180133
1629370447407,-0.507337,0.8276479999999999,-0.17995
1629370447417,-0.506422,0.8273429999999999,-0.17934
1629370447426,-0.506971,0.82655,-0.17946199999999998
1629370447436,-0.506971,0.8264279999999999,-0.180438
1629370447445,-0.507398,0.8270379999999999,-0.179645
1629370447455,-0.506971,0.827587,-0.179584
1629370447465,-0.507337,0.827709,-0.179035
1629370447474,-0.50691,0.828075,-0.178059
1629370447484,-0.508313,0.828197,-0.17854699999999998
1629370447493,-0.508008,0.8282579999999999,-0.177388
