timestamp,ax,ay,az
1629370423001,-0.163785,-0.7905599999999999,-0.612074
1629370423010,-0.159088,-0.796416,-0.607255
1629370423020,-0.15359799999999998,-0.8051389999999999,-0.601704
1629370423029,-0.144143,-0.816363,-0.59658
1629370423039,-0.148108,-0.823622,-0.577609
1629370423049,-0.148413,-0.82655,-0.561871
1629370423058,-0.15006,-0.828929,-0.5444249999999999
1629370423068,-0.155428,-0.8296,-0.534543
1629370423077,-0.154452,-0.833931,-0.528077
1629370423087,-0.150121,-0.83753,-0.526796
1629370423097,-0.145668,-0.839726,-0.525698
1629370423106,-0.14396,-0.842776,-0.5194759999999999
1629370423116,-0.14249599999999998,-0.838384,-0.512949
1629370423125,-0.13847,-0.842288,-0.509167
1629370423135,-0.134566,-0.846558,-0.501847
1629370423145,-0.131455,-0.851316,-0.499651
1629370423154,-0.129686,-0.86071,-0.496174
1629370423164,-0.128405,-0.867603,-0.489525
1629370423173,-0.127124,-0.869555,-0.481107
1629370423183,-0.127368,-0.870653,-0.469517
1629370423193,-0.12566,-0.8766309999999999,-0.456219
1629370423202,-0.125538,-0.879742,-0.43938299999999997
1629370423212,-0.124989,-0.881694,-0.424194
1629370423221,-0.125904,-0.880169,-0.407114
1629370423231,-0.131211,-0.880047,-0.38887499999999997
1629370423241,-0.133834,-0.880108,-0.372405
1629370423250,-0.133895,-0.883158,-0.361303
1629370423260,-0.130906,-0.889197,-0.355447
1629370423269,-0.126758,-0.895541,-0.349713
1629370423279,-0.124745,-0.900543,-0.345748
1629370423289,-0.127246,-0.902617,-0.338001
1629370423298,-0.126331,-0.906643,-0.328973
1629370423308,-0.12486699999999999,-0.913963,-0.312808
1629370423317,-0.122427,-0.913902,-0.300852
1629370423327,-0.122915,-0.911767,-0.277977
1629370423337,-0.11699799999999999,-0.903959,-0.27205999999999997
1629370423346,-0.11223999999999999,-0.899506,-0.25851799999999997
1629370423356,-0.108519,-0.8957849999999999,-0.246745
1629370423365,-0.110471,-0.896883,-0.232898
1629370423375,-0.119194,-0.898164,-0.220637
1629370423385,-0.124074,-0.898591,-0.211426
1629370423394,-0.129625,-0.9046299999999999,-0.199165
1629370423404,-0.13694499999999998,-0.911218,-0.188246
1629370423413,-0.146095,-0.912072,-0.181231
1629370423423,-0.150914,-0.913048,-0.1769
1629370423433,-0.15884399999999999,-0.92171,-0.17269099999999998
1629370423442,-0.165066,-0.932873,-0.174765
1629370423452,-0.17141,-0.942206,-0.18117
1629370423461,-0.178181,-0.9516,-0.18873399999999999
1629370423471,-0.181658,-0.961482,-0.197762
1629370423481,-0.185257,-0.96197,-0.203984
1629370423490,-0.188612,-0.962214,-0.212402
1629370423500,-0.19154,-0.965935,-0.219356
1629370423509,-0.194712,-0.970083,-0.230092
1629370423519,-0.197274,-0.97234,-0.240828
1629370423529,-0.196481,-0.974475,-0.251686
1629370423538,-0.195993,-0.9749019999999999,-0.257664
1629370423548,-0.19702999999999998,-0.968985,-0.260592
1629370423557,-0.197518,-0.961787,-0.25882299999999997
1629370423567,-0.20014099999999999,-0.955321,-0.25254
1629370423577,-0.202459,-0.952332,-0.24522
1629370423586,-0.202947,-0.951539,-0.237534
1629370423596,-0.203374,-0.9502579999999999,-0.22783499999999998
1629370423605,-0.200263,-0.951234,-0.217892
1629370423615,-0.20166599999999998,-0.951417,-0.207034
1629370423625,-0.205387,-0.95038,-0.196969
1629370423634,-0.209596,-0.947452,-0.188673
1629370423644,-0.214781,-0.943304,-0.177693
1629370423653,-0.219173,-0.9441579999999999,-0.168604
1629370423663,-0.224663,-0.940437,-0.161955
1629370423673,-0.2318,-0.937936,-0.155611
1629370423682,-0.237961,-0.9372039999999999,-0.15189
1629370423692,-0.23460599999999998,-0.936472,-0.15237799999999999
1629370423701,-0.231495,-0.9362889999999999,-0.153842
1629370423711,-0.228994,-0.939827,-0.158783
1629370423721,-0.224114,-0.945439,-0.161528
1629370423730,-0.222162,-0.9484279999999999,-0.160003
1629370423740,-0.221308,-0.950746,-0.161833
1629370423749,-0.217526,-0.949892,-0.166469
1629370423759,-0.211975,-0.939278,-0.17385
1629370423769,-0.205204,-0.9271389999999999,-0.180682
1629370423778,-0.198616,-0.920185,-0.1891
1629370423788,-0.190808,-0.917013,-0.201117
1629370423797,-0.184769,-0.921466,-0.212097
1629370423807,-0.17946199999999998,-0.926163,-0.222528
1629370423817,-0.177205,-0.931043,-0.231922
1629370423826,-0.175436,-0.938668,-0.23741199999999998
1629370423836,-0.176229,-0.937448,-0.240279
1629370423845,-0.177083,-0.935435,-0.243756
1629370423855,-0.17885199999999998,-0.936411,-0.244122
1629370423865,-0.183061,-0.934703,-0.245464
1629370423874,-0.181536,-0.9311039999999999,-0.248636
1629370423884,-0.180926,-0.9298839999999999,-0.251808
1629370423893,-0.182512,-0.932751,-0.256444
1629370423903,-0.182451,-0.92842,-0.260531
1629370423913,-0.181658,-0.932141,-0.264618
1629370423922,-0.182817,-0.93879,-0.265716
1629370423932,-0.185684,-0.9414129999999999,-0.262788
1629370423941,-0.19147899999999998,-0.943914,-0.259372
1629370423951,-0.197091,-0.9478179999999999,-0.255102
1629370423961,-0.201544,-0.9478179999999999,-0.252967
1629370423970,-0.203862,-0.949282,-0.252235
1629370423980,-0.20660699999999999,-0.946171,-0.251686
1629370423989,-0.208498,-0.940437,-0.25315
1629370423999,-0.207583,-0.933178,-0.254187
1629370424009,-0.208193,-0.924272,-0.254797
1629370424018,-0.208803,-0.921466,-0.252174
1629370424028,-0.207888,-0.915244,-0.249856
1629370424037,-0.20410599999999998,-0.911279,-0.248331
1629370424047,-0.201422,-0.910547,-0.247416
1629370424057,-0.20166599999999998,-0.9101199999999999,-0.249246
1629370424066,-0.20166599999999998,-0.910486,-0.252113
1629370424076,-0.200202,-0.908717,-0.258579
1629370424085,-0.197396,-0.9119499999999999,-0.268156
1629370424095,-0.197213,-0.911523,-0.277062
1629370424105,-0.19641999999999998,-0.913414,-0.288042
1629370424114,-0.193492,-0.920673,-0.298168
1629370424124,-0.19458999999999999,-0.921161,-0.308355
1629370424133,-0.19337,-0.9211,-0.314821
1629370424143,-0.192272,-0.918843,-0.32452
1629370424153,-0.190808,-0.91744,-0.335012
1629370424162,-0.18788,-0.916647,-0.342271
1629370424172,-0.18178,-0.919941,-0.347151
1629370424181,-0.17751,-0.9274439999999999,-0.353678
1629370424191,-0.17360599999999998,-0.9301889999999999,-0.359046
1629370424201,-0.17116599999999998,-0.930311,-0.363682
1629370424210,-0.167811,-0.924577,-0.36758599999999997
1629370424220,-0.169519,-0.920307,-0.369843
1629370424229,-0.173423,-0.917318,-0.370575
1629370424239,-0.175375,-0.913902,-0.371307
1629370424249,-0.179035,-0.910669,-0.36905
1629370424258,-0.185806,-0.911157,-0.369233
1629370424268,-0.193492,-0.912194,-0.368928
1629370424277,-0.202764,-0.913597,-0.368989
1629370424287,-0.207156,-0.9140849999999999,-0.368562
1629370424297,-0.21337799999999998,-0.914268,-0.364048
1629370424306,-0.219661,-0.9125599999999999,-0.358802
1629370424316,-0.223382,-0.909022,-0.353251
1629370424325,-0.22569999999999998,-0.906643,-0.34892
1629370424335,-0.226554,-0.906826,-0.345321
1629370424345,-0.225578,-0.9040199999999999,-0.34111199999999997
1629370424354,-0.222162,-0.895846,-0.337208
1629370424364,-0.216428,-0.883402,-0.337879
1629370424373,-0.21612299999999998,-0.877729,-0.341966
1629370424383,-0.216733,-0.878522,-0.3477
1629370424393,-0.214964,-0.8744959999999999,-0.35251899999999997
1629370424402,-0.21459799999999998,-0.867115,-0.355813
1629370424412,-0.216916,-0.8602219999999999,-0.356057
1629370424421,-0.223077,-0.86071,-0.350628
1629370424431,-0.227774,-0.865285,-0.34629699999999997
1629370424441,-0.233203,-0.876387,-0.343674
1629370424450,-0.238876,-0.885415,-0.34526
1629370424460,-0.24296299999999998,-0.892979,-0.346846
1629370424469,-0.24631799999999998,-0.892979,-0.348737
1629370424479,-0.24790399999999999,-0.8879159999999999,-0.349957
1629370424489,-0.251808,-0.880413,-0.3477
1629370424498,-0.255651,-0.880474,-0.350567
1629370424508,-0.258945,-0.886818,-0.35746
1629370424517,-0.262666,-0.894687,-0.357765
1629370424527,-0.267607,-0.904996,-0.362279
1629370424537,-0.27144999999999997,-0.914695,-0.370392
1629370424546,-0.274805,-0.91683,-0.379786
1629370424556,-0.274134,-0.906887,-0.386191
1629370424565,-0.270291,-0.898042,-0.390644
1629370424575,-0.269681,-0.894199,-0.392718
1629370424585,-0.270169,-0.888953,-0.39253499999999997
1629370424594,-0.271511,-0.887184,-0.388753
1629370424604,-0.27358499999999997,-0.886269,-0.384788
1629370424613,-0.274866,-0.881877,-0.379481
1629370424623,-0.275293,-0.875838,-0.375028
1629370424633,-0.27388999999999997,-0.863821,-0.369782
1629370424642,-0.273036,-0.842471,-0.365085
1629370424652,-0.275232,-0.822585,-0.3599
1629370424661,-0.281576,-0.80886,-0.353068
1629370424671,-0.294691,-0.800503,-0.339709
1629370424681,-0.309392,-0.799222,-0.320494
1629370424690,-0.320067,-0.8052,-0.300852
1629370424700,-0.328668,-0.820145,-0.283101
1629370424709,-0.334829,-0.843325,-0.27114499999999997
1629370424719,-0.34038,-0.864309,-0.270962
1629370424729,-0.34587,-0.880474,-0.276818
1629370424738,-0.348676,-0.893467,-0.288957
1629370424748,-0.349469,-0.9027999999999999,-0.304024
1629370424757,-0.350628,-0.9098149999999999,-0.32086
1629370424767,-0.350872,-0.914146,-0.335744
1629370424777,-0.347578,-0.918172,-0.348066
1629370424786,-0.344955,-0.919636,-0.3538
1629370424796,-0.342698,-0.915366,-0.354227
1629370424805,-0.341234,-0.914268,-0.350567
1629370424815,-0.34111199999999997,-0.914024,-0.342515
1629370424825,-0.34172199999999997,-0.917562,-0.335927
1629370424834,-0.338672,-0.923296,-0.33092499999999997
1629370424844,-0.335561,-0.926163,-0.327814
1629370424853,-0.330864,-0.925126,-0.32696
1629370424863,-0.323178,-0.921466,-0.32452
1629370424873,-0.31781,-0.916159,-0.31982299999999997
1629370424882,-0.307989,-0.9021899999999999,-0.314943
1629370424892,-0.307135,-0.908412,-0.308782
1629370424901,-0.307745,-0.906277,-0.302743
1629370424911,-0.306769,-0.899567,-0.299754
1629370424921,-0.308172,-0.901031,-0.29548399999999997
1629370424930,-0.307562,-0.891027,-0.288408
1629370424940,-0.30658599999999997,-0.87718,-0.283406
1629370424949,-0.306342,-0.874862,-0.280661
1629370424959,-0.307684,-0.878095,-0.278343
1629370424969,-0.307684,-0.8848659999999999,-0.27877
1629370424978,-0.304207,-0.891881,-0.27755
1629370424988,-0.302438,-0.8954799999999999,-0.275354
1629370424997,-0.302377,-0.8960899999999999,-0.272853
1629370425007,-0.300181,-0.896334,-0.268522
1629370425017,-0.29768,-0.895846,-0.268888
1629370425026,-0.294935,-0.8982249999999999,-0.272304
1629370425036,-0.29243399999999997,-0.900299,-0.277245
1629370425045,-0.287798,-0.902068,-0.280478
1629370425055,-0.283894,-0.905606,-0.281088
1629370425065,-0.279746,-0.904813,-0.28316199999999997
1629370425074,-0.276147,-0.899384,-0.285663
1629370425084,-0.270962,-0.898347,-0.291641
1629370425093,-0.262666,-0.896334,-0.296216
1629370425103,-0.25668799999999997,-0.890051,-0.298839
1629370425113,-0.249612,-0.884744,-0.301523
1629370425122,-0.244061,-0.8784,-0.304634
1629370425132,-0.24095,-0.87596,-0.308233
1629370425141,-0.239425,-0.877363,-0.312503
1629370425151,-0.23802199999999998,-0.876143,-0.317871
1629370425161,-0.235643,-0.879315,-0.32208
1629370425170,-0.23649699999999999,-0.8857809999999999,-0.326045
1629370425180,-0.23619199999999999,-0.8866959999999999,-0.329827
1629370425189,-0.237229,-0.884439,-0.335256
1629370425199,-0.236863,-0.883463,-0.34221
1629370425209,-0.23802199999999998,-0.887184,-0.34831
1629370425218,-0.23741199999999998,-0.888343,-0.351726
1629370425228,-0.236558,-0.890234,-0.350262
1629370425237,-0.23619199999999999,-0.891576,-0.350811
1629370425247,-0.239364,-0.891332,-0.35075
1629370425257,-0.241011,-0.889929,-0.35190899999999997
1629370425266,-0.24235299999999999,-0.889319,-0.355386
1629370425276,-0.244061,-0.890966,-0.359595
1629370425285,-0.24418299999999998,-0.8970049999999999,-0.36514599999999997
1629370425295,-0.24278,-0.9009699999999999,-0.368257
1629370425305,-0.23893699999999998,-0.9034099999999999,-0.372893
1629370425314,-0.233874,-0.902861,-0.378444
1629370425324,-0.232044,-0.901397,-0.379786
1629370425333,-0.231922,-0.8979199999999999,-0.379054
1629370425343,-0.235094,-0.891332,-0.37576
1629370425353,-0.241133,-0.881633,-0.371978
1629370425362,-0.249368,-0.87413,-0.365268
1629370425372,-0.257847,-0.870775,-0.35800899999999997
1629370425381,-0.263642,-0.874984,-0.355325
1629370425391,-0.266631,-0.87779,-0.35434899999999997
1629370425401,-0.26779,-0.880779,-0.35136
1629370425410,-0.271328,-0.8839509999999999,-0.35282399999999997
1629370425420,-0.272792,-0.8854759999999999,-0.35617899999999997
1629370425429,-0.274927,-0.885232,-0.360266
1629370425439,-0.276452,-0.88694,-0.362035
1629370425449,-0.27755,-0.894321,-0.365268
1629370425458,-0.275903,-0.899689,-0.368745
1629370425468,-0.273524,-0.900482,-0.372039
1629370425477,-0.270352,-0.896517,-0.373686
1629370425487,-0.267424,-0.892308,-0.373198
1629370425497,-0.263459,-0.883768,-0.373991
1629370425506,-0.260775,-0.8784,-0.37624799999999997
1629370425516,-0.257054,-0.8790709999999999,-0.379786
1629370425525,-0.252296,-0.883524,-0.38247
1629370425535,-0.247538,-0.886147,-0.385337
1629370425545,-0.24278,-0.882792,-0.386008
1629370425554,-0.241072,-0.8784,-0.383446
1629370425564,-0.239303,-0.872117,-0.379115
1629370425573,-0.23985199999999998,-0.867847,-0.374723
1629370425583,-0.242414,-0.866139,-0.369843
1629370425593,-0.246074,-0.865651,-0.363987
1629370425602,-0.24912399999999998,-0.867176,-0.357887
1629370425612,-0.251686,-0.8708359999999999,-0.354715
1629370425621,-0.253943,-0.8757159999999999,-0.353617
1629370425631,-0.255956,-0.878217,-0.353312
1629370425641,-0.2562,-0.881755,-0.35251899999999997
1629370425650,-0.257725,-0.884927,-0.350018
1629370425660,-0.261629,-0.889014,-0.34709
1629370425669,-0.264496,-0.893284,-0.34404
1629370425679,-0.266326,-0.895846,-0.340868
1629370425689,-0.268949,-0.895358,-0.338428
1629370425698,-0.270962,-0.894077,-0.335317
1629370425708,-0.274988,-0.8960899999999999,-0.332267
1629370425717,-0.276025,-0.897554,-0.332084
1629370425727,-0.274317,-0.895602,-0.331901
1629370425737,-0.273768,-0.89304,-0.33183999999999997
1629370425746,-0.27205999999999997,-0.890478,-0.334219
1629370425756,-0.270108,-0.8882209999999999,-0.334829
1629370425765,-0.268461,-0.887367,-0.337757
1629370425775,-0.266326,-0.884195,-0.338184
1629370425785,-0.265594,-0.880962,-0.33916
1629370425794,-0.265716,-0.877912,-0.34202699999999997
1629370425804,-0.267302,-0.877729,-0.347334
1629370425813,-0.266997,-0.8775459999999999,-0.35312899999999997
1629370425823,-0.265838,-0.878949,-0.35807
1629370425833,-0.264435,-0.880962,-0.361608
1629370425842,-0.26413,-0.880352,-0.363316
1629370425852,-0.265777,-0.882182,-0.363438
1629370425861,-0.266204,-0.883402,-0.363804
1629370425871,-0.269132,-0.884378,-0.36417
1629370425881,-0.271999,-0.883097,-0.363255
1629370425890,-0.275049,-0.882609,-0.359717
1629370425900,-0.276574,-0.883097,-0.357277
1629370425909,-0.277916,-0.882548,-0.35746
1629370425919,-0.280844,-0.881755,-0.35556899999999997
1629370425929,-0.28182,-0.882182,-0.356545
1629370425938,-0.282735,-0.883707,-0.35868
1629370425948,-0.282186,-0.8848659999999999,-0.360327
1629370425957,-0.281515,-0.885842,-0.361486
1629370425967,-0.279014,-0.8873059999999999,-0.361486
1629370425977,-0.277855,-0.884439,-0.359656
1629370425986,-0.278404,-0.878827,-0.35709399999999997
1629370425996,-0.281088,-0.876143,-0.354776
1629370426005,-0.28346699999999997,-0.869616,-0.35197
1629370426015,-0.286456,-0.867664,-0.350567
1629370426025,-0.287676,-0.867603,-0.35136
1629370426034,-0.288957,-0.867664,-0.350628
1629370426044,-0.288347,-0.869799,-0.35160399999999997
1629370426053,-0.28731,-0.874374,-0.35160399999999997
1629370426063,-0.285175,-0.876692,-0.354227
1629370426073,-0.284138,-0.876143,-0.357277
1629370426082,-0.28377199999999997,-0.876082,-0.359168
1629370426092,-0.28194199999999997,-0.877302,-0.364048
1629370426101,-0.28011199999999997,-0.8769359999999999,-0.36661
1629370426111,-0.27694,-0.873154,-0.367708
1629370426121,-0.276086,-0.867969,-0.36636599999999997
1629370426130,-0.274622,-0.86803,-0.360449
1629370426140,-0.275903,-0.866383,-0.35678899999999997
1629370426149,-0.2806,-0.864065,-0.353678
1629370426159,-0.282003,-0.861015,-0.355203
1629370426169,-0.283406,-0.860588,-0.359351
1629370426178,-0.282918,-0.859856,-0.367098
1629370426188,-0.28243,-0.857965,-0.374906
1629370426197,-0.28285699999999997,-0.854,-0.380396
1629370426207,-0.285358,-0.853695,-0.387106
1629370426217,-0.288652,-0.8529019999999999,-0.39161999999999997
1629370426226,-0.292068,-0.853024,-0.395036
1629370426236,-0.295606,-0.848815,-0.397842
1629370426245,-0.300242,-0.845826,-0.397842
1629370426255,-0.302987,-0.847961,-0.39588999999999996
1629370426265,-0.302804,-0.8565619999999999,-0.395036
1629370426274,-0.301157,-0.867664,-0.388143
1629370426284,-0.301584,-0.881999,-0.385703
1629370426293,-0.30384099999999997,-0.890112,-0.385825
1629370426303,-0.305793,-0.889929,-0.38795999999999997
1629370426313,-0.30536599999999997,-0.8839509999999999,-0.391986
1629370426322,-0.304573,-0.878278,-0.395646
1629370426332,-0.30378,-0.8751059999999999,-0.399184
1629370426341,-0.302438,-0.8711409999999999,-0.40089199999999997
1629370426351,-0.301706,-0.869189,-0.397293
1629370426361,-0.301218,-0.868823,-0.393389
1629370426370,-0.301401,-0.865285,-0.390217
1629370426380,-0.301706,-0.8602219999999999,-0.384483
1629370426389,-0.300608,-0.8565619999999999,-0.378749
1629370426399,-0.30012,-0.857111,-0.373076
1629370426409,-0.300242,-0.859429,-0.369233
1629370426418,-0.299632,-0.862418,-0.366
1629370426428,-0.298412,-0.865468,-0.364719
1629370426437,-0.297375,-0.868152,-0.365695
1629370426447,-0.296826,-0.8699209999999999,-0.368684
1629370426457,-0.29646,-0.870958,-0.372039
1629370426466,-0.295362,-0.869311,-0.374845
1629370426476,-0.294386,-0.868091,-0.374784
1629370426485,-0.294996,-0.868152,-0.373076
1629370426495,-0.295911,-0.870592,-0.37002599999999997
1629370426505,-0.298046,-0.871324,-0.364414
1629370426514,-0.299449,-0.873398,-0.361242
1629370426524,-0.300669,-0.876204,-0.359107
1629370426533,-0.301096,-0.878034,-0.357643
1629370426543,-0.299144,-0.876448,-0.357582
1629370426553,-0.29822899999999997,-0.875472,-0.359168
1629370426562,-0.295545,-0.874313,-0.36051
1629370426572,-0.291885,-0.871385,-0.360266
1629370426581,-0.289445,-0.869677,-0.360998
1629370426591,-0.288286,-0.866444,-0.360449
1629370426601,-0.288591,-0.862174,-0.35892399999999997
1629370426610,-0.291214,-0.8608319999999999,-0.357216
1629370426620,-0.292373,-0.8614419999999999,-0.35685
1629370426629,-0.29273899999999997,-0.866688,-0.355813
1629370426639,-0.292617,-0.869799,-0.35648399999999997
1629370426649,-0.292617,-0.872178,-0.35807
1629370426658,-0.29097,-0.8729709999999999,-0.357948
1629370426668,-0.290482,-0.873215,-0.357948
1629370426677,-0.288347,-0.874008,-0.357216
1629370426687,-0.286761,-0.875777,-0.354532
1629370426697,-0.2867,-0.87596,-0.35434899999999997
1629370426706,-0.286944,-0.873154,-0.355447
1629370426716,-0.286395,-0.871568,-0.358253
1629370426725,-0.2867,-0.871568,-0.361608
1629370426735,-0.28529699999999997,-0.872422,-0.36545099999999997
1629370426745,-0.284016,-0.873032,-0.369233
1629370426754,-0.28304,-0.8723609999999999,-0.370758
1629370426764,-0.282186,-0.872117,-0.370697
1629370426773,-0.283406,-0.871385,-0.370697
1629370426783,-0.282613,-0.870104,-0.370453
1629370426793,-0.282491,-0.871873,-0.369843
1629370426802,-0.282918,-0.872117,-0.36941599999999997
1629370426812,-0.28224699999999997,-0.870714,-0.369782
1629370426821,-0.282186,-0.868335,-0.36905
1629370426831,-0.28285699999999997,-0.865346,-0.368623
1629370426841,-0.284504,-0.864614,-0.367952
1629370426850,-0.286029,-0.864248,-0.367525
1629370426860,-0.286822,-0.863638,-0.367647
1629370426869,-0.289506,-0.8617469999999999,-0.36880599999999997
1629370426879,-0.290848,-0.863333,-0.36697599999999997
1629370426889,-0.292251,-0.865468,-0.367708
1629370426898,-0.294813,-0.866444,-0.368135
1629370426908,-0.296765,-0.86803,-0.36880599999999997
1629370426917,-0.299754,-0.867725,-0.37149
1629370426927,-0.301645,-0.867725,-0.373503
1629370426937,-0.302072,-0.86681,-0.374479
1629370426946,-0.301767,-0.866871,-0.375516
1629370426956,-0.300608,-0.867908,-0.37594299999999997
1629370426965,-0.301279,-0.869372,-0.373259
1629370426975,-0.300242,-0.87047,-0.371124
1629370426985,-0.299083,-0.870409,-0.371856
1629370426994,-0.297436,-0.868335,-0.372893
1629370427004,-0.297497,-0.862723,-0.374601
1629370427013,-0.296948,-0.857721,-0.379054
1629370427023,-0.29792399999999997,-0.854793,-0.38003
1629370427033,-0.296216,-0.852536,-0.384788
1629370427042,-0.297375,-0.851133,-0.386496
1629370427052,-0.297436,-0.852109,-0.388509
1629370427061,-0.297497,-0.853634,-0.38917999999999997
1629370427071,-0.298778,-0.856135,-0.389363
1629370427081,-0.299754,-0.858331,-0.388631
1629370427090,-0.301218,-0.856196,-0.386252
1629370427100,-0.301279,-0.858941,-0.385886
1629370427109,-0.300974,-0.861686,-0.384483
1629370427119,-0.297558,-0.865468,-0.38369
1629370427129,-0.294203,-0.8702259999999999,-0.383202
1629370427138,-0.29365399999999997,-0.8726659999999999,-0.38186
1629370427148,-0.291031,-0.871507,-0.383995
1629370427157,-0.288408,-0.869982,-0.386496
1629370427167,-0.288225,-0.868213,-0.389912
1629370427177,-0.28590699999999997,-0.8647969999999999,-0.39314499999999997
1629370427186,-0.285358,-0.861808,-0.394792
1629370427196,-0.286517,-0.8608319999999999,-0.393999
1629370427205,-0.287493,-0.8605269999999999,-0.394487
1629370427215,-0.286456,-0.860283,-0.393694
1629370427225,-0.287676,-0.8571719999999999,-0.391742
1629370427234,-0.290055,-0.853085,-0.390034
1629370427244,-0.291153,-0.851133,-0.387289
1629370427253,-0.291519,-0.8541219999999999,-0.387777
1629370427263,-0.293166,-0.8571719999999999,-0.388143
1629370427273,-0.293837,-0.855769,-0.389119
1629370427282,-0.295545,-0.85583,-0.389546
1629370427292,-0.296826,-0.856989,-0.389668
1629370427301,-0.29853399999999997,-0.8577819999999999,-0.389851
1629370427311,-0.299876,-0.8601,-0.38917999999999997
1629370427321,-0.302682,-0.864248,-0.387106
1629370427330,-0.306098,-0.866261,-0.386374
1629370427340,-0.307135,-0.865468,-0.383385
1629370427349,-0.308782,-0.866871,-0.380884
1629370427359,-0.310978,-0.867847,-0.379115
1629370427369,-0.311832,-0.868335,-0.37807799999999997
1629370427378,-0.311466,-0.867664,-0.377041
1629370427388,-0.312198,-0.868518,-0.37515
1629370427397,-0.312564,-0.867054,-0.374601
1629370427407,-0.310978,-0.865346,-0.374357
1629370427417,-0.309148,-0.863943,-0.373625
1629370427426,-0.306525,-0.863089,-0.374418
1629370427436,-0.30414599999999997,-0.863211,-0.374662
1629370427445,-0.30134,-0.86193,-0.375516
1629370427455,-0.299998,-0.860588,-0.37637
1629370427465,-0.298168,-0.860161,-0.37655299999999997
1629370427474,-0.296582,-0.860588,-0.376065
1629370427484,-0.29548399999999997,-0.861869,-0.376187
1629370427493,-0.294508,-0.861259,-0.37637
1629370427503,-0.294203,-0.860405,-0.376431
1629370427513,-0.293532,-0.8611369999999999,-0.376309
1629370427522,-0.293166,-0.8614419999999999,-0.375699
1629370427532,-0.291702,-0.861198,-0.37685799999999997
1629370427541,-0.291397,-0.8611369999999999,-0.377285
1629370427551,-0.289872,-0.861381,-0.37716299999999997
1629370427561,-0.289018,-0.8601,-0.377529
1629370427570,-0.289872,-0.8605269999999999,-0.378261
1629370427580,-0.289262,-0.857294,-0.377407
1629370427589,-0.291031,-0.856074,-0.378322
1629370427599,-0.29243399999999997,-0.85644,-0.379969
1629370427609,-0.292922,-0.854976,-0.381799
1629370427618,-0.293471,-0.856074,-0.381494
1629370427628,-0.294752,-0.856806,-0.381494
1629370427637,-0.295362,-0.858636,-0.381067
1629370427647,-0.296155,-0.860771,-0.38021299999999997
1629370427657,-0.296216,-0.86254,-0.37929799999999997
1629370427666,-0.29731399999999997,-0.865285,-0.379176
1629370427676,-0.29700899999999997,-0.8662,-0.380091
1629370427685,-0.29524,-0.866444,-0.380152
1629370427695,-0.294386,-0.866139,-0.381799
1629370427705,-0.293166,-0.866444,-0.38356799999999996
1629370427714,-0.29341,-0.865773,-0.3843
1629370427724,-0.292251,-0.865285,-0.386374
1629370427733,-0.29212899999999997,-0.866566,-0.386191
1629370427743,-0.290909,-0.865773,-0.387777
1629370427753,-0.290665,-0.866444,-0.387167
1629370427762,-0.290116,-0.86742,-0.386618
1629370427772,-0.28975,-0.867542,-0.386801
1629370427781,-0.288896,-0.867054,-0.38674
1629370427791,-0.287615,-0.865956,-0.386984
1629370427801,-0.28609,-0.866322,-0.387716
1629370427810,-0.284504,-0.866932,-0.386923
1629370427820,-0.28346699999999997,-0.866932,-0.385337
1629370427829,-0.282979,-0.867298,-0.384422
1629370427839,-0.282674,-0.867542,-0.382165
1629370427849,-0.282796,-0.869128,-0.380335
1629370427858,-0.282674,-0.86986,-0.379725
1629370427868,-0.282064,-0.8705309999999999,-0.379359
1629370427877,-0.28285699999999997,-0.870287,-0.38003
1629370427887,-0.28133199999999997,-0.8699209999999999,-0.37990799999999997
1629370427897,-0.28133199999999997,-0.8702259999999999,-0.379847
1629370427906,-0.28041699999999997,-0.86925,-0.379542
1629370427916,-0.279746,-0.867786,-0.380274
1629370427925,-0.28011199999999997,-0.868335,-0.380396
1629370427935,-0.279685,-0.868152,-0.37990799999999997
1629370427945,-0.277306,-0.86803,-0.37881
1629370427954,-0.278099,-0.86864,-0.377346
1629370427964,-0.277855,-0.867603,-0.377285
1629370427973,-0.278648,-0.866322,-0.374967
1629370427983,-0.278892,-0.866505,-0.373686
1629370427993,-0.279929,-0.867359,-0.37271
1629370428002,-0.2806,-0.867542,-0.37088
1629370428012,-0.279746,-0.86742,-0.36941599999999997
1629370428021,-0.280844,-0.86803,-0.368867
1629370428031,-0.281454,-0.867786,-0.369172
1629370428041,-0.281271,-0.867908,-0.368867
1629370428050,-0.281515,-0.867359,-0.368623
1629370428060,-0.28255199999999997,-0.867847,-0.368745
1629370428069,-0.282613,-0.866566,-0.369538
1629370428079,-0.283711,-0.867542,-0.370514
1629370428089,-0.283894,-0.869433,-0.37002599999999997
1629370428098,-0.28426,-0.869006,-0.37063599999999997
1629370428108,-0.28487,-0.869738,-0.37155099999999996
1629370428117,-0.28407699999999997,-0.869677,-0.371734
1629370428127,-0.28468699999999997,-0.868701,-0.371917
1629370428137,-0.285663,-0.869494,-0.372344
1629370428146,-0.285358,-0.868274,-0.371917
1629370428156,-0.286761,-0.869433,-0.370392
1629370428165,-0.286944,-0.872483,-0.371307
1629370428175,-0.285541,-0.870714,-0.371856
1629370428185,-0.285114,-0.869494,-0.372161
1629370428194,-0.284931,-0.867969,-0.371673
1629370428204,-0.284809,-0.86681,-0.372039
1629370428213,-0.284504,-0.867786,-0.373015
1629370428223,-0.284504,-0.869128,-0.374296
1629370428233,-0.28560199999999997,-0.869494,-0.373991
1629370428242,-0.28560199999999997,-0.869067,-0.375821
1629370428252,-0.285236,-0.869311,-0.37655299999999997
1629370428261,-0.286761,-0.869982,-0.376614
1629370428271,-0.287249,-0.869555,-0.37637
1629370428281,-0.287737,-0.868518,-0.37759
1629370428290,-0.288652,-0.86803,-0.37624799999999997
1629370428300,-0.29036,-0.866688,-0.375089
1629370428309,-0.291275,-0.866627,-0.374357
1629370428319,-0.291946,-0.866993,-0.373137
1629370428329,-0.293288,-0.867908,-0.373442
1629370428338,-0.29426399999999997,-0.868457,-0.372893
1629370428348,-0.294386,-0.867054,-0.374235
1629370428357,-0.294447,-0.866993,-0.374479
1629370428367,-0.29578899999999997,-0.866688,-0.375577
1629370428377,-0.29487399999999997,-0.865224,-0.37515
1629370428386,-0.295362,-0.8651019999999999,-0.377529
1629370428396,-0.296765,-0.865346,-0.37777299999999997
1629370428405,-0.29829,-0.865346,-0.377102
1629370428415,-0.298778,-0.865163,-0.376309
1629370428425,-0.300181,-0.863516,-0.375211
1629370428434,-0.301584,-0.863699,-0.374052
1629370428444,-0.302316,-0.8629669999999999,-0.373991
1629370428453,-0.301279,-0.862235,-0.373198
1629370428463,-0.302621,-0.862906,-0.373015
1629370428473,-0.302194,-0.862479,-0.373381
1629370428482,-0.302316,-0.8620519999999999,-0.37332
1629370428492,-0.302682,-0.861686,-0.373137
1629370428501,-0.303109,-0.861076,-0.374906
1629370428511,-0.303292,-0.86132,-0.374723
1629370428521,-0.303048,-0.860344,-0.375089
1629370428530,-0.302926,-0.859734,-0.374296
1629370428540,-0.303597,-0.86071,-0.374418
1629370428549,-0.30439,-0.861259,-0.376004
1629370428559,-0.303658,-0.8602219999999999,-0.376614
1629370428569,-0.303292,-0.860893,-0.378017
1629370428578,-0.302987,-0.85949,-0.37868799999999997
1629370428588,-0.301767,-0.859063,-0.38003
1629370428597,-0.301157,-0.858758,-0.382226
1629370428607,-0.30134,-0.858148,-0.383324
1629370428617,-0.300974,-0.858331,-0.384788
1629370428626,-0.300791,-0.859734,-0.385398
1629370428636,-0.300974,-0.860283,-0.386374
1629370428645,-0.30012,-0.860039,-0.386618
1629370428655,-0.299937,-0.859734,-0.38613
1629370428665,-0.300974,-0.8601,-0.387045
1629370428674,-0.30012,-0.860344,-0.386984
1629370428684,-0.300486,-0.860466,-0.386801
1629370428693,-0.300547,-0.861015,-0.387838
1629370428703,-0.300608,-0.86193,-0.387472
1629370428713,-0.300364,-0.8617469999999999,-0.387045
1629370428722,-0.299144,-0.861198,-0.387472
1629370428732,-0.299693,-0.861503,-0.386923
1629370428741,-0.299144,-0.862296,-0.385947
1629370428751,-0.299876,-0.86315,-0.38613
1629370428761,-0.299998,-0.862723,-0.384544
1629370428770,-0.298778,-0.86376,-0.383629
1629370428780,-0.29822899999999997,-0.86437,-0.38186
1629370428789,-0.298595,-0.863516,-0.380884
1629370428799,-0.297802,-0.862906,-0.380701
1629370428809,-0.298046,-0.8626619999999999,-0.37942
1629370428818,-0.296887,-0.86254,-0.38003
1629370428828,-0.29639899999999997,-0.863821,-0.38125
1629370428837,-0.295728,-0.862113,-0.381006
1629370428847,-0.294447,-0.862296,-0.380152
1629370428857,-0.293776,-0.86376,-0.37942
1629370428866,-0.293776,-0.864309,-0.378261
1629370428876,-0.293227,-0.863821,-0.37899299999999997
1629370428885,-0.293227,-0.863394,-0.378871
1629370428895,-0.292678,-0.8632719999999999,-0.37881
1629370428905,-0.290787,-0.862418,-0.378932
1629370428914,-0.290482,-0.86254,-0.381067
1629370428924,-0.290055,-0.864004,-0.382592
1629370428933,-0.290604,-0.86315,-0.382287
1629370428943,-0.289933,-0.86254,-0.382531
1629370428953,-0.289567,-0.863028,-0.38247
1629370428962,-0.28975,-0.86315,-0.38173799999999997
1629370428972,-0.290421,-0.863821,-0.383019
1629370428981,-0.290665,-0.862723,-0.38356799999999996
1629370428991,-0.289811,-0.861991,-0.384117
1629370429001,-0.289872,-0.861259,-0.38491
1629370429010,-0.289872,-0.860954,-0.38491
1629370429020,-0.289323,-0.860283,-0.385642
1629370429029,-0.289262,-0.858941,-0.386069
1629370429039,-0.28975,-0.8608319999999999,-0.38552
1629370429049,-0.289628,-0.860588,-0.38613
1629370429058,-0.289872,-0.860954,-0.386801
1629370429068,-0.289201,-0.86193,-0.386313
1629370429077,-0.289567,-0.859978,-0.387106
1629370429087,-0.288835,-0.8601,-0.387228
1629370429097,-0.289872,-0.860649,-0.386984
1629370429106,-0.290299,-0.8611369999999999,-0.387594
1629370429116,-0.288774,-0.861625,-0.387472
1629370429125,-0.289018,-0.862174,-0.38826499999999997
1629370429135,-0.289323,-0.861686,-0.388936
1629370429145,-0.289201,-0.862906,-0.389668
1629370429154,-0.288652,-0.861808,-0.391132
1629370429164,-0.289689,-0.862235,-0.389607
1629370429173,-0.288896,-0.8635769999999999,-0.389912
1629370429183,-0.289384,-0.865041,-0.390156
1629370429193,-0.289201,-0.863455,-0.389912
1629370429202,-0.28792,-0.8611369999999999,-0.390644
1629370429212,-0.287798,-0.859429,-0.39070499999999997
1629370429221,-0.286761,-0.859246,-0.39192499999999997
1629370429231,-0.28590699999999997,-0.8586969999999999,-0.391803
1629370429241,-0.28590699999999997,-0.858941,-0.392291
1629370429250,-0.28609,-0.860344,-0.393694
1629370429260,-0.285114,-0.8599169999999999,-0.394731
1629370429269,-0.285419,-0.861625,-0.39466999999999997
1629370429279,-0.28548,-0.862235,-0.395768
1629370429289,-0.28438199999999997,-0.863333,-0.394609
1629370429298,-0.284748,-0.862113,-0.394487
1629370429308,-0.28548,-0.861503,-0.394426
1629370429317,-0.284504,-0.860954,-0.394487
1629370429327,-0.28621199999999997,-0.860161,-0.393816
1629370429337,-0.28529699999999997,-0.8602219999999999,-0.394487
1629370429346,-0.285968,-0.860344,-0.393572
1629370429356,-0.286395,-0.859978,-0.394609
1629370429365,-0.285541,-0.8601,-0.395158
1629370429375,-0.28548,-0.859673,-0.395341
1629370429385,-0.286761,-0.8599169999999999,-0.395463
1629370429394,-0.28792,-0.8601,-0.39558499999999996
1629370429404,-0.28609,-0.859734,-0.396073
1629370429413,-0.287371,-0.8590019999999999,-0.395829
1629370429423,-0.288713,-0.859185,-0.395524
1629370429433,-0.289262,-0.858514,-0.395341
1629370429442,-0.289384,-0.858514,-0.39588999999999996
1629370429452,-0.28975,-0.858575,-0.395524
1629370429461,-0.290665,-0.8596119999999999,-0.395951
1629370429471,-0.290604,-0.858758,-0.39527999999999996
1629370429481,-0.290421,-0.858758,-0.395219
1629370429490,-0.290787,-0.8586969999999999,-0.394304
1629370429500,-0.290604,-0.85827,-0.394426
1629370429509,-0.290787,-0.857904,-0.394548
1629370429519,-0.291275,-0.858026,-0.395036
1629370429529,-0.290421,-0.857904,-0.395036
1629370429538,-0.291458,-0.857233,-0.394487
1629370429548,-0.291153,-0.8586969999999999,-0.394609
1629370429557,-0.29158,-0.858453,-0.394426
1629370429567,-0.29219,-0.857843,-0.395036
1629370429577,-0.292251,-0.8574769999999999,-0.394243
1629370429586,-0.292678,-0.858148,-0.394304
1629370429596,-0.292373,-0.856684,-0.393999
1629370429605,-0.291885,-0.855708,-0.394914
1629370429615,-0.29219,-0.856623,-0.394426
1629370429625,-0.2928,-0.856135,-0.39405999999999997
1629370429634,-0.292068,-0.856074,-0.39405999999999997
1629370429644,-0.292373,-0.85705,-0.393511
1629370429653,-0.29402,-0.857721,-0.392657
1629370429663,-0.293532,-0.858514,-0.393938
1629370429673,-0.293593,-0.8583919999999999,-0.394243
1629370429682,-0.29402,-0.858209,-0.393328
1629370429692,-0.294691,-0.8586969999999999,-0.393084
1629370429701,-0.295362,-0.8590019999999999,-0.392474
1629370429711,-0.29456899999999997,-0.858026,-0.392779
1629370429721,-0.294813,-0.8583919999999999,-0.39192499999999997
1629370429730,-0.29609399999999997,-0.859185,-0.392352
1629370429740,-0.29456899999999997,-0.85888,-0.393206
1629370429749,-0.29487399999999997,-0.858575,-0.39222999999999997
1629370429759,-0.295423,-0.8580869999999999,-0.392169
1629370429769,-0.294508,-0.85827,-0.393389
1629370429778,-0.29487399999999997,-0.858331,-0.393206
1629370429788,-0.29487399999999997,-0.858331,-0.391498
1629370429797,-0.29548399999999997,-0.858148,-0.39192499999999997
1629370429807,-0.29517899999999997,-0.858453,-0.391193
1629370429817,-0.29487399999999997,-0.858453,-0.391193
1629370429826,-0.295118,-0.859978,-0.392047
1629370429836,-0.29517899999999997,-0.860405,-0.390827
1629370429845,-0.293837,-0.860283,-0.391132
1629370429855,-0.294325,-0.859368,-0.390888
1629370429865,-0.294203,-0.858026,-0.390949
1629370429874,-0.29334899999999997,-0.858453,-0.390583
1629370429884,-0.29395899999999997,-0.858636,-0.390339
1629370429893,-0.293837,-0.8586969999999999,-0.390278
1629370429903,-0.292495,-0.858209,-0.389729
1629370429913,-0.29304399999999997,-0.859063,-0.39009499999999997
1629370429922,-0.29243399999999997,-0.860771,-0.389302
1629370429932,-0.29334899999999997,-0.860588,-0.388448
1629370429941,-0.2928,-0.86071,-0.38856999999999997
1629370429951,-0.29219,-0.860588,-0.390583
1629370429961,-0.291885,-0.860039,-0.391559
1629370429970,-0.29036,-0.8596119999999999,-0.392108
1629370429980,-0.290604,-0.859551,-0.393084
1629370429989,-0.289689,-0.859856,-0.392169
1629370429999,-0.289201,-0.860649,-0.391498
1629370430009,-0.28914,-0.860588,-0.391986
1629370430018,-0.289079,-0.86071,-0.390156
1629370430028,-0.289994,-0.858636,-0.390217
1629370430037,-0.289384,-0.857843,-0.389424
1629370430047,-0.288408,-0.857843,-0.389363
1629370430057,-0.289018,-0.8577819999999999,-0.389302
1629370430066,-0.289323,-0.857294,-0.389058
1629370430076,-0.289384,-0.856745,-0.389363
1629370430085,-0.289018,-0.8583919999999999,-0.389851
1629370430095,-0.28914,-0.859246,-0.390156
1629370430105,-0.288957,-0.8599169999999999,-0.390766
1629370430114,-0.289872,-0.860954,-0.391681
1629370430124,-0.289079,-0.861259,-0.390522
1629370430133,-0.288774,-0.861076,-0.390766
1629370430143,-0.289384,-0.861198,-0.391559
1629370430153,-0.289445,-0.861015,-0.39039999999999997
1629370430162,-0.289506,-0.860771,-0.390766
1629370430172,-0.28975,-0.861198,-0.390278
1629370430181,-0.289262,-0.860893,-0.391132
1629370430191,-0.289201,-0.860161,-0.392047
1629370430201,-0.288713,-0.8599169999999999,-0.391498
1629370430210,-0.288408,-0.858514,-0.391132
1629370430220,-0.289384,-0.8602219999999999,-0.389668
1629370430229,-0.289872,-0.862296,-0.389241
1629370430239,-0.290665,-0.862418,-0.38917999999999997
1629370430249,-0.290055,-0.861869,-0.38826499999999997
1629370430258,-0.290055,-0.860893,-0.389607
1629370430268,-0.289872,-0.859856,-0.389424
1629370430277,-0.288774,-0.859795,-0.38948499999999997
1629370430287,-0.28853,-0.861015,-0.39009499999999997
1629370430297,-0.289628,-0.8614419999999999,-0.390461
1629370430306,-0.28975,-0.861564,-0.389851
1629370430316,-0.289811,-0.861991,-0.390156
1629370430325,-0.290177,-0.863455,-0.389912
1629370430335,-0.289262,-0.862723,-0.389058
1629370430345,-0.289689,-0.862784,-0.389302
1629370430354,-0.290238,-0.863211,-0.389912
1629370430364,-0.291214,-0.863394,-0.38917999999999997
1629370430373,-0.291092,-0.863638,-0.389119
1629370430383,-0.29243399999999997,-0.864065,-0.387838
1629370430393,-0.292007,-0.864736,-0.386435
1629370430402,-0.291153,-0.862418,-0.385947
1629370430412,-0.291031,-0.860283,-0.385032
1629370430421,-0.291458,-0.859734,-0.384788
1629370430431,-0.290665,-0.858453,-0.38491
1629370430441,-0.291946,-0.859795,-0.386191
1629370430450,-0.292251,-0.8608319999999999,-0.385276
1629370430460,-0.292556,-0.861381,-0.385337
1629370430469,-0.292678,-0.8620519999999999,-0.384666
1629370430479,-0.293776,-0.861198,-0.38326299999999996
1629370430489,-0.293593,-0.861381,-0.383812
1629370430498,-0.29365399999999997,-0.861625,-0.382775
1629370430508,-0.29395899999999997,-0.8611369999999999,-0.38308
1629370430517,-0.294081,-0.8620519999999999,-0.384056
1629370430527,-0.293471,-0.861259,-0.383751
1629370430537,-0.29402,-0.860039,-0.384666
1629370430546,-0.294386,-0.859734,-0.3843
1629370430556,-0.29402,-0.859246,-0.38491
1629370430565,-0.29456899999999997,-0.8583919999999999,-0.385703
1629370430575,-0.293715,-0.85766,-0.386862
1629370430585,-0.29243399999999997,-0.856623,-0.387594
1629370430594,-0.292983,-0.85583,-0.387472
1629370430604,-0.29334899999999997,-0.857355,-0.388692
1629370430613,-0.292861,-0.857233,-0.389424
1629370430623,-0.293776,-0.856318,-0.390522
1629370430633,-0.293227,-0.856623,-0.390644
1629370430642,-0.292373,-0.857111,-0.39222999999999997
1629370430652,-0.292861,-0.8565619999999999,-0.393023
1629370430661,-0.29219,-0.8553419999999999,-0.39283999999999997
1629370430671,-0.29243399999999997,-0.855464,-0.39588999999999996
1629370430681,-0.29219,-0.855464,-0.396012
1629370430690,-0.292312,-0.856013,-0.396439
1629370430700,-0.292373,-0.856196,-0.397049
1629370430709,-0.293105,-0.856135,-0.398025
1629370430719,-0.292251,-0.857111,-0.399184
1629370430729,-0.292983,-0.8571719999999999,-0.39936699999999997
1629370430738,-0.292678,-0.857416,-0.399611
1629370430748,-0.292617,-0.857721,-0.399733
1629370430757,-0.291458,-0.8580869999999999,-0.400221
1629370430767,-0.291153,-0.856623,-0.400831
1629370430777,-0.29036,-0.856379,-0.40058699999999997
1629370430786,-0.290116,-0.856684,-0.400343
1629370430796,-0.289018,-0.856135,-0.39955
1629370430805,-0.288347,-0.854854,-0.399794
1629370430815,-0.28853,-0.854366,-0.40016
1629370430825,-0.287127,-0.853634,-0.399855
1629370430834,-0.28731,-0.852414,-0.399733
1629370430844,-0.28609,-0.851804,-0.400465
1629370430853,-0.284504,-0.852109,-0.400343
1629370430863,-0.28438199999999997,-0.851621,-0.40138
1629370430873,-0.28377199999999997,-0.851011,-0.401685
1629370430882,-0.282979,-0.851316,-0.40211199999999997
1629370430892,-0.283406,-0.852658,-0.401136
1629370430901,-0.284199,-0.8529019999999999,-0.400953
1629370430911,-0.28468699999999997,-0.853878,-0.400953
1629370430921,-0.284748,-0.85461,-0.401014
1629370430930,-0.285541,-0.856074,-0.400953
1629370430940,-0.28621199999999997,-0.858758,-0.401319
1629370430949,-0.286517,-0.860344,-0.402356
1629370430959,-0.286944,-0.8605269999999999,-0.40302699999999997
1629370430969,-0.28731,-0.861076,-0.40363699999999997
1629370430978,-0.289079,-0.8611369999999999,-0.404308
1629370430988,-0.29036,-0.861808,-0.404735
1629370430997,-0.289445,-0.8623569999999999,-0.405345
1629370431007,-0.290177,-0.863089,-0.40443
1629370431017,-0.290787,-0.863699,-0.40382
1629370431026,-0.290909,-0.863638,-0.402478
1629370431036,-0.292312,-0.8632719999999999,-0.400465
1629370431045,-0.2928,-0.862479,-0.399001
1629370431055,-0.29304399999999997,-0.861015,-0.396866
1629370431065,-0.293105,-0.8599169999999999,-0.394792
1629370431074,-0.293288,-0.8590019999999999,-0.392657
1629370431084,-0.293288,-0.8586969999999999,-0.39100999999999997
1629370431093,-0.293837,-0.859124,-0.388509
1629370431103,-0.294386,-0.859551,-0.386557
1629370431113,-0.295118,-0.859856,-0.38491
1629370431122,-0.295667,-0.8596119999999999,-0.38387299999999996
1629370431132,-0.295057,-0.860161,-0.382531
1629370431141,-0.295667,-0.860161,-0.38326299999999996
1629370431151,-0.296765,-0.860405,-0.382104
1629370431161,-0.297436,-0.860649,-0.38064
1629370431170,-0.298168,-0.861808,-0.38064
1629370431180,-0.298107,-0.861076,-0.38021299999999997
1629370431189,-0.299083,-0.860039,-0.379542
1629370431199,-0.299083,-0.860954,-0.37868799999999997
1629370431209,-0.299083,-0.859673,-0.379664
1629370431218,-0.298412,-0.859124,-0.38125
1629370431228,-0.298107,-0.8583919999999999,-0.381189
1629370431237,-0.2989,-0.858514,-0.37942
1629370431247,-0.299937,-0.85949,-0.379847
1629370431257,-0.300303,-0.858819,-0.38051799999999997
1629370431266,-0.300303,-0.8571719999999999,-0.38082299999999997
1629370431276,-0.299754,-0.85522,-0.38064
1629370431285,-0.299876,-0.853939,-0.381616
1629370431295,-0.300486,-0.853634,-0.383202
1629370431305,-0.300242,-0.854488,-0.385398
1629370431314,-0.301889,-0.854671,-0.386496
1629370431324,-0.300974,-0.854915,-0.387838
1629370431333,-0.30317,-0.8559519999999999,-0.38917999999999997
1629370431343,-0.302316,-0.85583,-0.390339
1629370431353,-0.302682,-0.856013,-0.392169
1629370431362,-0.302072,-0.85522,-0.393816
1629370431372,-0.302926,-0.85461,-0.395402
1629370431381,-0.30378,-0.85461,-0.39527999999999996
1629370431391,-0.30439,-0.854183,-0.396561
1629370431401,-0.303902,-0.854,-0.397232
1629370431410,-0.30439,-0.8541219999999999,-0.39833
1629370431420,-0.303597,-0.854488,-0.399855
1629370431429,-0.30317,-0.85461,-0.40119699999999997
1629370431439,-0.303109,-0.853573,-0.402905
1629370431449,-0.302865,-0.853573,-0.40455199999999997
1629370431458,-0.302682,-0.852536,-0.40546699999999997
1629370431468,-0.301767,-0.851865,-0.405833
1629370431477,-0.301828,-0.851804,-0.406748
1629370431487,-0.301706,-0.8513769999999999,-0.406443
1629370431497,-0.302316,-0.850889,-0.406138
1629370431506,-0.301462,-0.851316,-0.407236
1629370431516,-0.301584,-0.850096,-0.40668699999999997
1629370431525,-0.301767,-0.85156,-0.406443
1629370431535,-0.300913,-0.850828,-0.406626
1629370431545,-0.301645,-0.8504619999999999,-0.40687
1629370431554,-0.301462,-0.8507669999999999,-0.40699199999999996
1629370431564,-0.301584,-0.850584,-0.40699199999999996
1629370431573,-0.300791,-0.850096,-0.40687
1629370431583,-0.300364,-0.849974,-0.40638199999999997
1629370431593,-0.300303,-0.84973,-0.406016
1629370431602,-0.299388,-0.849425,-0.40638199999999997
1629370431612,-0.299632,-0.850401,-0.405833
1629370431621,-0.29951,-0.850035,-0.40546699999999997
1629370431631,-0.299876,-0.850523,-0.405528
1629370431641,-0.298839,-0.8498519999999999,-0.40485699999999997
1629370431650,-0.2989,-0.850828,-0.404918
1629370431660,-0.299083,-0.850584,-0.404369
1629370431669,-0.298778,-0.8504619999999999,-0.40394199999999997
1629370431679,-0.298351,-0.850401,-0.404186
1629370431689,-0.298473,-0.8507669999999999,-0.404064
1629370431698,-0.29822899999999997,-0.85034,-0.404308
1629370431708,-0.297985,-0.850889,-0.404308
1629370431717,-0.297375,-0.851194,-0.404064
1629370431727,-0.29707,-0.850523,-0.403393
1629370431737,-0.29609399999999997,-0.851499,-0.402783
1629370431746,-0.29639899999999997,-0.8516819999999999,-0.4026
1629370431756,-0.296216,-0.852414,-0.4026
1629370431765,-0.29578899999999997,-0.85217,-0.402661
1629370431775,-0.295057,-0.852109,-0.402539
1629370431785,-0.29639899999999997,-0.852841,-0.402539
1629370431794,-0.295667,-0.853573,-0.40211199999999997
1629370431804,-0.295545,-0.854366,-0.402051
1629370431813,-0.295301,-0.854,-0.401319
1629370431823,-0.295057,-0.854061,-0.401563
1629370431833,-0.29524,-0.855159,-0.40150199999999997
1629370431842,-0.295911,-0.855708,-0.400831
1629370431852,-0.296277,-0.8559519999999999,-0.39936699999999997
1629370431861,-0.294386,-0.85644,-0.399916
1629370431871,-0.295118,-0.856501,-0.399916
1629370431881,-0.295667,-0.856806,-0.399184
1629370431890,-0.295362,-0.855281,-0.399489
1629370431900,-0.295362,-0.85583,-0.397476
1629370431909,-0.294142,-0.855403,-0.396439
1629370431919,-0.29395899999999997,-0.8559519999999999,-0.395402
1629370431929,-0.294325,-0.8559519999999999,-0.39558499999999996
1629370431938,-0.29463,-0.855586,-0.394182
1629370431948,-0.295118,-0.857843,-0.393206
1629370431957,-0.29456899999999997,-0.857904,-0.393328
1629370431967,-0.29304399999999997,-0.858148,-0.394487
1629370431977,-0.292251,-0.858148,-0.394609
1629370431986,-0.2928,-0.856806,-0.395707
1629370431996,-0.292617,-0.857843,-0.395768
1629370432005,-0.291214,-0.857294,-0.396378
1629370432015,-0.291641,-0.8571719999999999,-0.39588999999999996
1629370432025,-0.291885,-0.857233,-0.396927
1629370432034,-0.291031,-0.857355,-0.396683
1629370432044,-0.290482,-0.8568669999999999,-0.396988
1629370432053,-0.291702,-0.857965,-0.397049
1629370432063,-0.291519,-0.8565619999999999,-0.396744
1629370432073,-0.291824,-0.854183,-0.3965
1629370432082,-0.291885,-0.853695,-0.396683
1629370432092,-0.29243399999999997,-0.853451,-0.396195
1629370432101,-0.293105,-0.853756,-0.395158
1629370432111,-0.29304399999999997,-0.854183,-0.394487
1629370432121,-0.29341,-0.855281,-0.395097
1629370432130,-0.293105,-0.854549,-0.395219
1629370432140,-0.29426399999999997,-0.855464,-0.395097
1629370432149,-0.293776,-0.855281,-0.395341
1629370432159,-0.294386,-0.855159,-0.395768
1629370432169,-0.29456899999999997,-0.85522,-0.395646
1629370432178,-0.294752,-0.854244,-0.396561
1629370432188,-0.294386,-0.8547319999999999,-0.398574
1629370432197,-0.29456899999999997,-0.8544269999999999,-0.399306
1629370432207,-0.294996,-0.85522,-0.400038
1629370432217,-0.294813,-0.854549,-0.399855
1629370432226,-0.29487399999999997,-0.854305,-0.400465
1629370432236,-0.295118,-0.85522,-0.401685
1629370432245,-0.294325,-0.854,-0.40089199999999997
1629370432255,-0.294386,-0.8553419999999999,-0.40119699999999997
1629370432265,-0.294691,-0.8559519999999999,-0.403271
1629370432274,-0.294386,-0.8550369999999999,-0.40211199999999997
1629370432284,-0.29304399999999997,-0.853878,-0.402051
1629370432293,-0.293288,-0.8529019999999999,-0.40321
1629370432303,-0.293532,-0.851621,-0.404125
1629370432313,-0.2928,-0.8516819999999999,-0.40443
1629370432322,-0.29341,-0.8525969999999999,-0.404979
1629370432332,-0.29402,-0.853451,-0.40516199999999997
1629370432341,-0.294081,-0.854244,-0.40565
1629370432351,-0.294203,-0.853939,-0.406138
1629370432361,-0.29365399999999997,-0.854793,-0.40577199999999997
1629370432370,-0.293898,-0.854976,-0.406443
1629370432380,-0.293288,-0.8544269999999999,-0.405955
1629370432389,-0.29402,-0.8532069999999999,-0.40546699999999997
1629370432399,-0.2928,-0.852475,-0.40607699999999997
1629370432409,-0.293898,-0.85217,-0.405345
1629370432418,-0.293593,-0.8532069999999999,-0.40504
1629370432428,-0.29402,-0.8535119999999999,-0.40443
1629370432437,-0.293227,-0.853634,-0.404308
1629370432447,-0.29463,-0.853146,-0.404186
1629370432457,-0.29402,-0.85278,-0.404735
1629370432466,-0.294386,-0.853268,-0.40516199999999997
1629370432476,-0.294691,-0.852963,-0.404796
1629370432485,-0.294752,-0.8532069999999999,-0.404979
1629370432495,-0.294386,-0.852658,-0.403698
1629370432505,-0.294325,-0.852475,-0.404003
1629370432514,-0.29463,-0.853268,-0.402905
1629370432524,-0.29426399999999997,-0.853878,-0.402905
1629370432533,-0.294325,-0.853146,-0.40321
1629370432543,-0.29463,-0.853634,-0.402356
1629370432553,-0.29402,-0.853451,-0.402356
1629370432562,-0.294203,-0.8532069999999999,-0.40150199999999997
1629370432572,-0.29463,-0.852414,-0.40138
1629370432581,-0.293776,-0.853085,-0.400465
1629370432591,-0.293532,-0.853573,-0.40058699999999997
1629370432601,-0.293776,-0.853268,-0.40138
1629370432610,-0.29304399999999997,-0.853451,-0.40028199999999997
1629370432620,-0.293105,-0.853756,-0.401258
1629370432629,-0.294691,-0.8529019999999999,-0.401075
1629370432639,-0.294081,-0.8541219999999999,-0.401868
1629370432649,-0.292922,-0.853634,-0.40199
1629370432658,-0.293593,-0.85278,-0.40199
1629370432668,-0.294203,-0.85278,-0.402356
1629370432677,-0.293471,-0.85217,-0.401746
1629370432687,-0.29402,-0.85156,-0.40211199999999997
1629370432697,-0.294935,-0.85095,-0.402173
1629370432706,-0.294508,-0.850706,-0.402173
1629370432716,-0.295057,-0.849974,-0.40180699999999997
1629370432725,-0.296765,-0.849791,-0.40089199999999997
1629370432735,-0.29639899999999997,-0.8498519999999999,-0.400648
1629370432745,-0.297741,-0.851499,-0.40028199999999997
1629370432754,-0.299571,-0.8522919999999999,-0.399428
1629370432764,-0.302743,-0.8535119999999999,-0.39967199999999997
1629370432773,-0.304207,-0.85461,-0.398086
1629370432783,-0.30561,-0.85583,-0.394609
1629370432793,-0.306464,-0.856623,-0.392657
1629370432802,-0.307867,-0.852963,-0.390766
1629370432812,-0.313418,-0.848144,-0.388509
1629370432821,-0.316834,-0.843752,-0.386862
1629370432831,-0.318969,-0.840275,-0.38795999999999997
1629370432841,-0.31781,-0.841983,-0.39253499999999997
1629370432850,-0.31585799999999997,-0.845399,-0.397781
1629370432860,-0.311527,-0.849486,-0.402478
1629370432869,-0.306525,-0.856684,-0.407175
1629370432879,-0.301645,-0.864736,-0.407785
1629370432889,-0.298107,-0.872178,-0.405955
1629370432898,-0.295362,-0.877119,-0.402356
1629370432908,-0.294752,-0.8769359999999999,-0.396866
1629370432917,-0.294996,-0.873337,-0.39314499999999997
1629370432927,-0.294691,-0.867298,-0.393084
1629370432937,-0.295728,-0.859185,-0.394426
1629370432946,-0.295606,-0.85339,-0.397842
1629370432956,-0.293471,-0.852841,-0.403881
1629370432965,-0.290604,-0.8529019999999999,-0.410408
1629370432975,-0.28792,-0.8522919999999999,-0.413092
1629370432985,-0.287371,-0.85156,-0.41229899999999997
1629370432994,-0.284565,-0.849059,-0.411445
1629370433004,-0.281454,-0.8474119999999999,-0.412726
1629370433013,-0.278404,-0.845765,-0.414617
1629370433023,-0.27694,-0.8418,-0.412665
1629370433033,-0.278648,-0.835334,-0.412238
1629370433042,-0.279502,-0.826184,-0.409371
1629370433052,-0.28194199999999997,-0.817705,-0.406443
1629370433061,-0.286822,-0.814716,-0.403088
1629370433071,-0.29219,-0.814472,-0.398025
1629370433081,-0.296948,-0.822707,-0.391986
1629370433090,-0.301584,-0.8322229999999999,-0.387411
1629370433100,-0.303963,-0.8479,-0.383934
1629370433109,-0.303048,-0.862296,-0.383629
1629370433119,-0.298839,-0.8732759999999999,-0.385764
1629370433129,-0.291702,-0.8824259999999999,-0.391681
1629370433138,-0.280844,-0.886452,-0.39967199999999997
1629370433148,-0.27022999999999997,-0.883707,-0.410347
1629370433157,-0.258701,-0.874252,-0.423462
1629370433167,-0.245342,-0.862784,-0.437004
1629370433177,-0.233752,-0.8519869999999999,-0.449143
1629370433186,-0.222162,-0.845338,-0.458964
1629370433196,-0.210755,-0.8407629999999999,-0.46524699999999997
1629370433205,-0.20313,-0.8404579999999999,-0.466894
1629370433215,-0.196847,-0.83875,-0.46604
1629370433225,-0.189283,-0.838994,-0.462319
1629370433234,-0.184342,-0.839421,-0.46006199999999997
1629370433244,-0.180438,-0.835029,-0.46189199999999997
1629370433253,-0.173972,-0.8300879999999999,-0.47031
1629370433263,-0.167689,-0.82533,-0.481595
1629370433273,-0.160308,-0.822219,-0.49672299999999997
1629370433282,-0.151097,-0.81557,-0.5145959999999999
1629370433292,-0.144082,-0.81557,-0.531249
1629370433301,-0.138592,-0.815936,-0.544547
1629370433311,-0.137189,-0.819047,-0.549549
1629370433321,-0.136579,-0.8242929999999999,-0.554734
1629370433330,-0.139385,-0.826916,-0.555893
1629370433340,-0.140178,-0.823195,-0.556442
1629370433349,-0.145302,-0.819413,-0.558577
1629370433359,-0.149511,-0.817949,-0.559492
1629370433369,-0.152561,-0.813496,-0.5638839999999999
1629370433378,-0.153415,-0.807457,-0.571753
1629370433388,-0.154879,-0.802882,-0.583831
1629370433397,-0.155001,-0.796843,-0.597373
1629370433407,-0.15189,-0.7914749999999999,-0.604022
1629370433417,-0.152866,-0.790804,-0.607133
1629370433426,-0.152256,-0.793488,-0.608658
1629370433436,-0.155001,-0.791109,-0.607926
1629370433445,-0.157624,-0.787449,-0.606462
1629370433455,-0.159698,-0.7853749999999999,-0.6039
1629370433465,-0.163053,-0.781776,-0.599935
1629370433474,-0.164029,-0.779031,-0.595177
1629370433484,-0.167384,-0.779092,-0.593286
1629370433493,-0.168238,-0.774334,-0.598471
1629370433503,-0.165432,-0.765367,-0.605181
1629370433513,-0.165554,-0.753472,-0.6134769999999999
1629370433522,-0.162443,-0.747006,-0.61854
1629370433532,-0.163419,-0.748226,-0.61732
1629370433541,-0.167994,-0.749019,-0.619089
1629370433551,-0.17055599999999999,-0.746152,-0.620919
1629370433561,-0.17177599999999998,-0.7412719999999999,-0.622688
1629370433570,-0.175985,-0.738039,-0.625311
1629370433580,-0.179584,-0.734806,-0.628422
1629370433589,-0.181536,-0.736026,-0.628849
1629370433599,-0.187148,-0.742431,-0.628971
1629370433609,-0.192394,-0.748104,-0.629154
1629370433618,-0.196481,-0.752679,-0.629398
1629370433628,-0.201117,-0.755973,-0.629764
1629370433637,-0.204472,-0.759389,-0.628239
1629370433647,-0.209413,-0.761768,-0.627324
1629370433657,-0.213256,-0.762744,-0.625677
1629370433666,-0.217282,-0.763232,-0.623725
1629370433676,-0.22021,-0.763537,-0.623237
1629370433685,-0.223016,-0.765977,-0.621041
1629370433695,-0.225639,-0.772077,-0.617808
1629370433705,-0.227896,-0.776164,-0.61488
1629370433714,-0.23058,-0.781776,-0.606035
1629370433724,-0.244427,-0.783911,-0.60024
1629370433733,-0.239425,-0.805871,-0.621834
1629370433743,-0.241499,-0.784582,-0.585844
1629370433753,-0.234728,-0.801235,-0.571753
1629370433762,-0.23058,-0.800137,-0.557723
1629370433772,-0.223931,-0.795745,-0.561993
1629370433781,-0.21984399999999998,-0.797636,-0.565592
1629370433791,-0.213439,-0.797453,-0.565897
1629370433801,-0.20801,-0.796904,-0.56669
1629370433810,-0.202703,-0.792634,-0.570472
1629370433820,-0.199104,-0.787449,-0.577487
1629370433829,-0.195993,-0.781776,-0.5845629999999999
1629370433839,-0.194102,-0.777506,-0.588772
1629370433849,-0.191845,-0.7795799999999999,-0.5909679999999999
1629370433858,-0.197274,-0.7826299999999999,-0.588772
1629370433868,-0.190137,-0.786839,-0.590419
1629370433877,-0.192577,-0.791109,-0.5882229999999999
1629370433887,-0.19519999999999998,-0.790377,-0.584441
1629370433897,-0.19580999999999998,-0.792024,-0.581818
1629370433906,-0.195017,-0.794281,-0.577853
1629370433916,-0.199897,-0.798185,-0.568642
1629370433925,-0.199043,-0.8020889999999999,-0.564555
1629370433935,-0.199287,-0.801662,-0.560773
1629370433945,-0.199104,-0.79971,-0.55693
1629370433954,-0.19550499999999998,-0.796172,-0.554124
1629370433964,-0.195322,-0.792878,-0.551623
1629370433973,-0.193431,-0.792207,-0.552294
1629370433983,-0.191418,-0.7908649999999999,-0.550586
1629370433993,-0.18483,-0.791292,-0.54961
1629370434002,-0.183366,-0.7914749999999999,-0.546316
1629370434012,-0.184952,-0.791841,-0.5425949999999999
1629370434021,-0.185135,-0.791536,-0.541741
1629370434031,-0.180377,-0.788791,-0.5456449999999999
1629370434041,-0.17824199999999998,-0.786351,-0.546438
1629370434050,-0.180072,-0.785924,-0.547963
1629370434060,-0.17812,-0.781288,-0.551684
1629370434069,-0.176229,-0.7762249999999999,-0.557967
1629370434079,-0.17610699999999999,-0.77226,-0.5654089999999999
1629370434089,-0.175436,-0.771589,-0.58316
1629370434098,-0.174216,-0.769637,-0.597739
1629370434108,-0.17976699999999998,-0.767075,-0.603168
1629370434117,-0.180743,-0.76677,-0.604388
1629370434127,-0.182024,-0.7677459999999999,-0.601521
1629370434137,-0.18666,-0.77043,-0.596946
1629370434146,-0.190808,-0.772382,-0.596214
1629370434156,-0.192516,-0.772077,-0.5955429999999999
1629370434165,-0.19519999999999998,-0.773175,-0.5952379999999999
1629370434175,-0.198494,-0.770491,-0.593652
1629370434185,-0.199714,-0.766343,-0.594872
1629370434194,-0.201239,-0.7650009999999999,-0.597556
1629370434204,-0.202032,-0.7604259999999999,-0.60085
1629370434213,-0.203008,-0.7625,-0.602253
1629370434223,-0.203435,-0.764574,-0.602131
1629370434233,-0.205326,-0.767685,-0.602741
1629370434242,-0.2074,-0.7674409999999999,-0.604327
1629370434252,-0.205753,-0.769027,-0.605608
1629370434261,-0.206241,-0.769759,-0.60512
1629370434271,-0.204228,-0.768539,-0.606096
1629370434281,-0.204411,-0.7674409999999999,-0.606828
1629370434290,-0.20380099999999998,-0.764879,-0.60878
1629370434300,-0.20313,-0.760548,-0.6134769999999999
1629370434309,-0.20252,-0.760182,-0.620431
1629370434319,-0.203435,-0.75762,-0.624274
1629370434329,-0.20191,-0.756705,-0.625494
1629370434338,-0.202154,-0.7576809999999999,-0.624335
1629370434348,-0.20435,-0.7598159999999999,-0.6198819999999999
1629370434357,-0.204228,-0.76189,-0.6174419999999999
1629370434367,-0.206546,-0.761585,-0.61244
1629370434377,-0.206851,-0.760853,-0.606401
1629370434386,-0.208864,-0.759328,-0.601216
1629370434396,-0.207339,-0.759694,-0.599813
1629370434405,-0.207705,-0.7625609999999999,-0.600423
1629370434415,-0.20569199999999999,-0.7646959999999999,-0.598898
1629370434425,-0.203252,-0.766282,-0.5978
1629370434434,-0.203252,-0.770125,-0.598715
1629370434444,-0.202764,-0.769637,-0.599752
1629370434453,-0.20374,-0.768051,-0.602802
1629370434463,-0.206668,-0.765245,-0.605059
1629370434473,-0.20691199999999998,-0.763537,-0.605791
1629370434482,-0.207339,-0.762988,-0.605181
1629370434492,-0.20679,-0.765245,-0.601582
1629370434501,-0.206119,-0.768661,-0.597251
1629370434511,-0.204167,-0.770979,-0.597617
1629370434521,-0.203069,-0.770003,-0.599081
1629370434530,-0.203008,-0.7686,-0.598288
1629370434540,-0.20410599999999998,-0.766404,-0.600789
1629370434549,-0.20630199999999999,-0.7634759999999999,-0.60085
1629370434559,-0.206058,-0.7640859999999999,-0.600789
1629370434569,-0.205814,-0.7650009999999999,-0.598654
1629370434578,-0.20630199999999999,-0.768112,-0.594811
1629370434588,-0.205936,-0.769576,-0.593347
1629370434597,-0.205326,-0.768051,-0.5924929999999999
1629370434607,-0.20349599999999998,-0.766343,-0.5940179999999999
1629370434617,-0.20319099999999998,-0.7662209999999999,-0.594811
1629370434626,-0.203679,-0.765672,-0.595421
1629370434636,-0.203557,-0.766404,-0.5955429999999999
1629370434645,-0.204167,-0.768783,-0.594506
1629370434655,-0.205448,-0.771162,-0.592005
1629370434665,-0.206058,-0.771406,-0.59048
1629370434674,-0.2074,-0.77226,-0.5879179999999999
1629370434684,-0.206973,-0.771223,-0.5882229999999999
1629370434693,-0.205936,-0.772748,-0.589199
1629370434703,-0.203252,-0.772138,-0.590724
1629370434713,-0.201178,-0.770796,-0.591517
1629370434722,-0.199653,-0.766587,-0.597739
1629370434732,-0.20008,-0.763659,-0.604205
1629370434741,-0.20166599999999998,-0.763842,-0.607926
1629370434751,-0.200385,-0.765428,-0.610061
1629370434761,-0.199409,-0.767807,-0.609695
1629370434770,-0.19794499999999998,-0.769332,-0.608414
1629370434780,-0.199775,-0.771528,-0.606096
1629370434789,-0.198738,-0.772992,-0.605547
1629370434799,-0.19983599999999999,-0.772626,-0.604998
1629370434809,-0.198372,-0.77104,-0.600667
1629370434818,-0.196542,-0.772443,-0.599447
1629370434828,-0.196786,-0.771162,-0.595665
1629370434837,-0.196237,-0.771894,-0.593286
1629370434847,-0.195078,-0.771528,-0.5882229999999999
1629370434857,-0.19580999999999998,-0.7746999999999999,-0.585722
1629370434866,-0.194102,-0.770308,-0.582916
1629370434876,-0.19337,-0.771101,-0.584319
1629370434885,-0.194041,-0.769454,-0.583343
1629370434895,-0.194346,-0.769942,-0.583648
1629370434905,-0.193126,-0.769088,-0.58438
1629370434914,-0.195139,-0.76677,-0.587064
1629370434924,-0.194773,-0.765245,-0.5917
1629370434933,-0.196908,-0.764879,-0.595482
1629370434943,-0.200324,-0.7628659999999999,-0.597495
1629370434953,-0.202764,-0.7628659999999999,-0.599142
1629370434962,-0.201239,-0.762622,-0.600057
1629370434972,-0.20191,-0.762012,-0.601826
1629370434981,-0.201239,-0.761829,-0.601521
1629370434991,-0.200812,-0.761402,-0.603473
1629370435001,-0.200934,-0.761097,-0.606096
1629370435010,-0.202093,-0.760853,-0.609085
1629370435020,-0.20288599999999998,-0.7607309999999999,-0.614514
1629370435029,-0.20599699999999999,-0.761707,-0.619211
1629370435039,-0.209474,-0.762073,-0.620248
1629370435049,-0.21167,-0.7622559999999999,-0.619394
1629370435058,-0.211304,-0.762744,-0.615124
1629370435068,-0.211304,-0.763354,-0.609146
1629370435077,-0.210999,-0.762744,-0.60695
1629370435087,-0.210999,-0.761829,-0.60512
1629370435097,-0.210938,-0.7625609999999999,-0.604754
1629370435106,-0.208986,-0.762805,-0.603046
1629370435116,-0.207278,-0.761463,-0.602009
1629370435125,-0.205021,-0.759267,-0.602558
1629370435135,-0.20191,-0.758413,-0.604022
1629370435145,-0.198555,-0.759084,-0.606401
1629370435154,-0.196664,-0.758047,-0.608109
1629370435164,-0.194468,-0.7576809999999999,-0.614026
1629370435173,-0.191357,-0.758169,-0.620004
1629370435183,-0.18842899999999999,-0.7579859999999999,-0.622444
1629370435193,-0.18605,-0.755424,-0.621834
1629370435202,-0.185806,-0.755424,-0.6186619999999999
1629370435212,-0.18781899999999999,-0.754692,-0.615185
1629370435221,-0.189405,-0.75579,-0.610549
1629370435231,-0.189771,-0.756522,-0.608109
1629370435241,-0.190381,-0.756949,-0.608414
1629370435250,-0.18971,-0.7585959999999999,-0.617686
1629370435260,-0.19215,-0.756339,-0.621834
1629370435269,-0.196908,-0.758779,-0.620919
1629370435279,-0.196664,-0.7628659999999999,-0.6207969999999999
1629370435289,-0.197884,-0.763354,-0.619394
1629370435298,-0.199958,-0.76494,-0.618479
1629370435308,-0.201849,-0.761158,-0.609085
1629370435317,-0.202154,-0.767319,-0.604388
1629370435327,-0.199897,-0.768356,-0.597007
1629370435337,-0.202337,-0.769637,-0.59048
1629370435346,-0.203008,-0.770247,-0.585356
1629370435356,-0.19886,-0.770064,-0.586027
1629370435365,-0.201727,-0.768966,-0.585417
1629370435375,-0.201788,-0.766282,-0.586149
1629370435385,-0.204777,-0.764513,-0.586942
1629370435394,-0.205814,-0.766953,-0.5885279999999999
1629370435404,-0.205631,-0.766282,-0.588284
1629370435413,-0.205753,-0.766648,-0.587369
1629370435423,-0.202947,-0.769332,-0.5866979999999999
1629370435433,-0.20191,-0.76982,-0.5873079999999999
1629370435442,-0.202032,-0.77165,-0.5909679999999999
1629370435452,-0.20191,-0.773358,-0.597434
1629370435461,-0.201544,-0.772748,-0.603046
1629370435471,-0.20349599999999998,-0.770979,-0.603046
1629370435481,-0.203618,-0.770796,-0.602924
1629370435490,-0.20496,-0.770369,-0.601643
1629370435500,-0.204777,-0.770796,-0.601216
1629370435509,-0.20313,-0.768234,-0.601399
1629370435519,-0.205387,-0.7653059999999999,-0.601887
1629370435529,-0.20691199999999998,-0.767197,-0.601155
1629370435538,-0.207339,-0.766099,-0.598776
1629370435548,-0.20813199999999998,-0.768112,-0.595482
1629370435557,-0.20923,-0.769332,-0.5906629999999999
1629370435567,-0.208498,-0.770308,-0.587552
1629370435577,-0.212585,-0.76921,-0.581147
1629370435586,-0.205936,-0.768783,-0.583892
1629370435596,-0.204472,-0.768844,-0.583648
1629370435605,-0.200995,-0.766648,-0.585539
1629370435615,-0.198006,-0.765794,-0.591456
1629370435625,-0.194224,-0.76616,-0.597617
1629370435634,-0.190503,-0.7665259999999999,-0.60329
1629370435644,-0.190747,-0.764818,-0.606157
1629370435653,-0.19147899999999998,-0.766099,-0.609085
1629370435663,-0.191723,-0.766404,-0.610915
1629370435673,-0.19337,-0.7662209999999999,-0.611098
1629370435682,-0.195749,-0.764574,-0.611098
1629370435692,-0.197091,-0.763598,-0.611159
1629370435701,-0.199592,-0.764757,-0.6098169999999999
1629370435711,-0.202398,-0.76555,-0.605791
1629370435721,-0.203923,-0.765428,-0.601582
1629370435730,-0.20496,-0.765855,-0.597678
1629370435740,-0.205265,-0.765977,-0.595421
1629370435749,-0.202764,-0.766038,-0.593042
1629370435759,-0.20044599999999999,-0.764513,-0.593286
1629370435769,-0.197701,-0.763903,-0.597007
1629370435778,-0.195322,-0.762622,-0.601155
1629370435788,-0.193736,-0.7610359999999999,-0.605303
1629370435797,-0.191235,-0.761463,-0.608353
1629370435807,-0.189588,-0.7604259999999999,-0.610671
1629370435817,-0.190198,-0.760365,-0.611464
1629370435826,-0.190808,-0.763598,-0.611464
1629370435836,-0.190625,-0.765184,-0.611708
1629370435845,-0.192943,-0.763049,-0.611098
1629370435855,-0.195566,-0.765367,-0.6089019999999999
1629370435865,-0.197518,-0.7628659999999999,-0.605303
1629370435874,-0.199226,-0.7646959999999999,-0.601948
1629370435884,-0.200385,-0.768295,-0.5949329999999999
1629370435893,-0.204533,-0.769332,-0.588894
1629370435903,-0.206546,-0.767685,-0.587125
1629370435913,-0.209291,-0.766343,-0.5851729999999999
1629370435922,-0.211426,-0.76616,-0.582367
1629370435932,-0.21490299999999998,-0.76311,-0.579012
1629370435941,-0.215757,-0.765672,-0.574132
1629370435951,-0.214232,-0.770613,-0.568032
1629370435961,-0.21533,-0.772016,-0.559919
1629370435970,-0.217465,-0.771162,-0.552416
1629370435980,-0.221857,-0.767624,-0.547048
1629370435989,-0.225578,-0.7662209999999999,-0.547963
1629370435999,-0.226493,-0.763354,-0.549244
1629370436009,-0.226798,-0.76006,-0.554063
1629370436018,-0.225334,-0.757193,-0.558882
1629370436028,-0.22508999999999998,-0.754143,-0.563152
1629370436037,-0.22508999999999998,-0.752374,-0.568276
1629370436047,-0.224541,-0.7521909999999999,-0.5718139999999999
1629370436057,-0.223443,-0.751154,-0.573339
1629370436066,-0.224846,-0.751459,-0.575352
1629370436076,-0.226676,-0.74847,-0.580049
1629370436085,-0.225822,-0.742431,-0.588345
1629370436095,-0.224053,-0.736636,-0.598898
1629370436105,-0.220942,-0.730414,-0.6113419999999999
1629370436114,-0.216855,-0.725778,-0.625372
1629370436124,-0.212097,-0.723582,-0.635803
1629370436133,-0.212402,-0.721508,-0.641598
1629370436143,-0.215452,-0.719434,-0.645197
1629370436153,-0.220637,-0.71675,-0.647027
1629370436162,-0.224358,-0.714554,-0.651663
1629370436172,-0.22722499999999998,-0.710894,-0.659654
1629370436181,-0.228994,-0.706929,-0.668194
1629370436191,-0.23033599999999999,-0.700158,-0.676673
1629370436201,-0.230702,-0.694485,-0.684237
1629370436210,-0.23058,-0.690947,-0.688141
1629370436220,-0.232593,-0.691496,-0.6901539999999999
1629370436229,-0.235765,-0.690947,-0.69418
1629370436239,-0.239059,-0.686433,-0.69967
1629370436249,-0.24339,-0.682285,-0.707966
1629370436258,-0.245952,-0.680028,-0.7157129999999999
1629370436268,-0.24583,-0.677161,-0.722911
1629370436277,-0.248026,-0.676124,-0.7278519999999999
1629370436287,-0.247843,-0.676734,-0.730719
1629370436297,-0.250527,-0.677954,-0.732671
1629370436306,-0.252601,-0.68015,-0.7327319999999999
1629370436316,-0.255956,-0.680455,-0.729194
1629370436325,-0.258335,-0.683261,-0.728279
1629370436335,-0.25943299999999997,-0.684786,-0.728706
1629370436345,-0.25790799999999997,-0.684786,-0.726327
1629370436354,-0.257237,-0.6861889999999999,-0.721325
1629370436364,-0.258457,-0.685945,-0.713151
1629370436373,-0.26065299999999997,-0.686738,-0.70394
1629370436383,-0.262788,-0.684298,-0.695888
1629370436393,-0.264618,-0.68381,-0.688873
1629370436402,-0.266326,-0.6846639999999999,-0.678869
1629370436412,-0.270718,-0.690398,-0.662826
1629370436421,-0.252235,-0.6810039999999999,-0.681187
1629370436431,-0.280783,-0.6867989999999999,-0.657336
1629370436441,-0.264984,-0.695766,-0.659532
1629370436450,-0.257786,-0.694058,-0.65148
1629370436460,-0.260226,-0.696132,-0.648003
1629370436469,-0.256566,-0.692228,-0.647759
1629370436479,-0.251198,-0.688446,-0.650443
1629370436489,-0.247538,-0.690642,-0.652883
1629370436498,-0.24387799999999998,-0.689422,-0.656238
1629370436508,-0.23863199999999998,-0.6840539999999999,-0.659898
1629370436517,-0.23607,-0.6822239999999999,-0.6645949999999999
1629370436527,-0.233874,-0.680455,-0.672464
1629370436537,-0.234057,-0.677283,-0.6828339999999999
1629370436546,-0.235399,-0.676917,-0.69174
1629370436556,-0.235216,-0.6800889999999999,-0.695522
1629370436565,-0.23680199999999998,-0.6832,-0.696437
1629370436575,-0.238998,-0.688568,-0.69601
1629370436585,-0.23985199999999998,-0.691618,-0.69418
1629370436594,-0.242414,-0.694668,-0.6907639999999999
1629370436604,-0.24095,-0.695644,-0.6864939999999999
1629370436613,-0.240767,-0.693448,-0.6837489999999999
1629370436623,-0.240889,-0.690276,-0.680516
1629370436633,-0.239791,-0.685762,-0.678015
1629370436642,-0.238571,-0.68198,-0.678381
1629370436652,-0.237046,-0.680577,-0.678137
1629370436661,-0.235826,-0.678076,-0.678869
1629370436671,-0.233325,-0.678808,-0.6794789999999999
1629370436681,-0.235155,-0.680882,-0.679662
1629370436690,-0.233935,-0.68076,-0.678991
1629370436700,-0.23363,-0.6810039999999999,-0.67893
1629370436709,-0.23277599999999998,-0.680577,-0.680577
1629370436719,-0.230458,-0.68015,-0.682712
1629370436729,-0.231007,-0.681492,-0.684481
1629370436738,-0.22972599999999999,-0.681797,-0.686616
1629370436748,-0.228811,-0.681797,-0.687775
1629370436757,-0.226493,-0.680028,-0.690032
1629370436767,-0.226432,-0.678198,-0.6919839999999999
1629370436777,-0.225883,-0.67527,-0.694485
1629370436786,-0.225639,-0.673928,-0.696315
1629370436796,-0.228628,-0.674294,-0.695278
1629370436805,-0.228018,-0.672647,-0.695827
1629370436815,-0.23033599999999999,-0.672281,-0.69357
1629370436825,-0.232837,-0.673318,-0.694058
1629370436834,-0.23363,-0.674538,-0.694607
1629370436844,-0.236558,-0.674721,-0.6925939999999999
1629370436853,-0.236924,-0.675514,-0.692228
1629370436863,-0.23680199999999998,-0.674782,-0.692472
1629370436873,-0.23729,-0.674477,-0.694058
1629370436882,-0.236436,-0.673318,-0.696742
1629370436892,-0.236314,-0.673257,-0.698938
1629370436901,-0.23607,-0.672342,-0.699914
1629370436911,-0.234911,-0.671854,-0.700768
1629370436921,-0.235948,-0.671915,-0.701012
1629370436930,-0.235948,-0.672586,-0.698206
1629370436940,-0.23771699999999998,-0.675087,-0.695705
1629370436949,-0.237473,-0.676978,-0.694973
1629370436959,-0.23741199999999998,-0.676856,-0.6935089999999999
1629370436969,-0.235704,-0.676063,-0.692228
1629370436978,-0.234667,-0.67771,-0.6907639999999999
1629370436988,-0.234057,-0.677954,-0.688446
1629370436997,-0.23369099999999998,-0.678381,-0.685518
1629370437007,-0.233142,-0.679296,-0.684786
1629370437017,-0.231617,-0.678564,-0.685396
1629370437026,-0.22783499999999998,-0.67649,-0.688812
1629370437036,-0.229848,-0.673318,-0.69174
1629370437045,-0.226859,-0.672281,-0.695461
1629370437055,-0.225456,-0.672159,-0.697474
1629370437065,-0.225944,-0.673379,-0.699548
1629370437074,-0.227896,-0.675453,-0.698206
1629370437084,-0.229604,-0.676246,-0.6944239999999999
1629370437093,-0.229482,-0.67771,-0.692533
1629370437103,-0.231007,-0.680028,-0.687287
1629370437113,-0.228933,-0.6810039999999999,-0.68442
1629370437122,-0.230397,-0.678869,-0.6831389999999999
1629370437132,-0.232654,-0.678015,-0.6837489999999999
1629370437141,-0.234545,-0.677222,-0.68564
1629370437151,-0.234362,-0.677344,-0.6867989999999999
1629370437161,-0.23680199999999998,-0.67832,-0.686677
1629370437170,-0.23832699999999998,-0.680821,-0.6852739999999999
1629370437180,-0.239791,-0.6822239999999999,-0.681248
1629370437189,-0.240523,-0.682895,-0.678625
1629370437199,-0.241926,-0.681248,-0.677039
1629370437209,-0.241865,-0.680882,-0.678686
1629370437218,-0.24174299999999999,-0.680455,-0.682102
1629370437228,-0.241072,-0.680638,-0.683566
1629370437237,-0.239608,-0.6816139999999999,-0.683932
1629370437247,-0.240035,-0.681858,-0.68381
1629370437257,-0.240767,-0.681858,-0.6852739999999999
1629370437266,-0.240401,-0.6822239999999999,-0.687043
1629370437276,-0.239486,-0.682651,-0.68869
1629370437285,-0.24034,-0.681553,-0.6901539999999999
1629370437295,-0.241133,-0.681187,-0.692411
1629370437305,-0.242719,-0.6810039999999999,-0.692838
1629370437314,-0.244366,-0.68076,-0.6913739999999999
1629370437324,-0.246196,-0.681858,-0.690276
1629370437333,-0.24790399999999999,-0.6819189999999999,-0.688446
1629370437343,-0.24790399999999999,-0.68259,-0.686006
1629370437353,-0.248148,-0.681553,-0.6819189999999999
1629370437362,-0.24912399999999998,-0.683017,-0.67771
1629370437372,-0.24827,-0.6846639999999999,-0.674477
1629370437381,-0.248026,-0.685396,-0.672586
1629370437391,-0.248148,-0.684542,-0.669902
1629370437401,-0.245647,-0.6843589999999999,-0.667889
1629370437410,-0.24339,-0.6855789999999999,-0.668804
1629370437420,-0.24204799999999999,-0.682651,-0.672159
1629370437429,-0.240279,-0.679845,-0.677161
1629370437439,-0.2379,-0.676673,-0.682285
1629370437449,-0.23649699999999999,-0.674538,-0.6871039999999999
1629370437458,-0.237656,-0.673318,-0.69357
1629370437468,-0.23546,-0.675392,-0.697901
1629370437477,-0.235155,-0.676917,-0.699975
1629370437487,-0.23546,-0.679113,-0.69906
1629370437497,-0.229543,-0.680943,-0.700707
1629370437506,-0.240035,-0.681431,-0.697352
1629370437516,-0.238388,-0.683383,-0.695156
1629370437525,-0.2379,-0.682895,-0.692106
1629370437535,-0.235216,-0.680516,-0.689666
1629370437545,-0.23729,-0.6791739999999999,-0.68564
1629370437554,-0.235338,-0.678137,-0.682895
1629370437564,-0.238449,-0.681187,-0.677161
1629370437573,-0.227408,-0.682102,-0.67954
1629370437583,-0.231739,-0.678747,-0.677039
1629370437593,-0.230763,-0.673928,-0.68076
1629370437602,-0.238815,-0.67405,-0.678381
1629370437612,-0.235094,-0.672952,-0.685152
1629370437621,-0.237595,-0.675941,-0.685701
1629370437631,-0.23649699999999999,-0.6771,-0.6874089999999999
1629370437641,-0.2379,-0.677344,-0.690825
1629370437650,-0.239669,-0.680638,-0.695583
1629370437660,-0.25132,-0.687836,-0.697474
1629370437669,-0.227957,-0.666852,-0.708576
1629370437679,-0.248941,-0.702781,-0.711992
1629370437689,-0.249063,-0.68259,-0.708149
1629370437698,-0.24705,-0.684298,-0.7105279999999999
1629370437708,-0.238815,-0.690337,-0.717482
1629370437717,-0.242414,-0.691252,-0.718519
1629370437727,-0.244854,-0.6904589999999999,-0.7181529999999999
1629370437737,-0.245586,-0.6880189999999999,-0.717116
1629370437746,-0.24143799999999999,-0.689056,-0.722972
1629370437756,-0.239181,-0.692838,-0.727181
1629370437765,-0.237656,-0.69418,-0.726754
1629370437775,-0.235643,-0.695644,-0.721569
1629370437785,-0.234423,-0.700707,-0.716506
1629370437794,-0.23668,-0.704184,-0.711504
1629370437804,-0.235765,-0.704672,-0.70882
1629370437813,-0.235338,-0.702964,-0.707661
1629370437823,-0.232288,-0.704001,-0.705587
1629370437833,-0.23186099999999998,-0.707722,-0.70455
1629370437842,-0.230153,-0.711016,-0.703269
1629370437852,-0.229543,-0.7137,-0.701134
1629370437861,-0.229909,-0.716384,-0.699792
1629370437871,-0.228933,-0.718397,-0.698206
1629370437881,-0.227774,-0.720288,-0.693631
1629370437890,-0.22630999999999998,-0.721142,-0.68747
1629370437900,-0.224724,-0.72346,-0.678137
1629370437909,-0.222772,-0.732671,-0.664351
1629370437919,-0.22014899999999998,-0.743041,-0.650016
1629370437929,-0.216611,-0.751459,-0.637389
1629370437938,-0.2135,-0.7576809999999999,-0.626775
1629370437948,-0.210267,-0.76067,-0.617076
1629370437957,-0.204533,-0.762195,-0.609695
1629370437967,-0.197762,-0.761707,-0.601216
1629370437977,-0.192638,-0.758779,-0.5937129999999999
1629370437986,-0.187697,-0.758962,-0.583892
1629370437996,-0.182695,-0.768295,-0.570411
1629370438005,-0.177693,-0.779824,-0.554978
1629370438015,-0.171532,-0.791353,-0.540277
1629370438025,-0.168299,-0.801113,-0.529724
1629370438034,-0.163541,-0.8072739999999999,-0.524173
1629370438044,-0.157746,-0.808555,-0.518988
1629370438053,-0.154269,-0.8057489999999999,-0.512583
1629370438063,-0.14896199999999998,-0.8008689999999999,-0.510387
1629370438073,-0.145241,-0.800442,-0.503799
1629370438082,-0.14274,-0.805932,-0.49672299999999997
1629370438092,-0.138897,-0.818742,-0.482815
1629370438101,-0.136518,-0.833565,-0.465064
1629370438111,-0.135298,-0.843874,-0.451217
1629370438121,-0.134749,-0.851438,-0.440664
1629370438130,-0.133895,-0.852963,-0.431514
1629370438140,-0.135237,-0.8522919999999999,-0.427183
1629370438149,-0.135969,-0.8547319999999999,-0.421998
1629370438159,-0.13572499999999998,-0.858941,-0.415288
1629370438169,-0.13602999999999998,-0.861198,-0.409554
1629370438178,-0.138043,-0.865468,-0.40443
1629370438188,-0.139324,-0.865163,-0.403454
1629370438197,-0.136396,-0.858575,-0.408517
1629370438207,-0.136823,-0.854671,-0.41199399999999997
1629370438217,-0.134322,-0.8583919999999999,-0.413092
1629370438226,-0.133529,-0.862418,-0.40638199999999997
1629370438236,-0.135542,-0.876082,-0.394182
1629370438245,-0.142984,-0.893772,-0.381616
1629370438255,-0.150426,-0.906277,-0.36905
1629370438265,-0.156526,-0.916891,-0.361852
1629370438274,-0.16622499999999998,-0.925126,-0.354166
1629370438284,-0.174521,-0.927566,-0.347944
1629370438293,-0.180865,-0.9250039999999999,-0.34038
1629370438303,-0.188856,-0.920551,-0.335866
1629370438313,-0.196786,-0.917623,-0.329644
1629370438322,-0.20319099999999998,-0.915,-0.326167
1629370438332,-0.209474,-0.912072,-0.323666
1629370438341,-0.216062,-0.913292,-0.320494
1629370438351,-0.220271,-0.914207,-0.31799299999999997
1629370438361,-0.225334,-0.912377,-0.311344
1629370438370,-0.23119,-0.9128649999999999,-0.301889
1629370438380,-0.23619199999999999,-0.916037,-0.292983
1629370438389,-0.24095,-0.918782,-0.285114
1629370438399,-0.246562,-0.922076,-0.276086
1629370438409,-0.247355,-0.923296,-0.270718
1629370438418,-0.249185,-0.921161,-0.26657
1629370438428,-0.251015,-0.9176839999999999,-0.262483
1629370438437,-0.25071,-0.9134749999999999,-0.26169
1629370438447,-0.252296,-0.908412,-0.26065299999999997
1629370438457,-0.252723,-0.903471,-0.259921
1629370438466,-0.253882,-0.898957,-0.263825
1629370438476,-0.255712,-0.898042,-0.262483
1629370438485,-0.259494,-0.8985299999999999,-0.262178
1629370438495,-0.265106,-0.8997499999999999,-0.260104
1629370438505,-0.268888,-0.898103,-0.255773
1629370438514,-0.274561,-0.896822,-0.250344
1629370438524,-0.28304,-0.899628,-0.245037
1629370438533,-0.289872,-0.899567,-0.241926
1629370438543,-0.295606,-0.898652,-0.23973
1629370438553,-0.299327,-0.897859,-0.23893699999999998
1629370438562,-0.29951,-0.8966999999999999,-0.240767
1629370438572,-0.300181,-0.893528,-0.245342
1629370438581,-0.30073,-0.894077,-0.250649
1629370438591,-0.301279,-0.893101,-0.256505
1629370438601,-0.30195,-0.888343,-0.263154
1629370438610,-0.303048,-0.881023,-0.269742
1629370438620,-0.30506099999999997,-0.87718,-0.27511
1629370438629,-0.308538,-0.8751059999999999,-0.278709
1629370438639,-0.310856,-0.873947,-0.280966
1629370438649,-0.315492,-0.876143,-0.281759
1629370438658,-0.31781,-0.879498,-0.280661
1629370438668,-0.321897,-0.879315,-0.281271
1629370438677,-0.323178,-0.876997,-0.279014
1629370438687,-0.326472,-0.877607,-0.274744
1629370438697,-0.329034,-0.883524,-0.273158
1629370438706,-0.331169,-0.890173,-0.27358499999999997
1629370438716,-0.332572,-0.895907,-0.272609
1629370438725,-0.334524,-0.899567,-0.27297499999999997
1629370438735,-0.337818,-0.901763,-0.273341
1629370438745,-0.339099,-0.8988349999999999,-0.273707
1629370438754,-0.34221,-0.897066,-0.274866
1629370438764,-0.347456,-0.8973099999999999,-0.277672
1629370438773,-0.351421,-0.893833,-0.279502
1629370438783,-0.354593,-0.890661,-0.28224699999999997
1629370438793,-0.354715,-0.888282,-0.281698
1629370438802,-0.354593,-0.886574,-0.289201
1629370438812,-0.353068,-0.888587,-0.295545
1629370438821,-0.350079,-0.889319,-0.29768
1629370438831,-0.348676,-0.890722,-0.296887
1629370438841,-0.348432,-0.895907,-0.295118
1629370438850,-0.345199,-0.9040199999999999,-0.289262
1629370438860,-0.34690699999999997,-0.909327,-0.278587
1629370438869,-0.347639,-0.910181,-0.268156
1629370438879,-0.348737,-0.908351,-0.257969
1629370438889,-0.354288,-0.906216,-0.24387799999999998
1629370438898,-0.357277,-0.9043249999999999,-0.233569
1629370438908,-0.357826,-0.903898,-0.224358
1629370438917,-0.35587399999999997,-0.903959,-0.21892899999999998
1629370438927,-0.352336,-0.904569,-0.21472
1629370438937,-0.3477,-0.906704,-0.210877
1629370438946,-0.34221,-0.907131,-0.20935199999999998
1629370438956,-0.337452,-0.905484,-0.210084
1629370438965,-0.33214499999999997,-0.9043249999999999,-0.210755
1629370438975,-0.325496,-0.9049349999999999,-0.21154799999999999
1629370438985,-0.319274,-0.9058499999999999,-0.211914
1629370438994,-0.31585799999999997,-0.906338,-0.209108
1629370439004,-0.311954,-0.907314,-0.204045
1629370439013,-0.31055099999999997,-0.907436,-0.20044599999999999
1629370439023,-0.31024599999999997,-0.906582,-0.195932
1629370439033,-0.307562,-0.904264,-0.195688
1629370439042,-0.307379,-0.902556,-0.196176
1629370439052,-0.306342,-0.9034099999999999,-0.198372
1629370439061,-0.303719,-0.905606,-0.202398
1629370439071,-0.299449,-0.9052399999999999,-0.206119
1629370439081,-0.29670399999999997,-0.905057,-0.20923
1629370439090,-0.293837,-0.905972,-0.21106
1629370439100,-0.294691,-0.908168,-0.211792
1629370439109,-0.297131,-0.911584,-0.20996199999999998
1629370439119,-0.300364,-0.914268,-0.207339
1629370439129,-0.302926,-0.91561,-0.205387
1629370439138,-0.30475599999999997,-0.91561,-0.204716
1629370439148,-0.30567099999999997,-0.914451,-0.20435
1629370439157,-0.304024,-0.913353,-0.202337
1629370439167,-0.302438,-0.9137799999999999,-0.199592
1629370439177,-0.303597,-0.916525,-0.195322
1629370439186,-0.303597,-0.920978,-0.19276
1629370439196,-0.30561,-0.921893,-0.191113
1629370439205,-0.305915,-0.918355,-0.191723
1629370439215,-0.307318,-0.912804,-0.193919
1629370439225,-0.305488,-0.907863,-0.196664
1629370439234,-0.305427,-0.902434,-0.195566
1629370439244,-0.30445099999999997,-0.902251,-0.193919
1629370439253,-0.30506099999999997,-0.904142,-0.191845
1629370439263,-0.308355,-0.908473,-0.189222
1629370439273,-0.313479,-0.914207,-0.186843
1629370439282,-0.314089,-0.915488,-0.187575
1629370439292,-0.316041,-0.917196,-0.18781899999999999
1629370439301,-0.313906,-0.918843,-0.190442
1629370439311,-0.312442,-0.917135,-0.193187
1629370439321,-0.311344,-0.916464,-0.194712
1629370439330,-0.309087,-0.916098,-0.198189
1629370439340,-0.307745,-0.917623,-0.201544
1629370439349,-0.30378,-0.918782,-0.206424
1629370439359,-0.300974,-0.919026,-0.20843699999999998
1629370439369,-0.301706,-0.918477,-0.211304
1629370439378,-0.300425,-0.91622,-0.211182
1629370439388,-0.299327,-0.913231,-0.210084
1629370439397,-0.300486,-0.912316,-0.206668
1629370439407,-0.299815,-0.912499,-0.20410599999999998
1629370439417,-0.301767,-0.9107299999999999,-0.200812
1629370439426,-0.303292,-0.909632,-0.19947
1629370439436,-0.304573,-0.9088999999999999,-0.197457
1629370439445,-0.306159,-0.908473,-0.195078
1629370439455,-0.30805,-0.911523,-0.192577
1629370439465,-0.309819,-0.914573,-0.193004
1629370439474,-0.310856,-0.91744,-0.193797
1629370439484,-0.310795,-0.921283,-0.196176
1629370439493,-0.310368,-0.923052,-0.19672499999999998
1629370439503,-0.309392,-0.9240889999999999,-0.195871
1629370439513,-0.310002,-0.9231739999999999,-0.191723
1629370439522,-0.310856,-0.922503,-0.187453
1629370439532,-0.313174,-0.91744,-0.183
1629370439541,-0.314577,-0.913536,-0.179523
1629370439551,-0.316346,-0.9107299999999999,-0.176839
1629370439561,-0.317749,-0.908168,-0.175924
1629370439570,-0.319579,-0.906826,-0.17580199999999999
1629370439580,-0.318664,-0.906033,-0.17751
1629370439589,-0.31829799999999997,-0.905972,-0.179828
1629370439599,-0.318359,-0.907619,-0.180682
1629370439609,-0.317871,-0.911096,-0.183
1629370439618,-0.316651,-0.913414,-0.186538
1629370439628,-0.316407,-0.915305,-0.189222
1629370439637,-0.3172,-0.917928,-0.190442
1629370439647,-0.31646799999999997,-0.918111,-0.193858
1629370439657,-0.317261,-0.916342,-0.195078
1629370439666,-0.316895,-0.916952,-0.196969
1629370439676,-0.314577,-0.917928,-0.199226
1629370439685,-0.312991,-0.916586,-0.200629
1629370439695,-0.312503,-0.915122,-0.201605
1629370439705,-0.309697,-0.914268,-0.201788
1629370439714,-0.30841599999999997,-0.915915,-0.20313
1629370439724,-0.307562,-0.917501,-0.203862
1629370439733,-0.304573,-0.917196,-0.205814
1629370439743,-0.303902,-0.916464,-0.206546
1629370439753,-0.30195,-0.915671,-0.208864
1629370439762,-0.300181,-0.913353,-0.208559
1629370439772,-0.299266,-0.9140849999999999,-0.206546
1629370439781,-0.300486,-0.916525,-0.203984
1629370439791,-0.30012,-0.920185,-0.201788
1629370439801,-0.300669,-0.9213439999999999,-0.201422
1629370439810,-0.301584,-0.922076,-0.202764
1629370439820,-0.30073,-0.923235,-0.20258099999999998
1629370439829,-0.298961,-0.924821,-0.20252
1629370439839,-0.298412,-0.9240889999999999,-0.201788
1629370439849,-0.29731399999999997,-0.924638,-0.202764
1629370439858,-0.295911,-0.924211,-0.203069
1629370439868,-0.29334899999999997,-0.9237839999999999,-0.204289
1629370439877,-0.290543,-0.920551,-0.206241
1629370439887,-0.28853,-0.918538,-0.209108
1629370439897,-0.284748,-0.91622,-0.213134
1629370439906,-0.281149,-0.915122,-0.214354
1629370439916,-0.277672,-0.916586,-0.21716
1629370439925,-0.275537,-0.914573,-0.220332
1629370439935,-0.273097,-0.911462,-0.221613
1629370439945,-0.271023,-0.911889,-0.220332
1629370439954,-0.269803,-0.915976,-0.219051
1629370439964,-0.268888,-0.917745,-0.217343
1629370439973,-0.267058,-0.9201239999999999,-0.21246299999999999
1629370439983,-0.265838,-0.923845,-0.208559
1629370439993,-0.26535,-0.92598,-0.206851
1629370440002,-0.263093,-0.929091,-0.206241
1629370440012,-0.260165,-0.930433,-0.208315
1629370440021,-0.258274,-0.931226,-0.210023
1629370440031,-0.255895,-0.933056,-0.213561
1629370440041,-0.253333,-0.9356789999999999,-0.218136
1629370440050,-0.248148,-0.933422,-0.222101
1629370440060,-0.245037,-0.933666,-0.225639
1629370440069,-0.24387799999999998,-0.931043,-0.22875
1629370440079,-0.24540299999999998,-0.925065,-0.228262
1629370440089,-0.248575,-0.919575,-0.223199
1629370440098,-0.252052,-0.91805,-0.219295
1629370440108,-0.250832,-0.915427,-0.214842
1629370440117,-0.249246,-0.921832,-0.20782699999999998
1629370440127,-0.247172,-0.930128,-0.20288599999999998
1629370440137,-0.243756,-0.9365939999999999,-0.198677
1629370440146,-0.242475,-0.9432429999999999,-0.19611499999999998
1629370440156,-0.241072,-0.947574,-0.199226
1629370440165,-0.239364,-0.945012,-0.204411
1629370440175,-0.236863,-0.94184,-0.21106
1629370440185,-0.234484,-0.937326,-0.217404
1629370440194,-0.232532,-0.9335439999999999,-0.222955
1629370440204,-0.23277599999999998,-0.929701,-0.226066
1629370440213,-0.235033,-0.9231739999999999,-0.22942099999999999
1629370440223,-0.237229,-0.9189039999999999,-0.228994
1629370440233,-0.241011,-0.917501,-0.228384
1629370440242,-0.244732,-0.916952,-0.225578
1629370440252,-0.249185,-0.915488,-0.222406
1629370440261,-0.25376,-0.916281,-0.21862399999999999
1629370440271,-0.257359,-0.919453,-0.216855
1629370440281,-0.259494,-0.9222589999999999,-0.21612299999999998
1629370440290,-0.26126299999999997,-0.922198,-0.21551299999999998
1629370440300,-0.26352,-0.922503,-0.216794
1629370440309,-0.264496,-0.922503,-0.216794
1629370440319,-0.265899,-0.920856,-0.217465
1629370440329,-0.267424,-0.91988,-0.219051
1629370440338,-0.26839999999999997,-0.922076,-0.221003
1629370440348,-0.268827,-0.921222,-0.22386999999999999
1629370440357,-0.270596,-0.9210389999999999,-0.227652
1629370440367,-0.270413,-0.920856,-0.231129
1629370440377,-0.269803,-0.9213439999999999,-0.233874
1629370440386,-0.269681,-0.921405,-0.237046
1629370440396,-0.268583,-0.92171,-0.240584
1629370440405,-0.267119,-0.92171,-0.243329
1629370440415,-0.266997,-0.920307,-0.24461
1629370440425,-0.26779,-0.918782,-0.246257
1629370440434,-0.267058,-0.917806,-0.248148
1629370440444,-0.26779,-0.916281,-0.248697
1629370440453,-0.267973,-0.915976,-0.248636
1629370440463,-0.269193,-0.913292,-0.25193
1629370440473,-0.269437,-0.913963,-0.253394
1629370440482,-0.269864,-0.914024,-0.255529
1629370440492,-0.271877,-0.912377,-0.256444
1629370440501,-0.271511,-0.911889,-0.25729799999999997
1629370440511,-0.272426,-0.910669,-0.258579
1629370440521,-0.273402,-0.908961,-0.25912799999999997
1629370440530,-0.272853,-0.907924,-0.25986
1629370440540,-0.27419499999999997,-0.907802,-0.261446
1629370440549,-0.27511,-0.905911,-0.263215
1629370440559,-0.276635,-0.904569,-0.266509
1629370440569,-0.277489,-0.903837,-0.268766
1629370440578,-0.278648,-0.9055449999999999,-0.271572
1629370440588,-0.280173,-0.904874,-0.272121
1629370440597,-0.283406,-0.906704,-0.273829
1629370440607,-0.284443,-0.9079849999999999,-0.275415
1629370440617,-0.285053,-0.907497,-0.27633
1629370440626,-0.287981,-0.906521,-0.275964
1629370440636,-0.290299,-0.906948,-0.277062
1629370440645,-0.291092,-0.9070699999999999,-0.278099
1629370440655,-0.292495,-0.906399,-0.279014
1629370440665,-0.29212899999999997,-0.905057,-0.280356
1629370440674,-0.291885,-0.903166,-0.28255199999999997
1629370440684,-0.290604,-0.9018849999999999,-0.28426
1629370440693,-0.290482,-0.901458,-0.285114
1629370440703,-0.288774,-0.901031,-0.286395
1629370440713,-0.288347,-0.899689,-0.28792
1629370440722,-0.289872,-0.899262,-0.289933
1629370440732,-0.28975,-0.897676,-0.291702
1629370440741,-0.289689,-0.896883,-0.292373
1629370440751,-0.290116,-0.898286,-0.294081
1629370440761,-0.291092,-0.898896,-0.294691
1629370440770,-0.290604,-0.898774,-0.295911
1629370440780,-0.291763,-0.896334,-0.29707
1629370440789,-0.293166,-0.895053,-0.298473
1629370440799,-0.293166,-0.894809,-0.299876
1629370440809,-0.295423,-0.8954799999999999,-0.302133
1629370440818,-0.29639899999999997,-0.895846,-0.30414599999999997
1629370440828,-0.297802,-0.894931,-0.30445099999999997
1629370440837,-0.299083,-0.894443,-0.305854
1629370440847,-0.298839,-0.894626,-0.305122
1629370440857,-0.299388,-0.895236,-0.30506099999999997
1629370440866,-0.299632,-0.894992,-0.305488
1629370440876,-0.299022,-0.894443,-0.305854
1629370440885,-0.299998,-0.893406,-0.306159
1629370440895,-0.30012,-0.89243,-0.30628099999999997
1629370440905,-0.301401,-0.890356,-0.30628099999999997
1629370440914,-0.302377,-0.888892,-0.307074
1629370440924,-0.303231,-0.889624,-0.306952
1629370440933,-0.305427,-0.890234,-0.305244
1629370440943,-0.30689099999999997,-0.889197,-0.30439
1629370440953,-0.30872099999999997,-0.887855,-0.303902
1629370440962,-0.308904,-0.88816,-0.301706
1629370440972,-0.30902599999999997,-0.888709,-0.29951
1629370440981,-0.309819,-0.890417,-0.297802
1629370440991,-0.311527,-0.89121,-0.295423
1629370441001,-0.310795,-0.89182,-0.292678
1629370441010,-0.310856,-0.892186,-0.29036
1629370441020,-0.310917,-0.893406,-0.289384
1629370441029,-0.310307,-0.894321,-0.287798
1629370441039,-0.309148,-0.895358,-0.287554
1629370441049,-0.30902599999999997,-0.894809,-0.287493
1629370441058,-0.307257,-0.895114,-0.287554
1629370441068,-0.306647,-0.893833,-0.288469
1629370441077,-0.305549,-0.892674,-0.287188
1629370441087,-0.304085,-0.893406,-0.287188
1629370441097,-0.302255,-0.894504,-0.287981
1629370441106,-0.301096,-0.8945649999999999,-0.288896
1629370441116,-0.298656,-0.895663,-0.290665
1629370441125,-0.296521,-0.895724,-0.29402
1629370441135,-0.295118,-0.896273,-0.29585
1629370441145,-0.292983,-0.895114,-0.298107
1629370441154,-0.290116,-0.895297,-0.301035
1629370441164,-0.288347,-0.8954799999999999,-0.303109
1629370441173,-0.285724,-0.8960899999999999,-0.304573
1629370441183,-0.282674,-0.896334,-0.305549
1629370441193,-0.281454,-0.897249,-0.306098
1629370441202,-0.27938,-0.899201,-0.306647
1629370441212,-0.277367,-0.900482,-0.30628099999999997
1629370441221,-0.274683,-0.899628,-0.30683
1629370441231,-0.272487,-0.901519,-0.308172
1629370441241,-0.270474,-0.901824,-0.308782
1629370441250,-0.269254,-0.9027999999999999,-0.30963599999999997
1629370441260,-0.266753,-0.903898,-0.310368
1629370441269,-0.263215,-0.903288,-0.31171
1629370441279,-0.259372,-0.905179,-0.314272
1629370441289,-0.257176,-0.906033,-0.315431
1629370441298,-0.25437,-0.906216,-0.314577
1629370441308,-0.252479,-0.906277,-0.31415
1629370441317,-0.250161,-0.9049349999999999,-0.313723
1629370441327,-0.248636,-0.905728,-0.313174
1629370441337,-0.245952,-0.9052399999999999,-0.311466
1629370441346,-0.244732,-0.905301,-0.310307
1629370441356,-0.243024,-0.9061549999999999,-0.3111
1629370441365,-0.239974,-0.906582,-0.311039
1629370441375,-0.237778,-0.906033,-0.311039
1629370441385,-0.235643,-0.906094,-0.310368
1629370441394,-0.232227,-0.905911,-0.310734
1629370441404,-0.229604,-0.905789,-0.31024599999999997
1629370441413,-0.227774,-0.906887,-0.309453
1629370441423,-0.225761,-0.907436,-0.30988
1629370441433,-0.223504,-0.908656,-0.309758
1629370441442,-0.221186,-0.9095099999999999,-0.308904
1629370441452,-0.218685,-0.910547,-0.30750099999999997
1629370441461,-0.217465,-0.913231,-0.307074
1629370441471,-0.21411,-0.9134749999999999,-0.306647
1629370441481,-0.21276799999999998,-0.913414,-0.307379
1629370441490,-0.20923,-0.912621,-0.309209
1629370441500,-0.20660699999999999,-0.9119499999999999,-0.30994099999999997
1629370441509,-0.204777,-0.9110349999999999,-0.310673
1629370441519,-0.202947,-0.910913,-0.311161
1629370441529,-0.201117,-0.9107299999999999,-0.311466
1629370441538,-0.199958,-0.910913,-0.312015
1629370441548,-0.199287,-0.911462,-0.312442
1629370441557,-0.19947,-0.912377,-0.312686
1629370441567,-0.199531,-0.912072,-0.313113
1629370441577,-0.20008,-0.909632,-0.310978
1629370441586,-0.20136099999999998,-0.909449,-0.310185
1629370441596,-0.201117,-0.909754,-0.30994099999999997
1629370441605,-0.201422,-0.910303,-0.310429
1629370441615,-0.200934,-0.910852,-0.309819
1629370441625,-0.20288599999999998,-0.911828,-0.309148
1629370441634,-0.203862,-0.9122549999999999,-0.310124
1629370441644,-0.203252,-0.912682,-0.3111
1629370441653,-0.204594,-0.9137799999999999,-0.311222
1629370441663,-0.204472,-0.913658,-0.311771
1629370441673,-0.205753,-0.914146,-0.312442
1629370441682,-0.20618,-0.914756,-0.312625
1629370441692,-0.207949,-0.913902,-0.312869
1629370441701,-0.20923,-0.913353,-0.311954
1629370441711,-0.210328,-0.912926,-0.311893
1629370441721,-0.21289,-0.912621,-0.31354
1629370441730,-0.213256,-0.911584,-0.315065
1629370441740,-0.21459799999999998,-0.911706,-0.314943
1629370441749,-0.216306,-0.914329,-0.315614
1629370441759,-0.217038,-0.91439,-0.31585799999999997
1629370441769,-0.218136,-0.912438,-0.315553
1629370441778,-0.219722,-0.910608,-0.315126
1629370441788,-0.221308,-0.910364,-0.31537
1629370441797,-0.222833,-0.909022,-0.31476
1629370441807,-0.224541,-0.908412,-0.313906
1629370441817,-0.226798,-0.9092049999999999,-0.314455
1629370441826,-0.227713,-0.909632,-0.314821
1629370441836,-0.229482,-0.9085949999999999,-0.314516
1629370441845,-0.230275,-0.908839,-0.314882
1629370441855,-0.231678,-0.908839,-0.315126
1629370441865,-0.23302,-0.907863,-0.316834
1629370441874,-0.235094,-0.906338,-0.316102
1629370441884,-0.23710699999999998,-0.905484,-0.31659
1629370441893,-0.237839,-0.9043249999999999,-0.31659
1629370441903,-0.240096,-0.902922,-0.316346
1629370441913,-0.241194,-0.9031049999999999,-0.315736
1629370441922,-0.24326799999999998,-0.902312,-0.316529
1629370441932,-0.245525,-0.903044,-0.317017
1629370441941,-0.247416,-0.902678,-0.318359
1629370441951,-0.249002,-0.900909,-0.318725
1629370441961,-0.250771,-0.899201,-0.318725
1629370441970,-0.251564,-0.899262,-0.319335
1629370441980,-0.254248,-0.899079,-0.318115
1629370441989,-0.25638299999999997,-0.899628,-0.319762
1629370441999,-0.25742,-0.897737,-0.31903
1629370442009,-0.25986,-0.897249,-0.31982299999999997
1629370442018,-0.261385,-0.897493,-0.319884
1629370442028,-0.263398,-0.896212,-0.31982299999999997
1629370442037,-0.26535,-0.896334,-0.32012799999999997
1629370442047,-0.266997,-0.896029,-0.319945
1629370442057,-0.269071,-0.894931,-0.320311
1629370442066,-0.27236499999999997,-0.895724,-0.321226
1629370442076,-0.273402,-0.895053,-0.32025
1629370442085,-0.275232,-0.893833,-0.32043299999999997
1629370442095,-0.276757,-0.8942599999999999,-0.32086
1629370442105,-0.277794,-0.893284,-0.32073799999999997
1629370442114,-0.279441,-0.89304,-0.321897
1629370442124,-0.279807,-0.8939549999999999,-0.32134799999999997
1629370442133,-0.28121,-0.892308,-0.32134799999999997
1629370442143,-0.28285699999999997,-0.890722,-0.322446
1629370442153,-0.283345,-0.890966,-0.321836
1629370442162,-0.283711,-0.890234,-0.321836
1629370442172,-0.284931,-0.890417,-0.322385
1629370442181,-0.285968,-0.890844,-0.321714
1629370442191,-0.287859,-0.889258,-0.32195799999999997
1629370442201,-0.287493,-0.8906,-0.32195799999999997
1629370442210,-0.288347,-0.890417,-0.322202
1629370442220,-0.289567,-0.88999,-0.322507
1629370442229,-0.289872,-0.889502,-0.322202
1629370442239,-0.290299,-0.889624,-0.323178
1629370442249,-0.290726,-0.890539,-0.322934
1629370442258,-0.290543,-0.890966,-0.323056
1629370442268,-0.290238,-0.889807,-0.322934
1629370442277,-0.289628,-0.88999,-0.322812
1629370442287,-0.289994,-0.890661,-0.323239
1629370442297,-0.290177,-0.889197,-0.324337
1629370442306,-0.289628,-0.889014,-0.324703
1629370442316,-0.289262,-0.888282,-0.325191
1629370442325,-0.289567,-0.887245,-0.325984
1629370442335,-0.289323,-0.888038,-0.326167
1629370442345,-0.290238,-0.887672,-0.327448
1629370442354,-0.289567,-0.889258,-0.326411
1629370442364,-0.289079,-0.88877,-0.327509
1629370442373,-0.288591,-0.888404,-0.327448
1629370442383,-0.288286,-0.888709,-0.328241
1629370442393,-0.286944,-0.888709,-0.32817999999999997
1629370442402,-0.288042,-0.889075,-0.328119
1629370442412,-0.288164,-0.890051,-0.327387
1629370442421,-0.288652,-0.88938,-0.326777
1629370442431,-0.287676,-0.890051,-0.326838
1629370442441,-0.28792,-0.889075,-0.326838
1629370442450,-0.287798,-0.8891359999999999,-0.325496
1629370442460,-0.287066,-0.890722,-0.325618
1629370442469,-0.286822,-0.89121,-0.324642
1629370442479,-0.286456,-0.890539,-0.323666
1629370442489,-0.284626,-0.890783,-0.322751
1629370442498,-0.28407699999999997,-0.891088,-0.321592
1629370442508,-0.282918,-0.892491,-0.321592
1629370442517,-0.282613,-0.893467,-0.320372
1629370442527,-0.28121,-0.895358,-0.319579
1629370442537,-0.28011199999999997,-0.894931,-0.32086
1629370442546,-0.278526,-0.894077,-0.321104
1629370442556,-0.276574,-0.894321,-0.322446
1629370442565,-0.274866,-0.8948699999999999,-0.32391
1629370442575,-0.273097,-0.893589,-0.32513
1629370442585,-0.271206,-0.893528,-0.326106
1629370442594,-0.269864,-0.892979,-0.325496
1629370442604,-0.267485,-0.894382,-0.326716
1629370442613,-0.265045,-0.895236,-0.32635
1629370442623,-0.264435,-0.895846,-0.325618
1629370442633,-0.263154,-0.894687,-0.325618
1629370442642,-0.261507,-0.894626,-0.324093
1629370442652,-0.260104,-0.895602,-0.323727
1629370442661,-0.259494,-0.8948699999999999,-0.323849
1629370442671,-0.25790799999999997,-0.895541,-0.322446
1629370442681,-0.257176,-0.895846,-0.322385
1629370442690,-0.255346,-0.8954799999999999,-0.32012799999999997
1629370442700,-0.253638,-0.895846,-0.32086
1629370442709,-0.25376,-0.897188,-0.321104
1629370442719,-0.25193,-0.896883,-0.321104
1629370442729,-0.251259,-0.8973099999999999,-0.32165299999999997
1629370442738,-0.24973399999999998,-0.897859,-0.321409
1629370442748,-0.249246,-0.898042,-0.32104299999999997
1629370442757,-0.249612,-0.899933,-0.321714
1629370442767,-0.247538,-0.900604,-0.321836
1629370442777,-0.247233,-0.901092,-0.321165
1629370442786,-0.24705,-0.9009699999999999,-0.32208
1629370442796,-0.246196,-0.901031,-0.321531
1629370442805,-0.244854,-0.901458,-0.320372
1629370442815,-0.244915,-0.9040199999999999,-0.31903
1629370442825,-0.24448799999999998,-0.906094,-0.318176
1629370442834,-0.243207,-0.903959,-0.317932
1629370442844,-0.242841,-0.9027999999999999,-0.315675
1629370442853,-0.241804,-0.901824,-0.316285
1629370442863,-0.240767,-0.901214,-0.317322
1629370442873,-0.24015699999999998,-0.9012749999999999,-0.316529
1629370442882,-0.239425,-0.902678,-0.317322
1629370442892,-0.238388,-0.904142,-0.318542
1629370442901,-0.238144,-0.903898,-0.31860299999999997
1629370442911,-0.237473,-0.9037149999999999,-0.319884
1629370442921,-0.23729,-0.905484,-0.320616
1629370442930,-0.235765,-0.9058499999999999,-0.320494
1629370442940,-0.235521,-0.905728,-0.320982
1629370442949,-0.236375,-0.905179,-0.320372
1629370442959,-0.236436,-0.9046299999999999,-0.318786
1629370442969,-0.236131,-0.9037149999999999,-0.318786
1629370442978,-0.23558199999999999,-0.903959,-0.317627
1629370442988,-0.235826,-0.904874,-0.317871
1629370442997,-0.235521,-0.9052399999999999,-0.317139
1629370443007,-0.236253,-0.904569,-0.316956
1629370443017,-0.237046,-0.904752,-0.316712
1629370443026,-0.23668,-0.903837,-0.316041
1629370443036,-0.237839,-0.904996,-0.315919
1629370443045,-0.236924,-0.904142,-0.315309
1629370443055,-0.237229,-0.903776,-0.315614
1629370443065,-0.23741199999999998,-0.9037149999999999,-0.315736
1629370443074,-0.237534,-0.904264,-0.31598
1629370443084,-0.238388,-0.904691,-0.316285
1629370443093,-0.238571,-0.904386,-0.315736
1629370443103,-0.24034,-0.9040199999999999,-0.315675
1629370443113,-0.240645,-0.904508,-0.315492
1629370443122,-0.24095,-0.903532,-0.315248
1629370443132,-0.24235299999999999,-0.903654,-0.314821
1629370443141,-0.243024,-0.9043249999999999,-0.315492
1629370443151,-0.244061,-0.903898,-0.314089
1629370443161,-0.244671,-0.903471,-0.314028
1629370443170,-0.24540299999999998,-0.902556,-0.314272
1629370443180,-0.244915,-0.902739,-0.313967
1629370443189,-0.244854,-0.9021899999999999,-0.314821
1629370443199,-0.24644,-0.9015799999999999,-0.314272
1629370443209,-0.246562,-0.9021899999999999,-0.315187
1629370443218,-0.24644,-0.9015799999999999,-0.315248
1629370443228,-0.247965,-0.901702,-0.315736
1629370443237,-0.248575,-0.9015799999999999,-0.316834
1629370443247,-0.248575,-0.901397,-0.316224
1629370443257,-0.24973399999999998,-0.901153,-0.31738299999999997
1629370443266,-0.249612,-0.900726,-0.318115
1629370443276,-0.251198,-0.9009699999999999,-0.31781
1629370443285,-0.251991,-0.900848,-0.318359
1629370443295,-0.252784,-0.899994,-0.31860299999999997
1629370443305,-0.25437,-0.900604,-0.31890799999999997
1629370443314,-0.254675,-0.9000549999999999,-0.31903
1629370443324,-0.255712,-0.900177,-0.319274
1629370443333,-0.255895,-0.900299,-0.31781
1629370443343,-0.257542,-0.899262,-0.319335
1629370443353,-0.258701,-0.899628,-0.318054
1629370443362,-0.259494,-0.900299,-0.31903
1629370443372,-0.259189,-0.900482,-0.31890799999999997
1629370443381,-0.261019,-0.899262,-0.317871
1629370443391,-0.261446,-0.899811,-0.318115
1629370443401,-0.26169,-0.899506,-0.318786
1629370443410,-0.261995,-0.899872,-0.31768799999999997
1629370443420,-0.263398,-0.898957,-0.31799299999999997
1629370443429,-0.265106,-0.898774,-0.317505
1629370443439,-0.264618,-0.8994449999999999,-0.317017
1629370443449,-0.264496,-0.898347,-0.31768799999999997
1629370443458,-0.264801,-0.898286,-0.316712
1629370443468,-0.264313,-0.897981,-0.316712
1629370443477,-0.264801,-0.897432,-0.316102
1629370443487,-0.264313,-0.897676,-0.31476
1629370443497,-0.264435,-0.8976149999999999,-0.31659
1629370443506,-0.26413,-0.897188,-0.316102
1629370443516,-0.264374,-0.8970049999999999,-0.316956
1629370443525,-0.264252,-0.896883,-0.317627
1629370443535,-0.263642,-0.898103,-0.31781
1629370443545,-0.264374,-0.898408,-0.31799299999999997
1629370443554,-0.264435,-0.8973099999999999,-0.319274
1629370443564,-0.26474,-0.8960899999999999,-0.320555
1629370443573,-0.264252,-0.895907,-0.320494
1629370443583,-0.263825,-0.896578,-0.320921
1629370443593,-0.263642,-0.897432,-0.321775
1629370443602,-0.262666,-0.8976149999999999,-0.320982
1629370443612,-0.263337,-0.896761,-0.320982
1629370443621,-0.263459,-0.897188,-0.320372
1629370443631,-0.263154,-0.8976149999999999,-0.31890799999999997
1629370443641,-0.262666,-0.898713,-0.317749
1629370443650,-0.263398,-0.899933,-0.316407
1629370443660,-0.263215,-0.899384,-0.315736
1629370443669,-0.263459,-0.898774,-0.3172
1629370443679,-0.262483,-0.898652,-0.31799299999999997
1629370443689,-0.262483,-0.898713,-0.317566
1629370443698,-0.26156799999999997,-0.8979199999999999,-0.31781
1629370443708,-0.26169,-0.898042,-0.318481
1629370443717,-0.262117,-0.897981,-0.318054
1629370443727,-0.261629,-0.8976149999999999,-0.31768799999999997
1629370443737,-0.261324,-0.897859,-0.318847
1629370443746,-0.262056,-0.897676,-0.318115
1629370443756,-0.26095799999999997,-0.8973099999999999,-0.318969
1629370443765,-0.261507,-0.896822,-0.318481
1629370443775,-0.26156799999999997,-0.896578,-0.318542
1629370443785,-0.261629,-0.8970049999999999,-0.318542
1629370443794,-0.261812,-0.897371,-0.318786
1629370443804,-0.261507,-0.897432,-0.317566
1629370443813,-0.26095799999999997,-0.898408,-0.316834
1629370443823,-0.26126299999999997,-0.899018,-0.317444
1629370443833,-0.261141,-0.8991399999999999,-0.31860299999999997
1629370443842,-0.26126299999999997,-0.8988349999999999,-0.31768799999999997
1629370443852,-0.26156799999999997,-0.899933,-0.317322
1629370443861,-0.261019,-0.899628,-0.31659
1629370443871,-0.26156799999999997,-0.899628,-0.316956
1629370443881,-0.26126299999999997,-0.899628,-0.317444
1629370443890,-0.26047,-0.899079,-0.31781
1629370443900,-0.260409,-0.899201,-0.317627
1629370443909,-0.259799,-0.899018,-0.318054
1629370443919,-0.259006,-0.8997499999999999,-0.318786
1629370443929,-0.257664,-0.899506,-0.319457
1629370443938,-0.257725,-0.899689,-0.31842
1629370443948,-0.258091,-0.901763,-0.316102
1629370443957,-0.258152,-0.901946,-0.31598
1629370443967,-0.25668799999999997,-0.8997499999999999,-0.314882
1629370443977,-0.256444,-0.898286,-0.315248
1629370443986,-0.25638299999999997,-0.8976149999999999,-0.315675
1629370443996,-0.255468,-0.897676,-0.314943
1629370444005,-0.255529,-0.8982249999999999,-0.316224
1629370444015,-0.254736,-0.898774,-0.31646799999999997
1629370444025,-0.255224,-0.8991399999999999,-0.316529
1629370444034,-0.255468,-0.9000549999999999,-0.31707799999999997
1629370444044,-0.25559,-0.899689,-0.31781
1629370444053,-0.25498,-0.900482,-0.31829799999999997
1629370444063,-0.255773,-0.899628,-0.31738299999999997
1629370444073,-0.256017,-0.9006649999999999,-0.317444
1629370444082,-0.256627,-0.9000549999999999,-0.316346
1629370444092,-0.257725,-0.898896,-0.315614
1629370444101,-0.257664,-0.899811,-0.315004
1629370444111,-0.258396,-0.899262,-0.315248
1629370444121,-0.257725,-0.899872,-0.315492
1629370444130,-0.259006,-0.8997499999999999,-0.314211
1629370444140,-0.258335,-0.899689,-0.315126
1629370444149,-0.25790799999999997,-0.899567,-0.31537
1629370444159,-0.258274,-0.899628,-0.315126
1629370444169,-0.25925,-0.8997499999999999,-0.314882
1629370444178,-0.26065299999999997,-0.898896,-0.31476
1629370444188,-0.26095799999999997,-0.898957,-0.31476
1629370444197,-0.259921,-0.898347,-0.315675
1629370444207,-0.260531,-0.898896,-0.314882
1629370444217,-0.25986,-0.899872,-0.315309
1629370444226,-0.260775,-0.899506,-0.314577
1629370444236,-0.260226,-0.899628,-0.314577
1629370444245,-0.260226,-0.899689,-0.31476
1629370444255,-0.260592,-0.9000549999999999,-0.31476
1629370444265,-0.26095799999999997,-0.899933,-0.314577
1629370444274,-0.260165,-0.899506,-0.314638
1629370444284,-0.260836,-0.898713,-0.31415
1629370444293,-0.260897,-0.899201,-0.313784
1629370444303,-0.26034799999999997,-0.898774,-0.313906
1629370444313,-0.260775,-0.8985299999999999,-0.313845
1629370444322,-0.260592,-0.898408,-0.314089
1629370444332,-0.26004299999999997,-0.897554,-0.314028
1629370444341,-0.260714,-0.897798,-0.315126
1629370444351,-0.260592,-0.898164,-0.31537
1629370444361,-0.259982,-0.897371,-0.316651
1629370444370,-0.260714,-0.8973099999999999,-0.315919
1629370444380,-0.259982,-0.897493,-0.316895
1629370444389,-0.26034799999999997,-0.898042,-0.317322
1629370444399,-0.260409,-0.897737,-0.317139
1629370444409,-0.261202,-0.897798,-0.3172
1629370444418,-0.26156799999999997,-0.897493,-0.317627
1629370444428,-0.260592,-0.898164,-0.318237
1629370444437,-0.26126299999999997,-0.897432,-0.31829799999999997
1629370444447,-0.261812,-0.8976149999999999,-0.318725
1629370444457,-0.262117,-0.897737,-0.318847
1629370444466,-0.263825,-0.897737,-0.319579
1629370444476,-0.263886,-0.898408,-0.319152
1629370444485,-0.264435,-0.898408,-0.319274
1629370444495,-0.264191,-0.897798,-0.31982299999999997
1629370444505,-0.264557,-0.898164,-0.31903
1629370444514,-0.264496,-0.897981,-0.319457
1629370444524,-0.265594,-0.897798,-0.318115
1629370444533,-0.266143,-0.897554,-0.318115
1629370444543,-0.266204,-0.897737,-0.31829799999999997
1629370444553,-0.266448,-0.897249,-0.318359
1629370444562,-0.26596,-0.897554,-0.318115
1629370444572,-0.266753,-0.897493,-0.31890799999999997
1629370444581,-0.266082,-0.897676,-0.318969
1629370444591,-0.267058,-0.8973099999999999,-0.318786
1629370444601,-0.266448,-0.897188,-0.31860299999999997
1629370444610,-0.267058,-0.897981,-0.317566
1629370444620,-0.267424,-0.8985299999999999,-0.31646799999999997
1629370444629,-0.266631,-0.898042,-0.316041
1629370444639,-0.266265,-0.8979199999999999,-0.316834
1629370444649,-0.267058,-0.897981,-0.315919
1629370444658,-0.266509,-0.8985299999999999,-0.31476
1629370444668,-0.265533,-0.8982249999999999,-0.315553
1629370444677,-0.266387,-0.897066,-0.314821
1629370444687,-0.265594,-0.896578,-0.315492
1629370444697,-0.265716,-0.896822,-0.314699
1629370444706,-0.264984,-0.897066,-0.31585799999999997
1629370444716,-0.263642,-0.8963949999999999,-0.315797
1629370444725,-0.263703,-0.895846,-0.315309
1629370444735,-0.26291,-0.896029,-0.315919
1629370444745,-0.26291,-0.8957849999999999,-0.316102
1629370444754,-0.262971,-0.8985299999999999,-0.316895
1629370444764,-0.263642,-0.899384,-0.316651
1629370444773,-0.262849,-0.8997499999999999,-0.3172
1629370444783,-0.262788,-0.898469,-0.317932
1629370444793,-0.261385,-0.897737,-0.31951799999999997
1629370444802,-0.26095799999999997,-0.897188,-0.319762
1629370444812,-0.260836,-0.898286,-0.319396
1629370444821,-0.260226,-0.897676,-0.318664
1629370444831,-0.25973799999999997,-0.897676,-0.319091
1629370444841,-0.259677,-0.898408,-0.319152
1629370444850,-0.260592,-0.8988349999999999,-0.31903
1629370444860,-0.260531,-0.8985299999999999,-0.31921299999999997
1629370444869,-0.260775,-0.896456,-0.318847
1629370444879,-0.260104,-0.896456,-0.318542
1629370444889,-0.26126299999999997,-0.896456,-0.319396
1629370444898,-0.26108,-0.895724,-0.318481
1629370444908,-0.261812,-0.896456,-0.319884
1629370444917,-0.260409,-0.8973099999999999,-0.319335
1629370444927,-0.261934,-0.8973099999999999,-0.31951799999999997
1629370444937,-0.26156799999999997,-0.897493,-0.31964
1629370444946,-0.261934,-0.897554,-0.320006
1629370444956,-0.262544,-0.897432,-0.320067
1629370444965,-0.262239,-0.898347,-0.319274
1629370444975,-0.263032,-0.897432,-0.317932
1629370444985,-0.26413,-0.898042,-0.31738299999999997
1629370444994,-0.263947,-0.898286,-0.317505
1629370445004,-0.264435,-0.897432,-0.317444
1629370445013,-0.264008,-0.8973099999999999,-0.318115
1629370445023,-0.264496,-0.898042,-0.318542
1629370445033,-0.264496,-0.8979199999999999,-0.31903
1629370445042,-0.263886,-0.8976149999999999,-0.31964
1629370445052,-0.263825,-0.897981,-0.318176
1629370445061,-0.263886,-0.899506,-0.31707799999999997
1629370445071,-0.264618,-0.9012749999999999,-0.316834
1629370445081,-0.264496,-0.898591,-0.316956
1629370445090,-0.264008,-0.897188,-0.31616299999999997
1629370445100,-0.263459,-0.8963949999999999,-0.31646799999999997
1629370445109,-0.263032,-0.894626,-0.315004
1629370445119,-0.26352,-0.895846,-0.315675
1629370445129,-0.263276,-0.896944,-0.315248
1629370445138,-0.263398,-0.897493,-0.31677299999999997
1629370445148,-0.263642,-0.897066,-0.316834
1629370445157,-0.263642,-0.8988349999999999,-0.316712
1629370445167,-0.263642,-0.899628,-0.317932
1629370445177,-0.263886,-0.898774,-0.318359
1629370445186,-0.263154,-0.8982249999999999,-0.318786
1629370445196,-0.263581,-0.897981,-0.319152
1629370445205,-0.263886,-0.897676,-0.31799299999999997
1629370445215,-0.263154,-0.897432,-0.317932
1629370445225,-0.263642,-0.897981,-0.31738299999999997
1629370445234,-0.263886,-0.8982249999999999,-0.3172
1629370445244,-0.262239,-0.897493,-0.317322
1629370445253,-0.263276,-0.897859,-0.316834
1629370445263,-0.262971,-0.897188,-0.316834
1629370445273,-0.263032,-0.896639,-0.318237
1629370445282,-0.263764,-0.896578,-0.318237
1629370445292,-0.263825,-0.897371,-0.318054
1629370445301,-0.263215,-0.896761,-0.318359
1629370445311,-0.264008,-0.896761,-0.318542
1629370445321,-0.263337,-0.897798,-0.318725
1629370445330,-0.264252,-0.897249,-0.31903
1629370445340,-0.264252,-0.896456,-0.320067
1629370445349,-0.264923,-0.897737,-0.320067
1629370445359,-0.264862,-0.896517,-0.319579
1629370445369,-0.264496,-0.8963949999999999,-0.319945
1629370445378,-0.264679,-0.897127,-0.320372
1629370445388,-0.264191,-0.896944,-0.31921299999999997
1629370445397,-0.264679,-0.896822,-0.318847
1629370445407,-0.264923,-0.897066,-0.318359
1629370445417,-0.265106,-0.897676,-0.318847
1629370445426,-0.264252,-0.896944,-0.318359
1629370445436,-0.264618,-0.896578,-0.318115
1629370445445,-0.26474,-0.896273,-0.31842
1629370445455,-0.26474,-0.8970049999999999,-0.319396
1629370445465,-0.264923,-0.895602,-0.31903
1629370445474,-0.264984,-0.896151,-0.31982299999999997
1629370445484,-0.264252,-0.895053,-0.320494
1629370445493,-0.264252,-0.894992,-0.319701
1629370445503,-0.264801,-0.895602,-0.320616
1629370445513,-0.265289,-0.895236,-0.320372
1629370445522,-0.264801,-0.895541,-0.320006
1629370445532,-0.265167,-0.895053,-0.319945
1629370445541,-0.266143,-0.896456,-0.32012799999999997
1629370445551,-0.26535,-0.894748,-0.32012799999999997
1629370445561,-0.265838,-0.896822,-0.320982
1629370445570,-0.265533,-0.895602,-0.321775
1629370445580,-0.265716,-0.895846,-0.321531
1629370445589,-0.265838,-0.895846,-0.32147
1629370445599,-0.265472,-0.8954799999999999,-0.32256799999999997
1629370445609,-0.266143,-0.896029,-0.321836
1629370445618,-0.265716,-0.896151,-0.32208
1629370445628,-0.264496,-0.895419,-0.32195799999999997
1629370445637,-0.265655,-0.896151,-0.321592
1629370445647,-0.266387,-0.894687,-0.321714
1629370445657,-0.265838,-0.896456,-0.321836
1629370445666,-0.266082,-0.896517,-0.321714
1629370445676,-0.26657,-0.8957849999999999,-0.321104
1629370445685,-0.26596,-0.895907,-0.321104
1629370445695,-0.265777,-0.896456,-0.32086
1629370445705,-0.26657,-0.895846,-0.321714
1629370445714,-0.265838,-0.896151,-0.321104
1629370445724,-0.265472,-0.896212,-0.320311
1629370445733,-0.265594,-0.895724,-0.320982
1629370445743,-0.265045,-0.895602,-0.32147
1629370445753,-0.266143,-0.895663,-0.322385
1629370445762,-0.265655,-0.897127,-0.32256799999999997
1629370445772,-0.264923,-0.896456,-0.32147
1629370445781,-0.265228,-0.895236,-0.321592
1629370445791,-0.265716,-0.895968,-0.32195799999999997
1629370445801,-0.264801,-0.896517,-0.322019
1629370445810,-0.264801,-0.8960899999999999,-0.321897
1629370445820,-0.26474,-0.896151,-0.32147
1629370445829,-0.265838,-0.895297,-0.320982
1629370445839,-0.265838,-0.8951749999999999,-0.32104299999999997
1629370445849,-0.264862,-0.895602,-0.319579
1629370445858,-0.265777,-0.895236,-0.32012799999999997
1629370445868,-0.266448,-0.895541,-0.319762
1629370445877,-0.266204,-0.8957849999999999,-0.318847
1629370445887,-0.266997,-0.896151,-0.317261
1629370445897,-0.266814,-0.896456,-0.316346
1629370445906,-0.268278,-0.897188,-0.314699
1629370445916,-0.267729,-0.897981,-0.313845
1629370445925,-0.26779,-0.899018,-0.312991
1629370445935,-0.268888,-0.898103,-0.312869
1629370445945,-0.268522,-0.897432,-0.313357
1629370445954,-0.268644,-0.8963949999999999,-0.31293
1629370445964,-0.268034,-0.896456,-0.313662
1629370445973,-0.267668,-0.896212,-0.313418
1629370445983,-0.269132,-0.895541,-0.313723
1629370445993,-0.269376,-0.895724,-0.313296
1629370446002,-0.269376,-0.896639,-0.313784
1629370446012,-0.26992499999999997,-0.897066,-0.313784
1629370446021,-0.26931499999999997,-0.895724,-0.313418
1629370446031,-0.268827,-0.894992,-0.31354
1629370446041,-0.26870499999999997,-0.894748,-0.312808
1629370446050,-0.269986,-0.894077,-0.312137
1629370446060,-0.26900999999999997,-0.894016,-0.311161
1629370446069,-0.270352,-0.894199,-0.311161
1629370446079,-0.270413,-0.894687,-0.311466
1629370446089,-0.270657,-0.895114,-0.31055099999999997
1629370446098,-0.27022999999999997,-0.895602,-0.310185
1629370446108,-0.271267,-0.895419,-0.30994099999999997
1629370446117,-0.271999,-0.894809,-0.310856
1629370446127,-0.27144999999999997,-0.894992,-0.310856
1629370446137,-0.272243,-0.895663,-0.310612
1629370446146,-0.272487,-0.896456,-0.312564
1629370446156,-0.271694,-0.895297,-0.313967
1629370446165,-0.269559,-0.893894,-0.318237
1629370446175,-0.26900999999999997,-0.895419,-0.32195799999999997
1629370446185,-0.26839999999999997,-0.896944,-0.32269
1629370446194,-0.269254,-0.896029,-0.323727
1629370446204,-0.26870499999999997,-0.896334,-0.324276
1629370446213,-0.269132,-0.897249,-0.324703
1629370446223,-0.269376,-0.899933,-0.323788
1629370446233,-0.26931499999999997,-0.898774,-0.324093
1629370446242,-0.267973,-0.896578,-0.323483
1629370446252,-0.267973,-0.894748,-0.323605
1629370446261,-0.268278,-0.893772,-0.323605
1629370446271,-0.26779,-0.894138,-0.323849
1629370446281,-0.267729,-0.895236,-0.32391
1629370446290,-0.267851,-0.896151,-0.32391
1629370446300,-0.268644,-0.896639,-0.324947
1629370446309,-0.269132,-0.895663,-0.325923
1629370446319,-0.269193,-0.8970049999999999,-0.325618
1629370446329,-0.269498,-0.896761,-0.325252
1629370446338,-0.270108,-0.896883,-0.325984
1629370446348,-0.269742,-0.896212,-0.324581
1629370446357,-0.270352,-0.8957849999999999,-0.324398
1629370446367,-0.270413,-0.894626,-0.322812
1629370446377,-0.270657,-0.894321,-0.321775
1629370446386,-0.270779,-0.8939549999999999,-0.320372
1629370446396,-0.270291,-0.8948699999999999,-0.319762
1629370446405,-0.270779,-0.893772,-0.318786
1629370446415,-0.270596,-0.8936499999999999,-0.318664
1629370446425,-0.269742,-0.892796,-0.317749
1629370446434,-0.270596,-0.892308,-0.316956
1629370446444,-0.269376,-0.892918,-0.315553
1629370446453,-0.269986,-0.892064,-0.316224
1629370446463,-0.269376,-0.891576,-0.31707799999999997
1629370446473,-0.27083999999999997,-0.892003,-0.316224
1629370446482,-0.270108,-0.892796,-0.31829799999999997
1629370446492,-0.269498,-0.89243,-0.318359
1629370446501,-0.26931499999999997,-0.892918,-0.319091
1629370446511,-0.270352,-0.892979,-0.319152
1629370446521,-0.269254,-0.892857,-0.319945
1629370446530,-0.269376,-0.892674,-0.319335
1629370446540,-0.26961999999999997,-0.894077,-0.320067
1629370446549,-0.269803,-0.892369,-0.31982299999999997
1629370446559,-0.269986,-0.892857,-0.320494
1629370446569,-0.269803,-0.893284,-0.321287
1629370446578,-0.270108,-0.893467,-0.322385
1629370446588,-0.268949,-0.8939549999999999,-0.32226299999999997
1629370446597,-0.270291,-0.893711,-0.323239
1629370446607,-0.26870499999999997,-0.8942599999999999,-0.323727
1629370446617,-0.268949,-0.893345,-0.324642
1629370446626,-0.269254,-0.893467,-0.325984
1629370446636,-0.269193,-0.894321,-0.325862
1629370446645,-0.270047,-0.8945649999999999,-0.32635
1629370446655,-0.269193,-0.894199,-0.327204
1629370446665,-0.269132,-0.894504,-0.326716
1629370446674,-0.268888,-0.895114,-0.327326
1629370446684,-0.269559,-0.895724,-0.327509
1629370446693,-0.268888,-0.895297,-0.327204
1629370446703,-0.269498,-0.895053,-0.327448
1629370446713,-0.269254,-0.895236,-0.327082
1629370446722,-0.269681,-0.894443,-0.326289
1629370446732,-0.26839999999999997,-0.895968,-0.325801
1629370446741,-0.268644,-0.895114,-0.324886
1629370446751,-0.269864,-0.8954799999999999,-0.324398
1629370446761,-0.269864,-0.895968,-0.322812
1629370446770,-0.269071,-0.895724,-0.321531
1629370446780,-0.269193,-0.895358,-0.320799
1629370446789,-0.269681,-0.895724,-0.320494
1629370446799,-0.269437,-0.8954799999999999,-0.319335
1629370446809,-0.270962,-0.896578,-0.318115
1629370446818,-0.270352,-0.895968,-0.317444
1629370446828,-0.270108,-0.895724,-0.316834
1629370446837,-0.270962,-0.8957849999999999,-0.31598
1629370446847,-0.27144999999999997,-0.895114,-0.31476
1629370446857,-0.27175499999999997,-0.895541,-0.313174
1629370446866,-0.270718,-0.894748,-0.312015
1629370446876,-0.271206,-0.893894,-0.310917
1629370446885,-0.271206,-0.893528,-0.310612
1629370446895,-0.271328,-0.894199,-0.31049
1629370446905,-0.27144999999999997,-0.894382,-0.310978
1629370446914,-0.27083999999999997,-0.8942599999999999,-0.31049
1629370446924,-0.27053499999999997,-0.8939549999999999,-0.311344
1629370446933,-0.270657,-0.894016,-0.311649
1629370446943,-0.270474,-0.893467,-0.312808
1629370446953,-0.270596,-0.8936499999999999,-0.312991
