timestamp,ax,ay,az
1629370423008,-0.07110595703125,-0.15679931640625,0.97100830078125
1629370423008,-0.07147216796875,-0.1619873046875,0.974365234375
1629370423009,-0.07501220703125,-0.149169921875,0.97216796875
1629370423041,-0.06414794921875,-0.15087890625,1.00653076171875
1629370423046,-0.065185546875,-0.15789794921875,0.97906494140625
1629370423046,-0.06591796875,-0.15478515625,0.9951171875
1629370423199,-0.0692138671875,-0.13446044921875,1.001708984375
1629370423199,-0.06683349609375,-0.13958740234375,1.00640869140625
1629370423204,-0.0650634765625,-0.12493896484375,0.99200439453125
1629370423220,-0.067138671875,-0.12310791015625,0.98199462890625
1629370423220,-0.0716552734375,-0.1201171875,0.98895263671875
1629370423226,-0.06317138671875,-0.118408203125,0.98284912109375
1629370423229,-0.0723876953125,-0.11553955078125,0.9779052734375
1629370423230,-0.07476806640625,-0.12335205078125,0.9830322265625
1629370423235,-0.07086181640625,-0.1075439453125,0.974365234375
1629370423275,-0.0550537109375,-0.1181640625,0.98223876953125
1629370423276,-0.05987548828125,-0.1126708984375,0.96588134765625
1629370423277,-0.06805419921875,-0.1083984375,0.96624755859375
1629370423400,-0.0533447265625,-0.0994873046875,0.99139404296875
1629370423400,-0.054443359375,-0.11016845703125,0.9915771484375
1629370423400,-0.0531005859375,-0.12213134765625,0.98980712890625
1629370423402,-0.05841064453125,-0.120361328125,1.001708984375
1629370423411,-0.057373046875,-0.12255859375,0.9901123046875
1629370423412,-0.05914306640625,-0.12530517578125,0.9981689453125
1629370423448,-0.0516357421875,-0.06243896484375,0.99786376953125
1629370423450,-0.05499267578125,-0.06365966796875,0.99542236328125
1629370423450,-0.05108642578125,-0.07989501953125,0.98828125
1629370423497,-0.04632568359375,-0.072021484375,0.99786376953125
1629370423498,-0.0408935546875,-0.0780029296875,1.011474609375
1629370423500,-0.04412841796875,-0.07989501953125,1.0152587890625
1629370423720,-0.0472412109375,-0.08135986328125,1.01434326171875
1629370423720,-0.0443115234375,-0.0814208984375,1.0140380859375
1629370423724,-0.050048828125,-0.0745849609375,0.999267578125
1629370423769,-0.0577392578125,-0.08453369140625,0.99249267578125
1629370423772,-0.06170654296875,-0.09710693359375,0.9879150390625
1629370423773,-0.06756591796875,-0.10504150390625,0.98785400390625
1629370423793,-0.07733154296875,-0.11114501953125,0.993408203125
1629370423794,-0.078857421875,-0.11309814453125,0.99395751953125
1629370423795,-0.08441162109375,-0.11639404296875,0.98907470703125
1629370423827,-0.08203125,-0.11651611328125,0.975341796875
1629370423828,-0.07818603515625,-0.11773681640625,0.9676513671875
1629370423828,-0.07745361328125,-0.11907958984375,0.9725341796875
1629370423882,-0.07733154296875,-0.113525390625,0.977294921875
1629370423883,-0.07269287109375,-0.11114501953125,0.98773193359375
1629370423883,-0.07501220703125,-0.11102294921875,0.98406982421875
1629370423902,-0.070556640625,-0.1141357421875,0.984375
1629370423903,-0.06842041015625,-0.11419677734375,0.9857177734375
1629370423904,-0.06903076171875,-0.11468505859375,0.9849853515625
1629370423948,-0.066162109375,-0.1185302734375,0.982177734375
1629370423949,-0.06231689453125,-0.1207275390625,0.9871826171875
1629370423949,-0.06219482421875,-0.12066650390625,0.99285888671875
1629370423976,-0.0574951171875,-0.12164306640625,1.001220703125
1629370423977,-0.0601806640625,-0.1212158203125,0.99847412109375
1629370423978,-0.05975341796875,-0.11871337890625,0.997314453125
1629370424084,-0.064208984375,-0.10443115234375,0.990966796875
1629370424084,-0.06396484375,-0.11090087890625,0.99029541015625
1629370424085,-0.05889892578125,-0.11566162109375,0.99603271484375
1629370424123,-0.06573486328125,-0.0849609375,0.9849853515625
1629370424125,-0.06683349609375,-0.09521484375,0.98602294921875
1629370424126,-0.07025146484375,-0.1009521484375,0.98907470703125
1629370424170,-0.05206298828125,-0.091552734375,0.98583984375
1629370424170,-0.05340576171875,-0.0850830078125,0.98529052734375
1629370424170,-0.0611572265625,-0.0831298828125,0.9864501953125
1629370424248,-0.0517578125,-0.09503173828125,0.99578857421875
1629370424248,-0.054443359375,-0.09564208984375,0.9940185546875
1629370424249,-0.054931640625,-0.089111328125,0.9967041015625
1629370424264,-0.05218505859375,-0.07781982421875,0.98193359375
1629370424264,-0.05718994140625,-0.087158203125,0.99176025390625
1629370424264,-0.05029296875,-0.0772705078125,0.97637939453125
1629370424341,-0.046875,-0.0853271484375,0.98040771484375
1629370424341,-0.0474853515625,-0.11578369140625,1.00213623046875
1629370424341,-0.0462646484375,-0.10284423828125,0.9871826171875
1629370424373,-0.04888916015625,-0.1171875,1.01007080078125
1629370424374,-0.05010986328125,-0.10888671875,1.004638671875
1629370424374,-0.04681396484375,-0.11785888671875,1.00860595703125
1629370424468,-0.05145263671875,-0.07232666015625,0.98822021484375
1629370424470,-0.046875,-0.09613037109375,0.99554443359375
1629370424470,-0.04815673828125,-0.08319091796875,0.987548828125
1629370424515,-0.05328369140625,-0.06494140625,0.9927978515625
1629370424515,-0.05224609375,-0.064208984375,1.00177001953125
1629370424518,-0.0565185546875,-0.06634521484375,1.010498046875
1629370424546,-0.05914306640625,-0.0732421875,1.00164794921875
1629370424546,-0.0562744140625,-0.0755615234375,0.996337890625
1629370424547,-0.05926513671875,-0.064697265625,1.009765625
1629370424662,-0.05560302734375,-0.0843505859375,0.988037109375
1629370424662,-0.0560302734375,-0.079833984375,0.98907470703125
1629370424662,-0.05535888671875,-0.09002685546875,0.9874267578125
1629370424704,-0.058349609375,-0.1064453125,0.98919677734375
1629370424705,-0.06207275390625,-0.10235595703125,0.9873046875
1629370424705,-0.06298828125,-0.09405517578125,0.99053955078125
1629370424782,-0.06219482421875,-0.0980224609375,0.98638916015625
1629370424784,-0.06060791015625,-0.10369873046875,0.98681640625
1629370424784,-0.05694580078125,-0.11053466796875,0.98773193359375
1629370424784,-0.058349609375,-0.0899658203125,0.98681640625
1629370424785,-0.0621337890625,-0.0908203125,0.98223876953125
1629370424792,-0.06097412109375,-0.10858154296875,0.986328125
1629370424859,-0.0574951171875,-0.09295654296875,0.98602294921875
1629370424860,-0.05816650390625,-0.08843994140625,0.98516845703125
1629370424860,-0.05181884765625,-0.08740234375,0.9903564453125
1629370424952,-0.04193115234375,-0.10052490234375,1.004638671875
1629370424953,-0.0467529296875,-0.09234619140625,0.99310302734375
1629370424957,-0.0472412109375,-0.092041015625,1.00067138671875
1629370424959,-0.040283203125,-0.09716796875,1.003662109375
1629370424960,-0.04437255859375,-0.0933837890625,1.002685546875
1629370424967,-0.0394287109375,-0.09674072265625,1.0013427734375
1629370425015,-0.0418701171875,-0.09906005859375,1.00347900390625
1629370425019,-0.04620361328125,-0.109375,0.99639892578125
1629370425019,-0.04876708984375,-0.10406494140625,1.00274658203125
1629370425097,-0.0472412109375,-0.11260986328125,0.98870849609375
1629370425098,-0.0548095703125,-0.11395263671875,0.9881591796875
1629370425106,-0.05023193359375,-0.11163330078125,0.99456787109375
1629370425142,-0.0579833984375,-0.11181640625,0.98492431640625
1629370425142,-0.05950927734375,-0.11273193359375,0.98370361328125
1629370425144,-0.056396484375,-0.11053466796875,0.98291015625
1629370425256,-0.0621337890625,-0.111572265625,0.982666015625
1629370425258,-0.06072998046875,-0.1123046875,0.98358154296875
1629370425286,-0.05877685546875,-0.11053466796875,0.98785400390625
1629370425286,-0.06402587890625,-0.11248779296875,0.983642578125
1629370425301,-0.06085205078125,-0.10888671875,0.9886474609375
1629370425386,-0.054931640625,-0.1134033203125,0.994873046875
1629370425386,-0.05621337890625,-0.10516357421875,0.98907470703125
1629370425464,-0.0516357421875,-0.11163330078125,0.9959716796875
1629370425464,-0.05633544921875,-0.10980224609375,0.99139404296875
1629370425501,-0.05596923828125,-0.10614013671875,0.9901123046875
1629370425503,-0.0565185546875,-0.1025390625,0.99517822265625
1629370425505,-0.0540771484375,-0.09912109375,0.995361328125
1629370425533,-0.06011962890625,-0.097900390625,0.99603271484375
1629370425534,-0.06011962890625,-0.0986328125,0.99505615234375
1629370425535,-0.05889892578125,-0.0965576171875,0.9910888671875
1629370425567,-0.06060791015625,-0.09716796875,0.99169921875
1629370425567,-0.06072998046875,-0.09417724609375,0.99468994140625
1629370425568,-0.06280517578125,-0.0924072265625,0.9940185546875
1629370425637,-0.0628662109375,-0.08740234375,0.99017333984375
1629370425640,-0.05926513671875,-0.08782958984375,0.99114990234375
1629370425641,-0.0625,-0.0860595703125,0.9837646484375
1629370425724,-0.06781005859375,-0.08740234375,0.98345947265625
1629370425724,-0.06268310546875,-0.089599609375,0.98541259765625
1629370425724,-0.0638427734375,-0.0859375,0.98193359375
1629370425758,-0.05328369140625,-0.091796875,0.99664306640625
1629370425758,-0.05780029296875,-0.09161376953125,0.98785400390625
1629370425758,-0.0538330078125,-0.09478759765625,0.99114990234375
1629370425787,-0.04888916015625,-0.0860595703125,0.99609375
1629370425789,-0.05303955078125,-0.09075927734375,0.99798583984375
1629370425790,-0.0513916015625,-0.08636474609375,1.0
1629370425873,-0.05194091796875,-0.088134765625,1.00164794921875
1629370425873,-0.04888916015625,-0.0885009765625,0.99920654296875
1629370425874,-0.04693603515625,-0.084716796875,0.99798583984375
1629370425957,-0.0523681640625,-0.08544921875,0.99853515625
1629370425957,-0.052490234375,-0.091796875,0.9935302734375
1629370425958,-0.05096435546875,-0.08502197265625,1.000732421875
1629370425988,-0.05572509765625,-0.0986328125,0.99066162109375
1629370425989,-0.0531005859375,-0.092041015625,0.99188232421875
1629370425994,-0.05731201171875,-0.0963134765625,0.98980712890625
1629370426050,-0.05511474609375,-0.10162353515625,0.98974609375
1629370426050,-0.054931640625,-0.1019287109375,0.9896240234375
1629370426050,-0.05096435546875,-0.10345458984375,0.992431640625
1629370426106,-0.05389404296875,-0.10186767578125,0.990966796875
1629370426108,-0.0528564453125,-0.10418701171875,0.99273681640625
1629370426112,-0.04931640625,-0.099365234375,0.99017333984375
1629370426168,-0.048095703125,-0.10113525390625,0.98919677734375
1629370426168,-0.0452880859375,-0.09906005859375,0.99053955078125
1629370426183,-0.05010986328125,-0.10308837890625,0.98944091796875
1629370426198,-0.0418701171875,-0.0943603515625,0.98663330078125
1629370426211,-0.04412841796875,-0.09698486328125,0.99249267578125
1629370426216,-0.044677734375,-0.09619140625,0.99176025390625
1629370426325,-0.04473876953125,-0.095703125,0.9957275390625
1629370426326,-0.04071044921875,-0.09552001953125,0.9952392578125
1629370426326,-0.0423583984375,-0.09393310546875,0.99627685546875
1629370426499,-0.03826904296875,-0.09869384765625,0.9957275390625
1629370426499,-0.04388427734375,-0.09429931640625,0.994873046875
1629370426499,-0.0390625,-0.09661865234375,0.994873046875
1629370426513,-0.0374755859375,-0.0989990234375,0.99188232421875
1629370426513,-0.03704833984375,-0.09814453125,0.9945068359375
1629370426530,-0.03662109375,-0.10089111328125,0.99969482421875
1629370426530,-0.03662109375,-0.09295654296875,0.99273681640625
1629370426532,-0.03521728515625,-0.09783935546875,0.998046875
1629370426532,-0.03790283203125,-0.09588623046875,0.99359130859375
1629370426533,-0.03765869140625,-0.0946044921875,0.99957275390625
1629370426533,-0.0384521484375,-0.09881591796875,0.99566650390625
1629370426535,-0.03546142578125,-0.0972900390625,0.9942626953125
1629370426619,-0.03564453125,-0.09130859375,0.9974365234375
1629370426620,-0.0362548828125,-0.09246826171875,0.99658203125
1629370426622,-0.03790283203125,-0.09185791015625,0.99554443359375
1629370426664,-0.03912353515625,-0.0931396484375,0.99725341796875
1629370426667,-0.03857421875,-0.08941650390625,0.998046875
1629370426669,-0.03753662109375,-0.089111328125,0.99481201171875
1629370426729,-0.036865234375,-0.0919189453125,0.99200439453125
1629370426730,-0.0452880859375,-0.08990478515625,0.9912109375
1629370426730,-0.0401611328125,-0.09173583984375,0.994384765625
1629370426778,-0.0382080078125,-0.09356689453125,0.9925537109375
1629370426780,-0.04376220703125,-0.09326171875,0.99237060546875
1629370426781,-0.04608154296875,-0.093017578125,0.99603271484375
1629370426798,-0.04156494140625,-0.0885009765625,0.99273681640625
1629370426799,-0.04296875,-0.0919189453125,0.99383544921875
1629370426800,-0.04571533203125,-0.09051513671875,0.99700927734375
1629370426855,-0.0435791015625,-0.08966064453125,0.99420166015625
1629370426855,-0.04522705078125,-0.09039306640625,0.9945068359375
1629370426856,-0.042236328125,-0.09063720703125,0.99346923828125
1629370427004,-0.0435791015625,-0.08636474609375,0.99554443359375
1629370427004,-0.04217529296875,-0.09039306640625,0.99322509765625
1629370427004,-0.04547119140625,-0.0916748046875,0.9931640625
1629370427119,-0.045166015625,-0.0892333984375,0.99407958984375
1629370427119,-0.0487060546875,-0.0914306640625,0.99224853515625
1629370427120,-0.0418701171875,-0.0882568359375,0.995361328125
1629370427172,-0.044677734375,-0.0989990234375,0.99176025390625
1629370427173,-0.04571533203125,-0.0963134765625,0.99212646484375
1629370427174,-0.04443359375,-0.08978271484375,0.994384765625
1629370427177,-0.04571533203125,-0.09710693359375,0.9942626953125
1629370427180,-0.04608154296875,-0.09625244140625,0.9940185546875
1629370427180,-0.04327392578125,-0.09466552734375,0.991455078125
1629370427236,-0.0416259765625,-0.09649658203125,0.99383544921875
1629370427237,-0.0419921875,-0.097900390625,0.99395751953125
1629370427237,-0.0426025390625,-0.0968017578125,0.9910888671875
1629370427298,-0.03924560546875,-0.0955810546875,0.990966796875
1629370427301,-0.0430908203125,-0.09375,0.98980712890625
1629370427303,-0.0399169921875,-0.09661865234375,0.98956298828125
1629370427358,-0.04156494140625,-0.09552001953125,0.99359130859375
1629370427360,-0.0421142578125,-0.098388671875,0.9949951171875
1629370427368,-0.0435791015625,-0.09625244140625,0.99407958984375
1629370427403,-0.04052734375,-0.09625244140625,0.99456787109375
1629370427404,-0.04345703125,-0.09619140625,0.99365234375
1629370427408,-0.04022216796875,-0.09417724609375,0.99462890625
1629370427455,-0.042724609375,-0.09808349609375,0.99237060546875
1629370427456,-0.04083251953125,-0.09539794921875,0.99267578125
1629370427456,-0.04595947265625,-0.09625244140625,0.99200439453125
1629370427569,-0.04730224609375,-0.095458984375,0.99267578125
1629370427576,-0.0447998046875,-0.103515625,0.9952392578125
1629370427578,-0.0438232421875,-0.1016845703125,0.99786376953125
1629370427610,-0.0469970703125,-0.10101318359375,0.99462890625
1629370427616,-0.047119140625,-0.09857177734375,0.99627685546875
1629370427618,-0.046142578125,-0.09808349609375,0.99554443359375
1629370427664,-0.04718017578125,-0.09393310546875,0.99273681640625
1629370427665,-0.04571533203125,-0.09600830078125,0.99346923828125
1629370427667,-0.04632568359375,-0.09747314453125,0.99560546875
1629370427771,-0.051513671875,-0.09466552734375,0.98895263671875
1629370427772,-0.05206298828125,-0.093017578125,0.9942626953125
1629370427773,-0.0478515625,-0.09552001953125,0.99639892578125
1629370427817,-0.04364013671875,-0.09307861328125,0.9862060546875
1629370427818,-0.04876708984375,-0.09588623046875,0.98614501953125
1629370427819,-0.05377197265625,-0.09967041015625,0.98651123046875
1629370427822,-0.05120849609375,-0.09808349609375,0.98486328125
1629370427825,-0.0496826171875,-0.093994140625,0.984375
1629370427828,-0.05230712890625,-0.0941162109375,0.9891357421875
1629370427849,-0.04132080078125,-0.0877685546875,0.990478515625
1629370427849,-0.0377197265625,-0.0859375,0.99945068359375
1629370427850,-0.0391845703125,-0.08740234375,0.994873046875
1629370427890,-0.03466796875,-0.0880126953125,1.0
1629370427890,-0.03143310546875,-0.084228515625,0.9996337890625
1629370427890,-0.029052734375,-0.08172607421875,0.99920654296875
1629370428050,-0.02996826171875,-0.08612060546875,0.99810791015625
1629370428065,-0.02996826171875,-0.0897216796875,0.99468994140625
1629370428065,-0.032470703125,-0.08941650390625,0.994384765625
1629370428121,-0.03424072265625,-0.09686279296875,0.98724365234375
1629370428122,-0.03680419921875,-0.09423828125,0.98956298828125
1629370428205,-0.0313720703125,-0.09527587890625,0.99298095703125
1629370428205,-0.03076171875,-0.0943603515625,0.9918212890625
1629370428252,-0.03472900390625,-0.0946044921875,1.0037841796875
1629370428252,-0.03106689453125,-0.09307861328125,1.00885009765625
1629370428263,-0.0291748046875,-0.09735107421875,0.99786376953125
1629370428352,-0.0484619140625,-0.09234619140625,0.98895263671875
1629370428352,-0.04156494140625,-0.09039306640625,0.994140625
1629370428352,-0.03955078125,-0.0946044921875,1.00286865234375
1629370428353,-0.03643798828125,-0.09027099609375,1.00469970703125
1629370428354,-0.033447265625,-0.0914306640625,1.00543212890625
1629370428355,-0.0299072265625,-0.09381103515625,1.0103759765625
1629370428453,-0.0601806640625,-0.09722900390625,0.9888916015625
1629370428463,-0.05267333984375,-0.09466552734375,0.98858642578125
1629370428463,-0.0567626953125,-0.0965576171875,0.98736572265625
1629370428467,-0.056640625,-0.09893798828125,0.98846435546875
1629370428467,-0.05914306640625,-0.09991455078125,0.9842529296875
1629370428468,-0.06268310546875,-0.10089111328125,0.98443603515625
1629370428608,-0.0596923828125,-0.09356689453125,0.98321533203125
1629370428608,-0.0604248046875,-0.0933837890625,0.9803466796875
1629370428633,-0.05975341796875,-0.09527587890625,0.984619140625
1629370428780,-0.05474853515625,-0.0899658203125,0.98193359375
1629370428780,-0.0538330078125,-0.0848388671875,0.98736572265625
1629370428781,-0.0511474609375,-0.085205078125,0.99005126953125
1629370428831,-0.0389404296875,-0.0736083984375,0.99993896484375
1629370428844,-0.03326416015625,-0.07647705078125,1.001708984375
1629370428844,-0.03741455078125,-0.07794189453125,1.00384521484375
1629370428846,-0.04339599609375,-0.0794677734375,0.9959716796875
1629370428847,-0.0462646484375,-0.0806884765625,0.99365234375
1629370428847,-0.03118896484375,-0.0733642578125,1.00244140625
1629370428961,-0.0322265625,-0.0740966796875,1.0
1629370428966,-0.03173828125,-0.0743408203125,1.0028076171875
1629370428967,-0.03564453125,-0.07373046875,1.00079345703125
1629370428976,-0.03216552734375,-0.07611083984375,0.99560546875
1629370428976,-0.032470703125,-0.0728759765625,0.99627685546875
1629370428977,-0.0302734375,-0.072265625,0.99517822265625
1629370429000,-0.0350341796875,-0.07781982421875,0.99603271484375
1629370429002,-0.03509521484375,-0.08050537109375,0.99365234375
1629370429003,-0.0335693359375,-0.08172607421875,0.99481201171875
1629370429057,-0.0321044921875,-0.07952880859375,0.99261474609375
1629370429058,-0.03558349609375,-0.08221435546875,0.99371337890625
1629370429059,-0.03497314453125,-0.0859375,0.9932861328125
1629370429190,-0.03436279296875,-0.0845947265625,0.99468994140625
1629370429191,-0.037353515625,-0.085205078125,0.9952392578125
1629370429201,-0.03460693359375,-0.0853271484375,0.99810791015625
1629370429204,-0.03472900390625,-0.0863037109375,0.9932861328125
1629370429204,-0.03704833984375,-0.0838623046875,0.9974365234375
1629370429212,-0.037109375,-0.0838623046875,0.99578857421875
1629370429219,-0.037353515625,-0.0858154296875,0.99822998046875
1629370429219,-0.034423828125,-0.09014892578125,0.996337890625
1629370429219,-0.03875732421875,-0.0848388671875,0.99493408203125
1629370429268,-0.0400390625,-0.08935546875,0.99737548828125
1629370429270,-0.0364990234375,-0.088134765625,0.99462890625
1629370429271,-0.0406494140625,-0.08990478515625,0.99627685546875
1629370429329,-0.0411376953125,-0.092529296875,0.993408203125
1629370429330,-0.0406494140625,-0.09405517578125,0.99298095703125
1629370429332,-0.0401611328125,-0.0943603515625,0.9937744140625
1629370429369,-0.03924560546875,-0.09857177734375,0.99761962890625
1629370429370,-0.0423583984375,-0.09686279296875,0.994140625
1629370429372,-0.04132080078125,-0.095703125,0.99298095703125
1629370429434,-0.04248046875,-0.0948486328125,0.98968505859375
1629370429435,-0.04296875,-0.08978271484375,0.99212646484375
1629370429438,-0.03875732421875,-0.09210205078125,0.99066162109375
1629370429490,-0.036376953125,-0.08709716796875,0.99285888671875
1629370429491,-0.03765869140625,-0.0870361328125,0.99029541015625
1629370429493,-0.03570556640625,-0.08648681640625,0.99212646484375
1629370429507,-0.03887939453125,-0.08642578125,0.99322509765625
1629370429510,-0.03466796875,-0.08575439453125,0.99615478515625
1629370429511,-0.0361328125,-0.08349609375,0.9937744140625
1629370429544,-0.03558349609375,-0.08184814453125,0.998291015625
1629370429546,-0.03265380859375,-0.08697509765625,0.99298095703125
1629370429547,-0.0330810546875,-0.0904541015625,0.9951171875
1629370429564,-0.0323486328125,-0.0867919921875,0.99676513671875
1629370429565,-0.03350830078125,-0.0838623046875,0.9981689453125
1629370429566,-0.03485107421875,-0.0843505859375,0.99774169921875
1629370429612,-0.033447265625,-0.08770751953125,0.99969482421875
1629370429613,-0.0325927734375,-0.0869140625,0.99957275390625
1629370429614,-0.03057861328125,-0.08416748046875,1.00006103515625
1629370429631,-0.0279541015625,-0.0810546875,0.99615478515625
1629370429632,-0.02923583984375,-0.082763671875,0.99359130859375
1629370429633,-0.03057861328125,-0.08502197265625,0.9969482421875
1629370429667,-0.035888671875,-0.08477783203125,0.9952392578125
1629370429668,-0.0318603515625,-0.0850830078125,0.9954833984375
1629370429668,-0.0389404296875,-0.0865478515625,0.9931640625
1629370429703,-0.03680419921875,-0.0880126953125,0.99346923828125
1629370429703,-0.0352783203125,-0.0899658203125,0.99212646484375
1629370429704,-0.03546142578125,-0.08502197265625,0.99224853515625
1629370429867,-0.03497314453125,-0.08837890625,0.99224853515625
1629370429867,-0.0367431640625,-0.09002685546875,0.99127197265625
1629370429867,-0.038818359375,-0.08990478515625,0.992431640625
1629370429929,-0.03271484375,-0.077392578125,0.988037109375
1629370429930,-0.04254150390625,-0.07440185546875,0.99212646484375
1629370429934,-0.03558349609375,-0.08978271484375,0.99481201171875
1629370429935,-0.0443115234375,-0.077880859375,0.99468994140625
1629370429938,-0.03558349609375,-0.086181640625,0.99163818359375
1629370429938,-0.03765869140625,-0.084228515625,0.98590087890625
1629370429946,-0.05609130859375,-0.0750732421875,0.99688720703125
1629370429947,-0.0469970703125,-0.0736083984375,0.99755859375
1629370429953,-0.0594482421875,-0.0733642578125,0.98126220703125
1629370430059,-0.05181884765625,-0.05474853515625,0.96099853515625
1629370430060,-0.03472900390625,-0.04180908203125,0.95526123046875
1629370430062,-0.02490234375,-0.03973388671875,0.97711181640625
1629370430082,-0.0260009765625,-0.05255126953125,1.00225830078125
1629370430083,-0.02294921875,-0.07061767578125,1.0177001953125
1629370430084,-0.0194091796875,-0.08477783203125,1.00701904296875
1629370430244,-0.02239990234375,-0.08831787109375,0.9998779296875
1629370430246,-0.01611328125,-0.083251953125,0.9840087890625
1629370430247,-0.01409912109375,-0.08453369140625,0.97711181640625
1629370430277,-0.01641845703125,-0.09149169921875,0.9815673828125
1629370430279,-0.02020263671875,-0.09600830078125,0.99041748046875
1629370430280,-0.031982421875,-0.0921630859375,1.005615234375
1629370430354,-0.04071044921875,-0.07843017578125,1.006103515625
1629370430356,-0.04425048828125,-0.07183837890625,0.98431396484375
1629370430358,-0.043701171875,-0.0709228515625,0.93914794921875
1629370430391,-0.00885009765625,-0.10980224609375,0.8736572265625
1629370430394,0.02490234375,-0.13031005859375,0.8934326171875
1629370430395,-0.0299072265625,-0.0870361328125,0.896728515625
1629370430442,0.06158447265625,-0.14080810546875,0.9500732421875
1629370430445,0.09149169921875,-0.147705078125,0.998291015625
1629370430446,0.117431640625,-0.15203857421875,1.01373291015625
1629370430465,0.14764404296875,-0.1531982421875,1.0120849609375
1629370430466,0.173583984375,-0.154052734375,1.014892578125
1629370430469,0.19476318359375,-0.14202880859375,1.03094482421875
1629370430522,0.20623779296875,-0.12322998046875,1.04840087890625
1629370430524,0.20550537109375,-0.112060546875,1.054443359375
1629370430526,0.2039794921875,-0.1094970703125,1.03546142578125
1629370430561,0.20587158203125,-0.0986328125,0.9969482421875
1629370430561,0.20367431640625,-0.10546875,1.003173828125
1629370430562,0.2135009765625,-0.08740234375,0.99639892578125
1629370430734,0.21331787109375,-0.08074951171875,1.003173828125
1629370430735,0.21588134765625,-0.0570068359375,1.000244140625
1629370430735,0.21533203125,-0.06787109375,1.00604248046875
1629370430800,0.219482421875,-0.06207275390625,0.981201171875
1629370430800,0.22344970703125,-0.0626220703125,0.98431396484375
1629370430801,0.2197265625,-0.058837890625,0.98846435546875
1629370430894,0.22747802734375,-0.02734375,1.00592041015625
1629370430894,0.22265625,-0.04473876953125,0.9969482421875
1629370430902,0.221923828125,-0.05596923828125,0.987548828125
1629370430911,0.22808837890625,-0.00836181640625,1.00360107421875
1629370430912,0.2171630859375,0.0040283203125,1.007080078125
1629370430914,0.206298828125,0.0093994140625,1.00799560546875
1629370430951,0.20361328125,0.01531982421875,1.0037841796875
1629370430953,0.1932373046875,0.01885986328125,1.00360107421875
1629370430955,0.16497802734375,0.0184326171875,0.95172119140625
1629370431034,0.1693115234375,0.0350341796875,1.0008544921875
1629370431035,0.16827392578125,0.00946044921875,0.9884033203125
1629370431036,0.17254638671875,-0.0032958984375,0.98291015625
1629370431078,0.17010498046875,-0.0628662109375,0.99066162109375
1629370431078,0.1754150390625,-0.02630615234375,0.99310302734375
1629370431079,0.171142578125,-0.08026123046875,0.99432373046875
1629370431099,0.16680908203125,-0.08856201171875,0.99896240234375
1629370431100,0.1607666015625,-0.0777587890625,0.99359130859375
1629370431101,0.1549072265625,-0.0792236328125,0.9945068359375
1629370431134,0.15728759765625,-0.06689453125,1.00360107421875
1629370431135,0.1553955078125,-0.06134033203125,0.98870849609375
1629370431136,0.1533203125,-0.06591796875,0.98284912109375
1629370431181,0.15576171875,-0.0687255859375,0.97088623046875
1629370431182,0.15386962890625,-0.065673828125,0.9674072265625
1629370431185,0.15924072265625,-0.07012939453125,0.9669189453125
1629370431310,0.16888427734375,-0.10015869140625,0.9669189453125
1629370431312,0.162353515625,-0.0787353515625,0.96734619140625
1629370431312,0.15924072265625,-0.065673828125,0.96966552734375
1629370431377,0.169677734375,-0.09234619140625,0.9632568359375
1629370431377,0.18255615234375,-0.069091796875,0.975830078125
1629370431377,0.19287109375,-0.0452880859375,0.98846435546875
1629370431391,0.19866943359375,-0.02081298828125,0.99493408203125
1629370431395,0.19268798828125,-0.038330078125,0.99505615234375
1629370431396,0.19659423828125,-0.0257568359375,0.9970703125
1629370431554,0.2010498046875,-0.00970458984375,0.99713134765625
1629370431555,0.2064208984375,-0.0113525390625,1.00006103515625
1629370431556,0.2080078125,-0.00592041015625,1.0015869140625
1629370431576,0.20751953125,-0.0223388671875,0.988037109375
1629370431578,0.20648193359375,-0.017333984375,0.98980712890625
1629370431579,0.207275390625,-0.0029296875,0.996337890625
1629370431703,0.19964599609375,-0.01556396484375,0.99493408203125
1629370431703,0.19989013671875,-0.0093994140625,0.9986572265625
1629370431703,0.1993408203125,-0.01434326171875,0.990234375
1629370431755,0.1973876953125,-0.0067138671875,0.98321533203125
1629370431758,0.19683837890625,-0.00506591796875,0.9937744140625
1629370431770,0.19378662109375,-0.0167236328125,0.981201171875
1629370431782,0.1800537109375,-0.03125,0.97723388671875
1629370431782,0.18316650390625,-0.025146484375,0.9825439453125
1629370431784,0.18719482421875,-0.025146484375,0.9765625
1629370431813,0.184814453125,-0.03546142578125,0.98455810546875
1629370431814,0.18896484375,-0.03399658203125,0.98480224609375
1629370431815,0.18304443359375,-0.02508544921875,0.98760986328125
1629370431968,0.1826171875,-0.02081298828125,0.989013671875
1629370431969,0.18670654296875,-0.02764892578125,0.98504638671875
1629370431970,0.186279296875,-0.0340576171875,0.98822021484375
1629370432114,0.19024658203125,-0.03057861328125,0.99365234375
1629370432117,0.18878173828125,-0.0184326171875,1.00018310546875
1629370432118,0.18719482421875,-0.0191650390625,0.99761962890625
1629370432188,0.19488525390625,-0.03265380859375,0.9910888671875
1629370432193,0.19091796875,-0.0362548828125,0.99066162109375
1629370432194,0.18975830078125,-0.0255126953125,0.98614501953125
1629370432196,0.188232421875,-0.02276611328125,0.99139404296875
1629370432196,0.19451904296875,-0.05584716796875,0.9908447265625
1629370432210,0.1884765625,-0.053955078125,0.99053955078125
1629370432276,0.1949462890625,-0.02667236328125,0.99029541015625
1629370432278,0.19940185546875,-0.02880859375,0.9866943359375
1629370432280,0.18988037109375,-0.02001953125,0.985595703125
1629370432310,0.1915283203125,-0.0390625,0.98077392578125
1629370432310,0.1900634765625,-0.03326416015625,0.985107421875
1629370432311,0.185791015625,-0.0450439453125,0.9736328125
1629370432365,0.180908203125,-0.0401611328125,0.9691162109375
1629370432366,0.18072509765625,-0.04376220703125,0.9705810546875
1629370432367,0.18194580078125,-0.0440673828125,0.97821044921875
1629370432385,0.196044921875,-0.03521728515625,0.99261474609375
1629370432388,0.19732666015625,-0.03759765625,0.99468994140625
1629370432389,0.1943359375,-0.0185546875,0.9830322265625
1629370432540,0.20013427734375,-0.01220703125,0.9912109375
1629370432542,0.19268798828125,-0.01336669921875,0.97930908203125
1629370432545,0.19873046875,-0.00439453125,0.99017333984375
1629370432567,0.20989990234375,-0.00909423828125,0.99493408203125
1629370432567,0.2156982421875,-0.01708984375,1.00250244140625
1629370432567,0.2005615234375,-0.00274658203125,0.99212646484375
1629370432610,0.2203369140625,-0.02581787109375,0.99578857421875
1629370432613,0.21649169921875,-0.03955078125,0.99407958984375
1629370432614,0.21435546875,-0.04205322265625,0.9951171875
1629370432654,0.21051025390625,-0.03778076171875,0.99346923828125
1629370432656,0.207275390625,-0.05047607421875,0.98211669921875
1629370432658,0.20416259765625,-0.02410888671875,0.984619140625
1629370432678,0.2039794921875,-0.02685546875,0.97796630859375
1629370432679,0.19659423828125,-0.02325439453125,0.9783935546875
1629370432680,0.199462890625,-0.01416015625,0.98760986328125
1629370432718,0.19366455078125,-0.018798828125,0.98431396484375
1629370432720,0.1923828125,-0.0198974609375,0.98175048828125
1629370432722,0.1851806640625,-0.02069091796875,0.97894287109375
1629370432773,0.18572998046875,-0.02227783203125,0.98541259765625
1629370432775,0.1839599609375,-0.037109375,0.9862060546875
1629370432776,0.18048095703125,-0.04132080078125,0.98321533203125
1629370432793,0.182861328125,-0.037353515625,0.97882080078125
1629370432794,0.1845703125,-0.03912353515625,0.98779296875
1629370432794,0.1845703125,-0.0357666015625,0.984130859375
1629370432811,0.18499755859375,-0.03692626953125,0.9853515625
1629370432812,0.183837890625,-0.0250244140625,0.9891357421875
1629370432815,0.18487548828125,-0.01812744140625,0.989013671875
1629370432887,0.19207763671875,-0.0526123046875,0.98822021484375
1629370432887,0.19281005859375,-0.033203125,0.9854736328125
1629370432906,0.18817138671875,-0.02130126953125,0.987060546875
1629370433023,0.2034912109375,-0.01605224609375,0.99652099609375
1629370433023,0.2020263671875,-0.01177978515625,0.99365234375
1629370433025,0.19488525390625,-0.0594482421875,0.98468017578125
1629370433026,0.2003173828125,-0.02166748046875,0.9891357421875
1629370433029,0.1981201171875,-0.0413818359375,0.98382568359375
1629370433034,0.197265625,-0.05352783203125,0.98260498046875
1629370433088,0.20635986328125,-0.0506591796875,0.99285888671875
1629370433088,0.2083740234375,-0.03485107421875,0.9923095703125
1629370433089,0.2083740234375,-0.02252197265625,0.9990234375
1629370433120,0.20440673828125,-0.04888916015625,0.98394775390625
1629370433122,0.19622802734375,-0.039306640625,0.98193359375
1629370433124,0.19287109375,-0.0419921875,0.981689453125
1629370433184,0.193359375,-0.02197265625,0.9813232421875
1629370433185,0.18402099609375,-0.0120849609375,0.98272705078125
1629370433186,0.18487548828125,0.00152587890625,0.9786376953125
1629370433231,0.17657470703125,0.01043701171875,0.97369384765625
1629370433232,0.17962646484375,0.0260009765625,0.95892333984375
1629370433233,0.1751708984375,0.034423828125,0.9683837890625
1629370433252,0.17645263671875,0.02313232421875,0.96783447265625
1629370433253,0.173095703125,0.01617431640625,0.96490478515625
1629370433254,0.17779541015625,0.01055908203125,0.9654541015625
1629370433354,0.18499755859375,0.00933837890625,0.9610595703125
1629370433354,0.17828369140625,0.0089111328125,0.9658203125
1629370433357,0.19512939453125,-0.001220703125,0.954345703125
1629370433421,0.21282958984375,-0.01171875,0.96539306640625
1629370433421,0.23590087890625,0.0206298828125,1.00714111328125
1629370433421,0.22698974609375,0.00860595703125,0.98553466796875
1629370433456,0.25152587890625,0.03857421875,0.9993896484375
1629370433457,0.24560546875,0.02008056640625,1.00994873046875
1629370433460,0.24835205078125,0.01995849609375,1.00506591796875
1629370433603,0.2528076171875,0.04400634765625,0.99395751953125
1629370433604,0.25048828125,0.04302978515625,0.989013671875
1629370433607,0.255615234375,0.04833984375,0.99200439453125
1629370433671,0.251953125,0.05609130859375,0.99530029296875
1629370433673,0.25238037109375,0.063720703125,0.99346923828125
1629370433675,0.25262451171875,0.0716552734375,0.98919677734375
1629370433727,0.2530517578125,0.0887451171875,0.98468017578125
1629370433728,0.2452392578125,0.1014404296875,0.986083984375
1629370433729,0.242919921875,0.10833740234375,0.98687744140625
1629370433759,0.23748779296875,0.164794921875,0.93695068359375
1629370433763,0.22955322265625,0.11669921875,0.9586181640625
1629370433764,0.23175048828125,0.1092529296875,0.97491455078125
1629370433811,0.232421875,0.10211181640625,0.965087890625
1629370433812,0.24273681640625,0.08648681640625,0.96649169921875
1629370433813,0.24310302734375,0.05322265625,0.97833251953125
1629370433864,0.24945068359375,0.03228759765625,0.9742431640625
1629370433865,0.25384521484375,0.05548095703125,0.97857666015625
1629370433866,0.25079345703125,0.0589599609375,0.98553466796875
1629370433881,0.25701904296875,0.08062744140625,0.98687744140625
1629370433882,0.2547607421875,0.083984375,0.98187255859375
1629370433883,0.25469970703125,0.0819091796875,0.97332763671875
1629370433919,0.25018310546875,0.0653076171875,0.96673583984375
1629370433920,0.251220703125,0.06707763671875,0.9678955078125
1629370433921,0.25506591796875,0.07537841796875,0.9686279296875
1629370433943,0.2520751953125,0.05413818359375,0.97076416015625
1629370433944,0.25726318359375,0.0614013671875,0.97113037109375
1629370433945,0.2623291015625,0.05999755859375,0.9713134765625
1629370433991,0.26385498046875,0.0557861328125,0.97149658203125
1629370433992,0.26727294921875,0.05670166015625,0.970947265625
1629370433993,0.267822265625,0.07012939453125,0.9786376953125
1629370434010,0.265625,0.0751953125,0.9757080078125
1629370434011,0.26641845703125,0.0858154296875,0.97509765625
1629370434012,0.27337646484375,0.09027099609375,0.972412109375
1629370434042,0.271240234375,0.08447265625,0.9732666015625
1629370434044,0.2724609375,0.083740234375,0.97357177734375
1629370434045,0.26751708984375,0.0926513671875,0.97540283203125
1629370434065,0.27197265625,0.08880615234375,0.9761962890625
1629370434066,0.2738037109375,0.09234619140625,0.973388671875
1629370434067,0.27410888671875,0.09619140625,0.97412109375
1629370434281,0.2703857421875,0.08770751953125,0.97357177734375
1629370434301,0.26580810546875,0.0653076171875,0.9686279296875
1629370434301,0.26519775390625,0.05621337890625,0.96575927734375
1629370434316,0.263916015625,0.06805419921875,0.979248046875
1629370434318,0.2691650390625,0.06304931640625,0.9703369140625
1629370434318,0.262939453125,0.05810546875,0.96942138671875
1629370434360,0.25836181640625,0.069580078125,0.96697998046875
1629370434361,0.25177001953125,0.07696533203125,0.96856689453125
1629370434366,0.2569580078125,0.0711669921875,0.97686767578125
1629370434424,0.25079345703125,0.06939697265625,0.9638671875
1629370434424,0.25030517578125,0.0731201171875,0.9686279296875
1629370434425,0.248291015625,0.07269287109375,0.96697998046875
1629370434489,0.251953125,0.0758056640625,0.9708251953125
1629370434491,0.25634765625,0.07659912109375,0.9708251953125
1629370434493,0.25921630859375,0.07623291015625,0.97454833984375
1629370434515,0.2611083984375,0.0843505859375,0.9830322265625
1629370434516,0.2642822265625,0.0926513671875,0.98187255859375
1629370434517,0.2579345703125,0.099853515625,0.98291015625
1629370434537,0.2608642578125,0.10626220703125,0.9781494140625
1629370434538,0.25775146484375,0.10565185546875,0.97637939453125
1629370434539,0.260498046875,0.099609375,0.96929931640625
1629370434572,0.26251220703125,0.07818603515625,0.9700927734375
1629370434573,0.26068115234375,0.05499267578125,0.96746826171875
1629370434575,0.25909423828125,0.05517578125,0.96783447265625
1629370434739,0.25933837890625,0.05548095703125,0.97296142578125
1629370434739,0.26251220703125,0.06927490234375,0.97509765625
1629370434739,0.26080322265625,0.05712890625,0.97161865234375
1629370434754,0.26495361328125,0.08380126953125,0.97454833984375
1629370434754,0.2640380859375,0.07794189453125,0.9735107421875
1629370434754,0.26568603515625,0.07330322265625,0.97174072265625
1629370434834,0.2667236328125,0.07025146484375,0.9892578125
1629370434834,0.26824951171875,0.0731201171875,0.99176025390625
1629370434839,0.2586669921875,0.07025146484375,0.97540283203125
1629370434839,0.25848388671875,0.06280517578125,0.974853515625
1629370434844,0.25933837890625,0.0582275390625,0.98577880859375
1629370434847,0.2579345703125,0.06060791015625,0.9732666015625
1629370434973,0.28753662109375,0.06500244140625,1.01361083984375
1629370434974,0.2801513671875,0.068115234375,1.01263427734375
1629370434975,0.270751953125,0.07098388671875,0.99566650390625
1629370435008,0.26361083984375,0.05157470703125,0.99774169921875
1629370435009,0.26947021484375,0.0675048828125,1.00128173828125
1629370435018,0.28155517578125,0.071533203125,1.01141357421875
1629370435099,0.24749755859375,0.01849365234375,1.01080322265625
1629370435099,0.25042724609375,0.026611328125,1.00933837890625
1629370435100,0.25799560546875,0.03704833984375,1.0040283203125
1629370435146,0.2286376953125,0.011962890625,1.01318359375
1629370435149,0.21881103515625,0.00408935546875,1.005615234375
1629370435149,0.2369384765625,0.0108642578125,1.0159912109375
1629370435193,0.1824951171875,-0.0584716796875,0.98260498046875
1629370435193,0.19073486328125,-0.044677734375,0.9771728515625
1629370435194,0.20806884765625,-0.0238037109375,0.9931640625
1629370435225,0.1573486328125,-0.09881591796875,0.971435546875
1629370435226,0.16888427734375,-0.071044921875,0.97430419921875
1629370435227,0.14678955078125,-0.1375732421875,0.96630859375
1629370435317,0.138671875,-0.1590576171875,0.9791259765625
1629370435317,0.12310791015625,-0.1588134765625,0.98150634765625
1629370435317,0.1136474609375,-0.1558837890625,0.96942138671875
1629370435410,0.08489990234375,-0.1845703125,0.98016357421875
1629370435411,0.07366943359375,-0.19256591796875,0.9765625
1629370435419,0.1019287109375,-0.171875,0.97003173828125
1629370435426,-0.01898193359375,-0.2108154296875,1.00115966796875
1629370435429,0.02569580078125,-0.21099853515625,0.9925537109375
1629370435429,0.07049560546875,-0.21942138671875,0.9625244140625
1629370435429,0.05560302734375,-0.235595703125,0.96795654296875
1629370435432,0.00799560546875,-0.20355224609375,1.0009765625
1629370435433,0.0408935546875,-0.22320556640625,0.984375
1629370435498,-0.0416259765625,-0.21075439453125,0.9930419921875
1629370435499,-0.0626220703125,-0.21649169921875,0.9781494140625
1629370435502,-0.0828857421875,-0.21356201171875,0.96881103515625
1629370435568,-0.10052490234375,-0.20794677734375,0.96478271484375
1629370435569,-0.11767578125,-0.19891357421875,0.95355224609375
1629370435571,-0.13092041015625,-0.19970703125,0.94354248046875
1629370435598,-0.1427001953125,-0.21014404296875,0.9326171875
1629370435600,-0.15264892578125,-0.2127685546875,0.91973876953125
1629370435601,-0.15802001953125,-0.2159423828125,0.9163818359375
1629370435640,-0.1688232421875,-0.2027587890625,0.9271240234375
1629370435641,-0.1756591796875,-0.19305419921875,0.93292236328125
1629370435644,-0.1842041015625,-0.18560791015625,0.94140625
1629370435664,-0.19049072265625,-0.17706298828125,0.93499755859375
1629370435667,-0.19091796875,-0.17315673828125,0.92230224609375
1629370435669,-0.18896484375,-0.165771484375,0.91754150390625
1629370435724,-0.1795654296875,-0.1595458984375,0.9151611328125
1629370435726,-0.1737060546875,-0.14520263671875,0.9193115234375
1629370435727,-0.171142578125,-0.132080078125,0.9302978515625
1629370435762,-0.16009521484375,-0.10272216796875,0.95831298828125
1629370435762,-0.1663818359375,-0.1097412109375,0.94189453125
1629370435764,-0.16265869140625,-0.102783203125,0.97406005859375
1629370435794,-0.17376708984375,-0.11737060546875,1.01336669921875
1629370435803,-0.167724609375,-0.11126708984375,1.00390625
1629370435804,-0.1629638671875,-0.104248046875,0.9893798828125
1629370435959,-0.17864990234375,-0.11639404296875,1.0042724609375
1629370435960,-0.17645263671875,-0.1082763671875,0.97930908203125
1629370435961,-0.1737060546875,-0.1024169921875,0.96826171875
1629370436043,-0.17706298828125,-0.097412109375,0.97430419921875
1629370436045,-0.18011474609375,-0.09637451171875,0.9896240234375
1629370436048,-0.191162109375,-0.1065673828125,1.00775146484375
1629370436113,-0.197509765625,-0.110107421875,0.99432373046875
1629370436114,-0.208740234375,-0.11590576171875,0.96978759765625
1629370436115,-0.20928955078125,-0.12957763671875,0.94366455078125
1629370436136,-0.2177734375,-0.15179443359375,0.92987060546875
1629370436137,-0.21453857421875,-0.1632080078125,0.93017578125
1629370436139,-0.219970703125,-0.17901611328125,0.9344482421875
1629370436181,-0.21942138671875,-0.20654296875,0.936767578125
1629370436181,-0.2222900390625,-0.1954345703125,0.93389892578125
1629370436182,-0.219482421875,-0.21636962890625,0.92962646484375
1629370436252,-0.21734619140625,-0.2208251953125,0.930908203125
1629370436253,-0.22393798828125,-0.21795654296875,0.941162109375
1629370436257,-0.22186279296875,-0.21539306640625,0.94976806640625
1629370436280,-0.21990966796875,-0.212890625,0.9466552734375
1629370436280,-0.2174072265625,-0.2015380859375,0.94512939453125
1629370436282,-0.22418212890625,-0.19744873046875,0.95208740234375
1629370436305,-0.2186279296875,-0.201171875,0.951416015625
1629370436306,-0.2208251953125,-0.20135498046875,0.941162109375
1629370436308,-0.22491455078125,-0.203369140625,0.9415283203125
1629370436347,-0.22381591796875,-0.1961669921875,0.95526123046875
1629370436348,-0.22674560546875,-0.189697265625,0.9527587890625
1629370436349,-0.227783203125,-0.1900634765625,0.938232421875
1629370436422,-0.22760009765625,-0.19439697265625,0.92315673828125
1629370436422,-0.2176513671875,-0.20184326171875,0.929443359375
1629370436422,-0.22662353515625,-0.18780517578125,0.92474365234375
1629370436487,-0.21514892578125,-0.2069091796875,0.9412841796875
1629370436487,-0.20989990234375,-0.20855712890625,0.9586181640625
1629370436488,-0.214111328125,-0.208740234375,0.9566650390625
1629370436534,-0.21453857421875,-0.20556640625,0.96368408203125
1629370436536,-0.22186279296875,-0.18548583984375,0.95062255859375
1629370436546,-0.222900390625,-0.19500732421875,0.95782470703125
1629370436561,-0.23052978515625,-0.18499755859375,0.95526123046875
1629370436561,-0.2220458984375,-0.181640625,0.94964599609375
1629370436568,-0.223388671875,-0.18646240234375,0.9471435546875
1629370436635,-0.23272705078125,-0.1865234375,0.95611572265625
1629370436636,-0.2373046875,-0.18017578125,0.9454345703125
1629370436639,-0.23760986328125,-0.18096923828125,0.93597412109375
1629370436711,-0.240234375,-0.17596435546875,0.927734375
1629370436711,-0.2398681640625,-0.17974853515625,0.92578125
1629370436712,-0.2392578125,-0.179443359375,0.9281005859375
1629370436740,-0.23101806640625,-0.18963623046875,0.93896484375
1629370436740,-0.223876953125,-0.19134521484375,0.9417724609375
1629370436745,-0.236328125,-0.1834716796875,0.93170166015625
1629370436867,-0.21051025390625,-0.19183349609375,0.9605712890625
1629370436869,-0.214111328125,-0.193359375,0.9476318359375
1629370436870,-0.2188720703125,-0.18756103515625,0.941650390625
1629370436900,-0.21221923828125,-0.1890869140625,0.96099853515625
1629370436903,-0.21356201171875,-0.18756103515625,0.96246337890625
1629370436913,-0.2056884765625,-0.18328857421875,0.96173095703125
1629370436986,-0.2056884765625,-0.18853759765625,0.95379638671875
1629370436994,-0.20355224609375,-0.19207763671875,0.948486328125
1629370436996,-0.19989013671875,-0.19940185546875,0.94110107421875
1629370437030,-0.19500732421875,-0.20391845703125,0.93841552734375
1629370437032,-0.190185546875,-0.2064208984375,0.93658447265625
1629370437033,-0.18341064453125,-0.20330810546875,0.94293212890625
1629370437106,-0.18670654296875,-0.20123291015625,0.94866943359375
1629370437109,-0.18255615234375,-0.204833984375,0.94696044921875
1629370437111,-0.17742919921875,-0.21087646484375,0.94873046875
1629370437164,-0.1761474609375,-0.2210693359375,0.944580078125
1629370437165,-0.17315673828125,-0.23040771484375,0.9466552734375
1629370437166,-0.17266845703125,-0.23907470703125,0.9588623046875
1629370437211,-0.168212890625,-0.22576904296875,0.96209716796875
1629370437212,-0.17608642578125,-0.24090576171875,0.97296142578125
1629370437219,-0.1724853515625,-0.23028564453125,0.96673583984375
1629370437242,-0.171875,-0.2293701171875,0.95458984375
1629370437243,-0.16717529296875,-0.2529296875,0.94525146484375
1629370437243,-0.1690673828125,-0.24200439453125,0.9498291015625
1629370437290,-0.17218017578125,-0.25506591796875,0.966552734375
1629370437291,-0.17706298828125,-0.2413330078125,0.970458984375
1629370437292,-0.16937255859375,-0.26092529296875,0.951171875
1629370437404,-0.17901611328125,-0.23175048828125,0.96929931640625
1629370437404,-0.17547607421875,-0.20379638671875,0.955078125
1629370437404,-0.17767333984375,-0.21612548828125,0.96173095703125
1629370437419,-0.17529296875,-0.1966552734375,0.95318603515625
1629370437419,-0.1728515625,-0.197998046875,0.9478759765625
1629370437419,-0.1678466796875,-0.19500732421875,0.94622802734375
1629370437465,-0.1649169921875,-0.19232177734375,0.9444580078125
1629370437465,-0.16680908203125,-0.19647216796875,0.94964599609375
1629370437465,-0.16546630859375,-0.19696044921875,0.95263671875
1629370437572,-0.15142822265625,-0.18243408203125,0.9620361328125
1629370437572,-0.153564453125,-0.18603515625,0.9638671875
1629370437574,-0.1611328125,-0.197265625,0.9552001953125
1629370437576,-0.15753173828125,-0.19696044921875,0.96038818359375
1629370437577,-0.15435791015625,-0.19195556640625,0.96490478515625
1629370437678,-0.14581298828125,-0.168701171875,0.9600830078125
1629370437680,-0.14471435546875,-0.15496826171875,0.96209716796875
1629370437682,-0.13818359375,-0.1502685546875,0.961669921875
1629370437725,-0.14208984375,-0.14569091796875,0.970458984375
1629370437727,-0.1402587890625,-0.14697265625,0.97698974609375
1629370437728,-0.13641357421875,-0.14605712890625,0.9761962890625
1629370437785,-0.1329345703125,-0.14935302734375,0.97772216796875
1629370437786,-0.13006591796875,-0.149658203125,0.97900390625
1629370437787,-0.12982177734375,-0.14825439453125,0.9818115234375
1629370437825,-0.12701416015625,-0.1455078125,0.984619140625
1629370437826,-0.12884521484375,-0.14483642578125,0.98468017578125
1629370437844,-0.12762451171875,-0.14190673828125,0.9857177734375
1629370437872,-0.1226806640625,-0.13818359375,0.98785400390625
1629370437872,-0.12713623046875,-0.1395263671875,0.98651123046875
1629370437872,-0.1265869140625,-0.13861083984375,0.99005126953125
1629370437989,-0.13421630859375,-0.1397705078125,0.98309326171875
1629370437989,-0.12603759765625,-0.13677978515625,0.98797607421875
1629370437989,-0.13006591796875,-0.1407470703125,0.98516845703125
1629370438092,-0.13873291015625,-0.13629150390625,0.98028564453125
1629370438092,-0.13348388671875,-0.1405029296875,0.982177734375
1629370438093,-0.13897705078125,-0.13031005859375,0.97711181640625
1629370438181,-0.1383056640625,-0.13043212890625,0.96728515625
1629370438181,-0.146240234375,-0.1278076171875,0.9610595703125
1629370438182,-0.1458740234375,-0.12127685546875,0.95892333984375
1629370438183,-0.14215087890625,-0.12347412109375,0.97406005859375
1629370438185,-0.1473388671875,-0.12042236328125,0.96258544921875
1629370438185,-0.1474609375,-0.11962890625,0.962158203125
1629370438212,-0.13360595703125,-0.13775634765625,0.97650146484375
1629370438213,-0.1351318359375,-0.1287841796875,0.96905517578125
1629370438217,-0.12591552734375,-0.1414794921875,0.97540283203125
1629370438289,-0.121337890625,-0.14892578125,0.97747802734375
1629370438294,-0.11676025390625,-0.1510009765625,0.98492431640625
1629370438296,-0.111572265625,-0.15057373046875,0.983154296875
1629370438332,-0.10662841796875,-0.15545654296875,0.98291015625
1629370438334,-0.10406494140625,-0.15771484375,0.9814453125
1629370438338,-0.1036376953125,-0.15972900390625,0.97552490234375
1629370438386,-0.09814453125,-0.16229248046875,0.97210693359375
1629370438387,-0.095947265625,-0.16802978515625,0.979736328125
1629370438388,-0.091552734375,-0.173583984375,0.97900390625
1629370438408,-0.09161376953125,-0.17919921875,0.980224609375
1629370438409,-0.0882568359375,-0.18475341796875,0.98199462890625
1629370438410,-0.08184814453125,-0.1905517578125,0.97772216796875
1629370438553,-0.0828857421875,-0.19708251953125,0.97625732421875
1629370438553,-0.0794677734375,-0.20501708984375,0.97314453125
1629370438553,-0.08087158203125,-0.2034912109375,0.976318359375
1629370438569,-0.07525634765625,-0.224853515625,0.97100830078125
1629370438570,-0.07672119140625,-0.211181640625,0.9720458984375
1629370438584,-0.0712890625,-0.2303466796875,0.96893310546875
1629370438585,-0.068359375,-0.22625732421875,0.970703125
1629370438585,-0.0687255859375,-0.2291259765625,0.9708251953125
1629370438588,-0.0755615234375,-0.21807861328125,0.97235107421875
1629370438664,-0.06646728515625,-0.22637939453125,0.9742431640625
1629370438675,-0.06689453125,-0.222412109375,0.974853515625
1629370438679,-0.0693359375,-0.2158203125,0.97393798828125
1629370438842,-0.06781005859375,-0.21923828125,0.976318359375
1629370438842,-0.06646728515625,-0.21002197265625,0.97589111328125
1629370438842,-0.06634521484375,-0.210205078125,0.9766845703125
1629370438905,-0.07080078125,-0.20599365234375,0.9776611328125
1629370438905,-0.06524658203125,-0.2071533203125,0.97869873046875
1629370438909,-0.06927490234375,-0.20269775390625,0.9779052734375
1629370438936,-0.07342529296875,-0.19708251953125,0.978515625
1629370438937,-0.0762939453125,-0.1944580078125,0.97882080078125
1629370438937,-0.0706787109375,-0.19842529296875,0.97607421875
1629370439040,-0.07733154296875,-0.191650390625,0.975830078125
1629370439040,-0.08050537109375,-0.1837158203125,0.9749755859375
1629370439040,-0.080322265625,-0.1824951171875,0.97357177734375
1629370439138,-0.08111572265625,-0.18377685546875,0.9765625
1629370439139,-0.08563232421875,-0.178955078125,0.9774169921875
1629370439139,-0.0838623046875,-0.18280029296875,0.97747802734375
1629370439154,-0.0926513671875,-0.1668701171875,0.97357177734375
1629370439154,-0.090576171875,-0.17156982421875,0.97772216796875
1629370439154,-0.0894775390625,-0.17864990234375,0.97613525390625
1629370439251,-0.095947265625,-0.15643310546875,0.9786376953125
1629370439251,-0.09735107421875,-0.15264892578125,0.97723388671875
1629370439253,-0.0928955078125,-0.15936279296875,0.97607421875
1629370439305,-0.0968017578125,-0.1458740234375,0.979736328125
1629370439307,-0.10272216796875,-0.1419677734375,0.98394775390625
1629370439310,-0.10028076171875,-0.1396484375,0.9813232421875
1629370439334,-0.10186767578125,-0.136474609375,0.9796142578125
1629370439335,-0.10382080078125,-0.13275146484375,0.9749755859375
1629370439336,-0.10443115234375,-0.1298828125,0.978271484375
1629370439422,-0.1048583984375,-0.128173828125,0.98223876953125
1629370439425,-0.10565185546875,-0.122314453125,0.9815673828125
1629370439427,-0.10516357421875,-0.12445068359375,0.98431396484375
1629370439427,-0.1064453125,-0.1285400390625,0.9835205078125
1629370439429,-0.1025390625,-0.12933349609375,0.97918701171875
1629370439429,-0.10589599609375,-0.13037109375,0.9783935546875
1629370439436,-0.1065673828125,-0.12445068359375,0.98382568359375
1629370439439,-0.10400390625,-0.1290283203125,0.98455810546875
1629370439439,-0.10711669921875,-0.1295166015625,0.982666015625
1629370439472,-0.10302734375,-0.131103515625,0.98089599609375
1629370439474,-0.103759765625,-0.1309814453125,0.978515625
1629370439476,-0.10162353515625,-0.1357421875,0.98199462890625
1629370439536,-0.1033935546875,-0.13348388671875,0.98260498046875
1629370439537,-0.10235595703125,-0.1304931640625,0.98382568359375
1629370439538,-0.10186767578125,-0.13128662109375,0.9825439453125
1629370439569,-0.1014404296875,-0.122802734375,0.98321533203125
1629370439570,-0.10198974609375,-0.13134765625,0.9830322265625
1629370439573,-0.09979248046875,-0.13079833984375,0.984619140625
1629370439653,-0.10150146484375,-0.13604736328125,0.98028564453125
1629370439661,-0.0970458984375,-0.1414794921875,0.98193359375
1629370439663,-0.09857177734375,-0.1473388671875,0.97833251953125
1629370439721,-0.089599609375,-0.15960693359375,0.979736328125
1629370439722,-0.09259033203125,-0.15447998046875,0.97821044921875
1629370439722,-0.0897216796875,-0.156494140625,0.9788818359375
1629370439723,-0.0848388671875,-0.15985107421875,0.98040771484375
1629370439726,-0.0911865234375,-0.15863037109375,0.97857666015625
1629370439727,-0.08721923828125,-0.161376953125,0.9793701171875
1629370439797,-0.08258056640625,-0.16876220703125,0.97821044921875
1629370439797,-0.08428955078125,-0.1724853515625,0.978515625
1629370439798,-0.08551025390625,-0.163818359375,0.977294921875
1629370439844,-0.0794677734375,-0.1689453125,0.98016357421875
1629370439844,-0.08245849609375,-0.1715087890625,0.98040771484375
1629370439844,-0.08404541015625,-0.169921875,0.98065185546875
1629370439907,-0.0816650390625,-0.17755126953125,0.9781494140625
1629370439907,-0.08038330078125,-0.174560546875,0.9796142578125
1629370439907,-0.08148193359375,-0.18231201171875,0.98260498046875
1629370439940,-0.08160400390625,-0.18365478515625,0.979736328125
1629370439940,-0.0806884765625,-0.18499755859375,0.97674560546875
1629370439940,-0.082763671875,-0.18853759765625,0.9749755859375
1629370440037,-0.07952880859375,-0.1883544921875,0.9791259765625
1629370440053,-0.082275390625,-0.18829345703125,0.97711181640625
1629370440053,-0.08148193359375,-0.18865966796875,0.98004150390625
1629370440131,-0.08343505859375,-0.1866455078125,0.977294921875
1629370440132,-0.08172607421875,-0.1846923828125,0.97613525390625
1629370440133,-0.08074951171875,-0.18389892578125,0.9781494140625
1629370440249,-0.08074951171875,-0.18560791015625,0.97674560546875
1629370440250,-0.08526611328125,-0.18487548828125,0.97503662109375
1629370440250,-0.0849609375,-0.18841552734375,0.98095703125
1629370440281,-0.088623046875,-0.1771240234375,0.97723388671875
1629370440282,-0.087158203125,-0.1793212890625,0.97406005859375
1629370440283,-0.0882568359375,-0.17822265625,0.9737548828125
1629370440304,-0.08831787109375,-0.1766357421875,0.97222900390625
1629370440305,-0.08612060546875,-0.17669677734375,0.97393798828125
1629370440307,-0.08758544921875,-0.175537109375,0.97735595703125
1629370440354,-0.08843994140625,-0.17474365234375,0.979248046875
1629370440356,-0.08660888671875,-0.17376708984375,0.9766845703125
1629370440358,-0.08740234375,-0.170166015625,0.9774169921875
1629370440411,-0.08984375,-0.164794921875,0.98040771484375
1629370440412,-0.08782958984375,-0.1669921875,0.97967529296875
1629370440412,-0.091796875,-0.1602783203125,0.98297119140625
1629370440443,-0.09246826171875,-0.15704345703125,0.9798583984375
1629370440443,-0.0902099609375,-0.156982421875,0.97900390625
1629370440445,-0.0914306640625,-0.15338134765625,0.97930908203125
1629370440458,-0.0908203125,-0.1522216796875,0.9803466796875
1629370440458,-0.0946044921875,-0.1575927734375,0.97845458984375
1629370440458,-0.09326171875,-0.154052734375,0.97967529296875
1629370440535,-0.0927734375,-0.1552734375,0.980712890625
1629370440535,-0.09393310546875,-0.15594482421875,0.9786376953125
1629370440535,-0.09576416015625,-0.158203125,0.9796142578125
1629370440587,-0.09625244140625,-0.16510009765625,0.97991943359375
1629370440587,-0.0963134765625,-0.161376953125,0.9764404296875
1629370440587,-0.09661865234375,-0.1583251953125,0.9788818359375
1629370440666,-0.0953369140625,-0.16021728515625,0.97796630859375
1629370440666,-0.0955810546875,-0.16180419921875,0.973876953125
1629370440666,-0.0965576171875,-0.1654052734375,0.97747802734375
1629370440825,-0.09295654296875,-0.160400390625,0.97900390625
1629370440825,-0.09490966796875,-0.16400146484375,0.9761962890625
1629370440825,-0.0943603515625,-0.1591796875,0.97552490234375
1629370440869,-0.0941162109375,-0.15972900390625,0.98126220703125
1629370440869,-0.08856201171875,-0.1617431640625,0.97808837890625
1629370440869,-0.0947265625,-0.16217041015625,0.97998046875
1629370440934,-0.09576416015625,-0.1610107421875,0.9798583984375
1629370440935,-0.09088134765625,-0.15863037109375,0.976806640625
1629370440943,-0.09246826171875,-0.15594482421875,0.9794921875
1629370440962,-0.0919189453125,-0.161376953125,0.977783203125
1629370440965,-0.0911865234375,-0.15582275390625,0.98284912109375
1629370440969,-0.08935546875,-0.15948486328125,0.97735595703125
1629370441050,-0.09002685546875,-0.15972900390625,0.9810791015625
1629370441051,-0.0894775390625,-0.166259765625,0.98193359375
1629370441052,-0.08984375,-0.164306640625,0.9796142578125
1629370441069,-0.091552734375,-0.1661376953125,0.98004150390625
1629370441070,-0.09039306640625,-0.1678466796875,0.9781494140625
1629370441072,-0.09283447265625,-0.1717529296875,0.97705078125
1629370441160,-0.09588623046875,-0.1722412109375,0.974853515625
1629370441160,-0.09405517578125,-0.1708984375,0.97796630859375
1629370441161,-0.09320068359375,-0.1728515625,0.97650146484375
1629370441192,-0.09185791015625,-0.16552734375,0.97900390625
1629370441195,-0.092041015625,-0.16796875,0.978271484375
1629370441195,-0.09197998046875,-0.17108154296875,0.9801025390625
1629370441209,-0.08953857421875,-0.16510009765625,0.97503662109375
1629370441209,-0.09381103515625,-0.16510009765625,0.9791259765625
1629370441211,-0.09326171875,-0.162109375,0.97833251953125
1629370441270,-0.0955810546875,-0.163330078125,0.98052978515625
1629370441270,-0.092041015625,-0.161376953125,0.98004150390625
1629370441272,-0.0927734375,-0.161865234375,0.9783935546875
1629370441308,-0.09307861328125,-0.16290283203125,0.98187255859375
1629370441312,-0.096923828125,-0.16412353515625,0.9788818359375
1629370441314,-0.0950927734375,-0.1639404296875,0.974853515625
1629370441399,-0.0966796875,-0.16619873046875,0.97747802734375
1629370441400,-0.0947265625,-0.16009521484375,0.9755859375
1629370441400,-0.09600830078125,-0.16632080078125,0.97808837890625
1629370441471,-0.09259033203125,-0.163818359375,0.977294921875
1629370441471,-0.0950927734375,-0.16455078125,0.9796142578125
1629370441479,-0.09326171875,-0.161376953125,0.974853515625
1629370441534,-0.09136962890625,-0.1572265625,0.985107421875
1629370441535,-0.0931396484375,-0.15850830078125,0.98162841796875
1629370441535,-0.08990478515625,-0.15966796875,0.97760009765625
1629370441576,-0.0916748046875,-0.1556396484375,0.98309326171875
1629370441578,-0.09197998046875,-0.15582275390625,0.9820556640625
1629370441583,-0.08990478515625,-0.152587890625,0.984130859375
1629370441637,-0.09295654296875,-0.151123046875,0.9786376953125
1629370441641,-0.0948486328125,-0.15625,0.9801025390625
1629370441643,-0.0946044921875,-0.15435791015625,0.97930908203125
1629370441716,-0.09661865234375,-0.15594482421875,0.97406005859375
1629370441718,-0.09564208984375,-0.16033935546875,0.97503662109375
1629370441720,-0.0972900390625,-0.1588134765625,0.97698974609375
1629370441755,-0.0947265625,-0.1572265625,0.9779052734375
1629370441756,-0.0955810546875,-0.1578369140625,0.9788818359375
1629370441758,-0.09564208984375,-0.15606689453125,0.97784423828125
1629370441776,-0.0933837890625,-0.1590576171875,0.978515625
1629370441778,-0.09466552734375,-0.16265869140625,0.9796142578125
1629370441779,-0.09564208984375,-0.1639404296875,0.9781494140625
1629370441830,-0.09228515625,-0.16571044921875,0.97808837890625
1629370441830,-0.0911865234375,-0.1663818359375,0.9781494140625
1629370441830,-0.0933837890625,-0.16583251953125,0.97918701171875
1629370441878,-0.09075927734375,-0.1627197265625,0.98046875
1629370441878,-0.088134765625,-0.1611328125,0.98040771484375
1629370441894,-0.09027099609375,-0.16357421875,0.9822998046875
1629370442003,-0.08966064453125,-0.1607666015625,0.98187255859375
1629370442003,-0.09075927734375,-0.16094970703125,0.978759765625
1629370442004,-0.09063720703125,-0.16033935546875,0.9825439453125
1629370442156,-0.0906982421875,-0.15802001953125,0.9793701171875
1629370442156,-0.09307861328125,-0.15869140625,0.979736328125
1629370442157,-0.09210205078125,-0.1558837890625,0.98101806640625
1629370442247,-0.09149169921875,-0.16046142578125,0.97808837890625
1629370442247,-0.09454345703125,-0.16168212890625,0.98333740234375
1629370442247,-0.09124755859375,-0.16046142578125,0.978515625
1629370442346,-0.0933837890625,-0.16094970703125,0.97686767578125
1629370442346,-0.0953369140625,-0.15814208984375,0.9776611328125
1629370442347,-0.09649658203125,-0.161376953125,0.9769287109375
1629370442501,-0.0963134765625,-0.162109375,0.97509765625
1629370442502,-0.096923828125,-0.16253662109375,0.97650146484375
1629370442503,-0.094482421875,-0.16424560546875,0.975830078125
1629370442589,-0.0955810546875,-0.16241455078125,0.9796142578125
1629370442589,-0.0933837890625,-0.15826416015625,0.98126220703125
1629370442589,-0.09234619140625,-0.16082763671875,0.98187255859375
1629370442687,-0.08984375,-0.15667724609375,0.97998046875
1629370442687,-0.0919189453125,-0.15594482421875,0.9808349609375
1629370442690,-0.09149169921875,-0.157958984375,0.9815673828125
1629370442718,-0.08941650390625,-0.15899658203125,0.983154296875
1629370442720,-0.088623046875,-0.15704345703125,0.979248046875
1629370442726,-0.09344482421875,-0.15643310546875,0.98065185546875
1629370442753,-0.09295654296875,-0.15789794921875,0.98114013671875
1629370442755,-0.09490966796875,-0.1614990234375,0.9788818359375
1629370442758,-0.09417724609375,-0.15716552734375,0.97564697265625
1629370442858,-0.0904541015625,-0.155029296875,0.97918701171875
1629370442858,-0.08929443359375,-0.158203125,0.97772216796875
1629370442859,-0.0955810546875,-0.15960693359375,0.9788818359375
1629370442876,-0.09246826171875,-0.15814208984375,0.9810791015625
1629370442878,-0.09136962890625,-0.1588134765625,0.9771728515625
1629370442880,-0.0958251953125,-0.1573486328125,0.98065185546875
1629370442969,-0.09161376953125,-0.15435791015625,0.97991943359375
1629370442969,-0.090087890625,-0.1546630859375,0.98223876953125
1629370442971,-0.09063720703125,-0.16009521484375,0.98101806640625
1629370442994,-0.088623046875,-0.1558837890625,0.9798583984375
1629370442996,-0.09283447265625,-0.157470703125,0.982177734375
1629370442998,-0.09088134765625,-0.1546630859375,0.98028564453125
1629370443068,-0.09368896484375,-0.15582275390625,0.98077392578125
1629370443068,-0.09002685546875,-0.15435791015625,0.97943115234375
1629370443068,-0.08984375,-0.15380859375,0.98394775390625
1629370443133,-0.090087890625,-0.1607666015625,0.98016357421875
1629370443134,-0.0902099609375,-0.156494140625,0.98126220703125
1629370443134,-0.09149169921875,-0.16064453125,0.981689453125
1629370443183,-0.08843994140625,-0.15899658203125,0.98223876953125
1629370443184,-0.09033203125,-0.15673828125,0.98565673828125
1629370443186,-0.092529296875,-0.15863037109375,0.9840087890625
1629370443253,-0.094482421875,-0.1549072265625,0.98089599609375
1629370443255,-0.09423828125,-0.15673828125,0.98199462890625
1629370443260,-0.09649658203125,-0.156005859375,0.98260498046875
1629370443291,-0.098876953125,-0.15557861328125,0.97979736328125
1629370443292,-0.0994873046875,-0.15985107421875,0.9781494140625
1629370443295,-0.10223388671875,-0.15875244140625,0.97283935546875
1629370443369,-0.1009521484375,-0.158935546875,0.971923828125
1629370443371,-0.1065673828125,-0.160888671875,0.97015380859375
1629370443373,-0.1053466796875,-0.16241455078125,0.97430419921875
1629370443403,-0.102783203125,-0.16009521484375,0.9732666015625
1629370443404,-0.0994873046875,-0.15948486328125,0.97393798828125
1629370443406,-0.10357666015625,-0.15374755859375,0.97125244140625
1629370443451,-0.10382080078125,-0.1551513671875,0.97210693359375
1629370443452,-0.107177734375,-0.15008544921875,0.97442626953125
1629370443453,-0.10302734375,-0.154296875,0.97430419921875
1629370443477,-0.1026611328125,-0.15496826171875,0.97265625
1629370443478,-0.09820556640625,-0.15679931640625,0.97705078125
1629370443479,-0.09271240234375,-0.1583251953125,0.9830322265625
1629370443530,-0.08966064453125,-0.15618896484375,0.99176025390625
1629370443531,-0.08917236328125,-0.1524658203125,0.99102783203125
1629370443532,-0.08648681640625,-0.15167236328125,0.992431640625
1629370443564,-0.08428955078125,-0.151123046875,0.98919677734375
1629370443566,-0.08465576171875,-0.15277099609375,0.98895263671875
1629370443567,-0.08734130859375,-0.149658203125,0.98443603515625
1629370443586,-0.08978271484375,-0.15234375,0.98345947265625
1629370443587,-0.08953857421875,-0.15106201171875,0.9864501953125
1629370443588,-0.091552734375,-0.15460205078125,0.9814453125
1629370443621,-0.0931396484375,-0.14971923828125,0.97625732421875
1629370443621,-0.096923828125,-0.15057373046875,0.9774169921875
1629370443624,-0.09759521484375,-0.1529541015625,0.9742431640625
1629370443667,-0.096923828125,-0.15020751953125,0.96954345703125
1629370443668,-0.09906005859375,-0.15484619140625,0.97613525390625
1629370443669,-0.10101318359375,-0.1531982421875,0.9736328125
1629370443723,-0.0987548828125,-0.15740966796875,0.97406005859375
1629370443723,-0.09368896484375,-0.1558837890625,0.97509765625
1629370443726,-0.0953369140625,-0.15325927734375,0.97479248046875
1629370443816,-0.09454345703125,-0.15032958984375,0.97943115234375
1629370443817,-0.086181640625,-0.15045166015625,0.9820556640625
1629370443817,-0.091064453125,-0.151611328125,0.97796630859375
1629370443832,-0.086669921875,-0.1492919921875,0.9830322265625
1629370443832,-0.0845947265625,-0.1529541015625,0.98651123046875
1629370443835,-0.0848388671875,-0.15179443359375,0.986572265625
1629370443944,-0.0887451171875,-0.15155029296875,0.98876953125
1629370443956,-0.0870361328125,-0.15203857421875,0.98541259765625
1629370443962,-0.085693359375,-0.1512451171875,0.98919677734375
1629370443964,-0.08966064453125,-0.1519775390625,0.989013671875
1629370443965,-0.08917236328125,-0.1527099609375,0.98760986328125
1629370443989,-0.09136962890625,-0.15447998046875,0.984619140625
1629370444044,-0.09393310546875,-0.15673828125,0.9764404296875
1629370444046,-0.09716796875,-0.15594482421875,0.97607421875
1629370444048,-0.10076904296875,-0.15716552734375,0.97601318359375
1629370444070,-0.1016845703125,-0.1583251953125,0.97406005859375
1629370444071,-0.10516357421875,-0.1605224609375,0.97265625
1629370444074,-0.10723876953125,-0.15679931640625,0.9691162109375
1629370444123,-0.10546875,-0.15875244140625,0.9713134765625
1629370444124,-0.1064453125,-0.15911865234375,0.9710693359375
1629370444127,-0.10272216796875,-0.16119384765625,0.9747314453125
1629370444161,-0.10516357421875,-0.15667724609375,0.97430419921875
1629370444162,-0.09552001953125,-0.15606689453125,0.9801025390625
1629370444162,-0.10040283203125,-0.1546630859375,0.9755859375
1629370444180,-0.0960693359375,-0.15057373046875,0.978759765625
1629370444181,-0.094970703125,-0.1505126953125,0.98211669921875
1629370444181,-0.0966796875,-0.153076171875,0.98419189453125
1629370444273,-0.0906982421875,-0.15203857421875,0.986083984375
1629370444273,-0.09283447265625,-0.14923095703125,0.98321533203125
1629370444274,-0.09136962890625,-0.15130615234375,0.98760986328125
1629370444306,-0.0953369140625,-0.1507568359375,0.98101806640625
1629370444306,-0.09130859375,-0.149169921875,0.97552490234375
1629370444306,-0.09002685546875,-0.15234375,0.98468017578125
1629370444307,-0.09259033203125,-0.15142822265625,0.9888916015625
1629370444307,-0.087646484375,-0.15264892578125,0.987060546875
1629370444308,-0.0904541015625,-0.15216064453125,0.9835205078125
1629370444339,-0.09307861328125,-0.1473388671875,0.9739990234375
1629370444341,-0.095703125,-0.150390625,0.97735595703125
1629370444343,-0.09954833984375,-0.15234375,0.9764404296875
1629370444461,-0.09857177734375,-0.1553955078125,0.97674560546875
1629370444464,-0.09735107421875,-0.1536865234375,0.9776611328125
1629370444466,-0.10028076171875,-0.15228271484375,0.97613525390625
1629370444491,-0.09918212890625,-0.15313720703125,0.97998046875
1629370444491,-0.10052490234375,-0.15460205078125,0.979248046875
1629370444510,-0.1004638671875,-0.15338134765625,0.97857666015625
1629370444529,-0.09674072265625,-0.15301513671875,0.98114013671875
1629370444537,-0.09478759765625,-0.151123046875,0.97998046875
1629370444538,-0.09686279296875,-0.1519775390625,0.982666015625
1629370444686,-0.09674072265625,-0.15185546875,0.97967529296875
1629370444688,-0.09942626953125,-0.151123046875,0.98236083984375
1629370444690,-0.09674072265625,-0.14886474609375,0.9859619140625
1629370444692,-0.09686279296875,-0.15411376953125,0.98455810546875
1629370444693,-0.09552001953125,-0.15130615234375,0.98284912109375
1629370444697,-0.09814453125,-0.152587890625,0.98248291015625
1629370444725,-0.095458984375,-0.15234375,0.98101806640625
1629370444727,-0.09625244140625,-0.1551513671875,0.981689453125
1629370444729,-0.09893798828125,-0.1561279296875,0.97894287109375
1629370444832,-0.09808349609375,-0.15570068359375,0.97760009765625
1629370444833,-0.10125732421875,-0.15728759765625,0.9775390625
1629370444833,-0.0989990234375,-0.15325927734375,0.977783203125
1629370444864,-0.10089111328125,-0.15325927734375,0.98016357421875
1629370444864,-0.100830078125,-0.153564453125,0.977783203125
1629370444866,-0.0946044921875,-0.15509033203125,0.97821044921875
1629370444895,-0.099609375,-0.15496826171875,0.977294921875
1629370444895,-0.10076904296875,-0.15234375,0.97509765625
1629370444896,-0.09942626953125,-0.14801025390625,0.9788818359375
1629370444945,-0.09637451171875,-0.15093994140625,0.977294921875
1629370444947,-0.09552001953125,-0.15167236328125,0.98297119140625
1629370444948,-0.09588623046875,-0.15008544921875,0.982666015625
1629370444990,-0.09716796875,-0.14874267578125,0.982177734375
1629370444992,-0.0938720703125,-0.14599609375,0.98358154296875
1629370444995,-0.09515380859375,-0.14739990234375,0.9822998046875
1629370445019,-0.09405517578125,-0.1485595703125,0.9810791015625
1629370445029,-0.09405517578125,-0.1474609375,0.98419189453125
1629370445029,-0.09368896484375,-0.1456298828125,0.9818115234375
1629370445060,-0.094970703125,-0.1495361328125,0.97955322265625
1629370445061,-0.09906005859375,-0.14959716796875,0.982177734375
1629370445061,-0.09503173828125,-0.1466064453125,0.9788818359375
1629370445224,-0.09893798828125,-0.1536865234375,0.9781494140625
1629370445225,-0.09906005859375,-0.1553955078125,0.97906494140625
1629370445225,-0.097900390625,-0.15032958984375,0.98370361328125
1629370445403,-0.0997314453125,-0.1522216796875,0.97528076171875
1629370445403,-0.1025390625,-0.15155029296875,0.9791259765625
1629370445403,-0.100830078125,-0.152099609375,0.97869873046875
1629370445451,-0.1011962890625,-0.15728759765625,0.97686767578125
1629370445453,-0.10308837890625,-0.15509033203125,0.97772216796875
1629370445453,-0.10186767578125,-0.15179443359375,0.9776611328125
1629370445527,-0.10003662109375,-0.16015625,0.97845458984375
1629370445531,-0.102294921875,-0.156982421875,0.981689453125
1629370445533,-0.0997314453125,-0.1575927734375,0.982421875
1629370445571,-0.10052490234375,-0.15625,0.979248046875
1629370445573,-0.09759521484375,-0.15460205078125,0.978759765625
1629370445575,-0.09771728515625,-0.15167236328125,0.97869873046875
1629370445612,-0.0980224609375,-0.14892578125,0.98028564453125
1629370445614,-0.100341796875,-0.1473388671875,0.980224609375
1629370445616,-0.1016845703125,-0.148681640625,0.981201171875
1629370445665,-0.09869384765625,-0.15118408203125,0.98291015625
1629370445665,-0.09808349609375,-0.15179443359375,0.97998046875
1629370445666,-0.098876953125,-0.1524658203125,0.97979736328125
1629370445816,-0.1015625,-0.1522216796875,0.97796630859375
1629370445818,-0.10064697265625,-0.14910888671875,0.9798583984375
1629370445819,-0.10504150390625,-0.153076171875,0.98114013671875
1629370445858,-0.10406494140625,-0.15655517578125,0.9786376953125
1629370445860,-0.10406494140625,-0.15362548828125,0.97540283203125
1629370445861,-0.10418701171875,-0.15509033203125,0.97271728515625
1629370445942,-0.10382080078125,-0.155517578125,0.97613525390625
1629370445944,-0.103515625,-0.15496826171875,0.97918701171875
1629370445944,-0.1029052734375,-0.15203857421875,0.9781494140625
1629370446106,-0.1002197265625,-0.15228271484375,0.97955322265625
1629370446108,-0.10308837890625,-0.14752197265625,0.9786376953125
1629370446109,-0.10052490234375,-0.1497802734375,0.9781494140625
1629370446193,-0.09765625,-0.1474609375,0.9796142578125
1629370446194,-0.0966796875,-0.14874267578125,0.9832763671875
1629370446196,-0.09686279296875,-0.1468505859375,0.9830322265625
1629370446262,-0.0966796875,-0.15167236328125,0.98486328125
1629370446264,-0.09918212890625,-0.1497802734375,0.986083984375
1629370446265,-0.09588623046875,-0.14825439453125,0.98321533203125
1629370446304,-0.09814453125,-0.14691162109375,0.9810791015625
1629370446306,-0.09844970703125,-0.1490478515625,0.9803466796875
1629370446311,-0.0985107421875,-0.147216796875,0.97943115234375
1629370446368,-0.097900390625,-0.1468505859375,0.977783203125
1629370446372,-0.1016845703125,-0.14642333984375,0.9774169921875
1629370446374,-0.096435546875,-0.14862060546875,0.978515625
1629370446416,-0.095947265625,-0.149169921875,0.98004150390625
1629370446418,-0.09857177734375,-0.14898681640625,0.980712890625
1629370446449,-0.10003662109375,-0.144775390625,0.9808349609375
1629370446452,-0.08984375,-0.1456298828125,0.983154296875
1629370446453,-0.09674072265625,-0.14666748046875,0.98175048828125
1629370446476,-0.09796142578125,-0.14837646484375,0.98162841796875
1629370446477,-0.099609375,-0.14825439453125,0.9791259765625
1629370446479,-0.09747314453125,-0.1480712890625,0.97979736328125
1629370446512,-0.099365234375,-0.15325927734375,0.97998046875
1629370446513,-0.101806640625,-0.15557861328125,0.98052978515625
1629370446514,-0.097900390625,-0.1495361328125,0.98114013671875
1629370446564,-0.1002197265625,-0.15185546875,0.9798583984375
1629370446565,-0.09954833984375,-0.15289306640625,0.978515625
1629370446566,-0.09686279296875,-0.15069580078125,0.980712890625
1629370446583,-0.0986328125,-0.14898681640625,0.9796142578125
1629370446584,-0.10028076171875,-0.1517333984375,0.9794921875
1629370446585,-0.100341796875,-0.1534423828125,0.9801025390625
1629370446625,-0.10430908203125,-0.151611328125,0.97857666015625
1629370446626,-0.10418701171875,-0.1522216796875,0.97845458984375
1629370446627,-0.10186767578125,-0.156005859375,0.98004150390625
1629370446644,-0.0999755859375,-0.1553955078125,0.97930908203125
1629370446645,-0.100341796875,-0.15533447265625,0.97943115234375
1629370446646,-0.09954833984375,-0.1546630859375,0.9820556640625
1629370446693,-0.09783935546875,-0.1533203125,0.97845458984375
1629370446694,-0.09820556640625,-0.15069580078125,0.9794921875
1629370446695,-0.0972900390625,-0.14691162109375,0.97723388671875
1629370446732,-0.10015869140625,-0.14544677734375,0.980224609375
1629370446733,-0.10003662109375,-0.14471435546875,0.97833251953125
1629370446734,-0.097900390625,-0.1483154296875,0.98309326171875
1629370446751,-0.09429931640625,-0.1474609375,0.98040771484375
1629370446752,-0.0985107421875,-0.1492919921875,0.98236083984375
1629370446753,-0.10076904296875,-0.14910888671875,0.9796142578125
1629370446770,-0.09814453125,-0.1448974609375,0.9815673828125
1629370446771,-0.0941162109375,-0.14727783203125,0.98101806640625
1629370446772,-0.09747314453125,-0.1513671875,0.97930908203125
1629370446818,-0.0972900390625,-0.1517333984375,0.98223876953125
1629370446819,-0.09820556640625,-0.1448974609375,0.97662353515625
1629370446819,-0.09771728515625,-0.1495361328125,0.9814453125
1629370446907,-0.10101318359375,-0.1470947265625,0.97918701171875
1629370446907,-0.09881591796875,-0.14923095703125,0.982177734375
1629370446907,-0.097412109375,-0.14892578125,0.9805908203125
1629370447063,-0.099853515625,-0.1478271484375,0.9810791015625
1629370447065,-0.09881591796875,-0.1468505859375,0.98101806640625
1629370447065,-0.0966796875,-0.14898681640625,0.9822998046875
1629370447127,-0.09490966796875,-0.14794921875,0.97967529296875
1629370447128,-0.097412109375,-0.14691162109375,0.9801025390625
1629370447131,-0.09661865234375,-0.14794921875,0.980712890625
1629370447176,-0.1007080078125,-0.150390625,0.982666015625
1629370447178,-0.09808349609375,-0.145751953125,0.97845458984375
1629370447180,-0.1009521484375,-0.1513671875,0.98046875
1629370447213,-0.09881591796875,-0.146728515625,0.97955322265625
1629370447214,-0.1009521484375,-0.149658203125,0.9779052734375
1629370447216,-0.09967041015625,-0.14910888671875,0.97833251953125
1629370447273,-0.09869384765625,-0.15313720703125,0.979736328125
1629370447276,-0.09912109375,-0.15167236328125,0.97955322265625
1629370447277,-0.10162353515625,-0.14678955078125,0.982666015625
1629370447333,-0.09796142578125,-0.14837646484375,0.980224609375
1629370447337,-0.09881591796875,-0.14605712890625,0.981689453125
1629370447338,-0.0972900390625,-0.146728515625,0.98028564453125
1629370447371,-0.09423828125,-0.14764404296875,0.98150634765625
1629370447372,-0.09100341796875,-0.145751953125,0.9805908203125
1629370447374,-0.09393310546875,-0.1522216796875,0.98126220703125
1629370447401,-0.0941162109375,-0.15118408203125,0.98638916015625
1629370447402,-0.09765625,-0.146728515625,0.9835205078125
1629370447403,-0.09771728515625,-0.14825439453125,0.98321533203125
1629370447451,-0.097900390625,-0.1475830078125,0.981201171875
1629370447453,-0.09588623046875,-0.15008544921875,0.9808349609375
1629370447454,-0.0987548828125,-0.150634765625,0.9801025390625
1629370447522,-0.09423828125,-0.15057373046875,0.9810791015625
1629370447525,-0.0968017578125,-0.14825439453125,0.980712890625
1629370447526,-0.09765625,-0.1500244140625,0.9798583984375
1629370447593,-0.09820556640625,-0.14996337890625,0.9791259765625
1629370447593,-0.0955810546875,-0.14892578125,0.97686767578125
1629370447593,-0.096923828125,-0.15118408203125,0.97869873046875
1629370447609,-0.09381103515625,-0.1497802734375,0.981689453125
1629370447609,-0.09588623046875,-0.14776611328125,0.9847412109375
1629370447609,-0.09539794921875,-0.151123046875,0.98101806640625
1629370447610,-0.09796142578125,-0.1480712890625,0.9779052734375
1629370447610,-0.0985107421875,-0.1514892578125,0.98150634765625
1629370447612,-0.09906005859375,-0.14739990234375,0.9783935546875
1629370447671,-0.09503173828125,-0.14501953125,0.98388671875
1629370447671,-0.09490966796875,-0.1441650390625,0.98321533203125
1629370447672,-0.09759521484375,-0.14825439453125,0.982666015625
1629370447780,-0.09649658203125,-0.14300537109375,0.9775390625
1629370447780,-0.0965576171875,-0.14300537109375,0.983642578125
1629370447781,-0.09722900390625,-0.1424560546875,0.98223876953125
1629370447796,-0.096923828125,-0.144287109375,0.98089599609375
1629370447797,-0.09649658203125,-0.1455078125,0.97900390625
1629370447799,-0.096435546875,-0.14703369140625,0.97967529296875
1629370447850,-0.09771728515625,-0.14752197265625,0.98016357421875
1629370447851,-0.09820556640625,-0.14495849609375,0.9822998046875
1629370447851,-0.099853515625,-0.14794921875,0.97918701171875
1629370447892,-0.0994873046875,-0.1495361328125,0.9791259765625
1629370447894,-0.09906005859375,-0.14599609375,0.97833251953125
1629370447896,-0.10321044921875,-0.14434814453125,0.9815673828125
1629370447954,-0.0992431640625,-0.14617919921875,0.98193359375
1629370447954,-0.09967041015625,-0.14556884765625,0.982666015625
1629370447955,-0.09906005859375,-0.149169921875,0.9803466796875
1629370447983,-0.09613037109375,-0.14410400390625,0.98175048828125
1629370447984,-0.09844970703125,-0.14764404296875,0.982177734375
1629370447986,-0.100341796875,-0.1468505859375,0.98260498046875
1629370448006,-0.0968017578125,-0.14556884765625,0.980224609375
1629370448009,-0.0963134765625,-0.1480712890625,0.98309326171875
1629370448017,-0.09136962890625,-0.14654541015625,0.98236083984375
1629370448161,-0.093994140625,-0.14556884765625,0.98248291015625
1629370448163,-0.09600830078125,-0.1466064453125,0.98260498046875
1629370448163,-0.09375,-0.14666748046875,0.98260498046875
1629370448192,-0.0972900390625,-0.14678955078125,0.9810791015625
1629370448193,-0.09674072265625,-0.1502685546875,0.97772216796875
1629370448194,-0.09869384765625,-0.14788818359375,0.98150634765625
1629370448337,-0.09698486328125,-0.14752197265625,0.98052978515625
1629370448337,-0.09539794921875,-0.1485595703125,0.9798583984375
1629370448343,-0.095947265625,-0.1475830078125,0.9810791015625
1629370448398,-0.09881591796875,-0.14617919921875,0.9822998046875
1629370448398,-0.09283447265625,-0.14556884765625,0.98077392578125
1629370448399,-0.0958251953125,-0.14703369140625,0.98089599609375
1629370448432,-0.09716796875,-0.1414794921875,0.98382568359375
1629370448435,-0.09393310546875,-0.144775390625,0.98333740234375
1629370448444,-0.0972900390625,-0.14678955078125,0.9833984375
1629370448483,-0.0950927734375,-0.14410400390625,0.98077392578125
1629370448487,-0.0931396484375,-0.146728515625,0.979736328125
1629370448491,-0.09613037109375,-0.145263671875,0.97857666015625
1629370448531,-0.09405517578125,-0.14825439453125,0.98284912109375
1629370448533,-0.0943603515625,-0.1475830078125,0.98358154296875
1629370448534,-0.09942626953125,-0.146728515625,0.98114013671875
1629370448567,-0.095458984375,-0.14422607421875,0.980224609375
1629370448568,-0.0992431640625,-0.14324951171875,0.98291015625
1629370448569,-0.097412109375,-0.14691162109375,0.98333740234375
1629370448699,-0.09808349609375,-0.14056396484375,0.9788818359375
1629370448700,-0.09722900390625,-0.1461181640625,0.98211669921875
1629370448700,-0.10003662109375,-0.14483642578125,0.980712890625
1629370448714,-0.10052490234375,-0.14495849609375,0.98101806640625
1629370448715,-0.104248046875,-0.14251708984375,0.979736328125
1629370448715,-0.1031494140625,-0.141357421875,0.97955322265625
1629370448792,-0.0987548828125,-0.14422607421875,0.98321533203125
1629370448794,-0.0997314453125,-0.14715576171875,0.98162841796875
1629370448796,-0.0982666015625,-0.1455078125,0.97918701171875
1629370448797,-0.101318359375,-0.1453857421875,0.981689453125
1629370448800,-0.10089111328125,-0.14404296875,0.9786376953125
1629370448801,-0.10009765625,-0.14520263671875,0.97918701171875
1629370448866,-0.09814453125,-0.14093017578125,0.97979736328125
1629370448871,-0.0968017578125,-0.137939453125,0.97845458984375
1629370448872,-0.09893798828125,-0.1390380859375,0.98260498046875
1629370448894,-0.09918212890625,-0.13800048828125,0.98114013671875
1629370448895,-0.10284423828125,-0.13836669921875,0.98101806640625
1629370448896,-0.09954833984375,-0.1429443359375,0.9815673828125
1629370448931,-0.09735107421875,-0.13946533203125,0.980712890625
1629370448932,-0.09857177734375,-0.14044189453125,0.9832763671875
1629370448933,-0.09942626953125,-0.1387939453125,0.9825439453125
1629370449008,-0.10302734375,-0.141357421875,0.981689453125
1629370449008,-0.10284423828125,-0.1429443359375,0.98126220703125
1629370449008,-0.10076904296875,-0.1422119140625,0.9776611328125
1629370449038,-0.100830078125,-0.14532470703125,0.98284912109375
1629370449038,-0.102783203125,-0.14324951171875,0.98114013671875
1629370449039,-0.10498046875,-0.14361572265625,0.97906494140625
1629370449132,-0.0989990234375,-0.14532470703125,0.98663330078125
1629370449132,-0.10150146484375,-0.145751953125,0.9808349609375
1629370449132,-0.1033935546875,-0.1434326171875,0.98431396484375
1629370449185,-0.10009765625,-0.14544677734375,0.982421875
1629370449194,-0.09881591796875,-0.1414794921875,0.9786376953125
1629370449194,-0.099609375,-0.14739990234375,0.97802734375
1629370449285,-0.10174560546875,-0.14349365234375,0.98193359375
1629370449288,-0.10302734375,-0.1474609375,0.98309326171875
1629370449292,-0.098388671875,-0.140869140625,0.980224609375
1629370449314,-0.10198974609375,-0.14471435546875,0.98138427734375
1629370449315,-0.10382080078125,-0.14361572265625,0.98162841796875
1629370449318,-0.101806640625,-0.14495849609375,0.98040771484375
1629370449380,-0.1025390625,-0.141845703125,0.980224609375
1629370449381,-0.103759765625,-0.14544677734375,0.9779052734375
1629370449381,-0.1046142578125,-0.1436767578125,0.9788818359375
1629370449407,-0.10369873046875,-0.14739990234375,0.9794921875
1629370449409,-0.1044921875,-0.147216796875,0.979248046875
1629370449410,-0.10113525390625,-0.1441650390625,0.97821044921875
1629370449473,-0.09857177734375,-0.14569091796875,0.9788818359375
1629370449475,-0.10198974609375,-0.14373779296875,0.979248046875
1629370449479,-0.1016845703125,-0.1455078125,0.98095703125
1629370449526,-0.10260009765625,-0.1416015625,0.98162841796875
1629370449528,-0.10064697265625,-0.13946533203125,0.9818115234375
1629370449528,-0.10113525390625,-0.141357421875,0.97882080078125
1629370449548,-0.1009521484375,-0.14178466796875,0.98211669921875
1629370449549,-0.099365234375,-0.13812255859375,0.98126220703125
1629370449550,-0.09814453125,-0.14105224609375,0.9830322265625
1629370449641,-0.1011962890625,-0.13958740234375,0.98199462890625
1629370449641,-0.0972900390625,-0.1400146484375,0.9835205078125
1629370449642,-0.10076904296875,-0.14306640625,0.98297119140625
1629370449789,-0.101806640625,-0.14190673828125,0.9820556640625
1629370449789,-0.1038818359375,-0.14068603515625,0.97998046875
1629370449789,-0.10107421875,-0.13873291015625,0.9796142578125
1629370449842,-0.10357666015625,-0.143798828125,0.981689453125
1629370449842,-0.1029052734375,-0.141357421875,0.98101806640625
1629370449842,-0.10675048828125,-0.1490478515625,0.97833251953125
1629370449904,-0.1007080078125,-0.14459228515625,0.980224609375
1629370449904,-0.1024169921875,-0.14892578125,0.98046875
1629370449907,-0.1024169921875,-0.14312744140625,0.9794921875
1629370449959,-0.10198974609375,-0.14495849609375,0.9766845703125
1629370449962,-0.10400390625,-0.1444091796875,0.9769287109375
1629370449964,-0.0999755859375,-0.13848876953125,0.97869873046875
1629370450048,-0.10052490234375,-0.13763427734375,0.979736328125
1629370450049,-0.09661865234375,-0.1392822265625,0.9815673828125
1629370450050,-0.09576416015625,-0.1414794921875,0.98284912109375
1629370450066,-0.09814453125,-0.1392822265625,0.98406982421875
1629370450067,-0.09515380859375,-0.1373291015625,0.98388671875
1629370450070,-0.0994873046875,-0.14013671875,0.98291015625
1629370450110,-0.102783203125,-0.13653564453125,0.98284912109375
1629370450110,-0.10125732421875,-0.1378173828125,0.9833984375
1629370450111,-0.10235595703125,-0.141845703125,0.9822998046875
1629370450133,-0.102783203125,-0.14306640625,0.9832763671875
1629370450134,-0.10107421875,-0.14068603515625,0.97943115234375
1629370450135,-0.101318359375,-0.139892578125,0.9791259765625
1629370450194,-0.1016845703125,-0.14300537109375,0.98309326171875
1629370450194,-0.0997314453125,-0.14312744140625,0.982177734375
1629370450194,-0.102294921875,-0.14398193359375,0.9825439453125
1629370450240,-0.10198974609375,-0.1397705078125,0.981201171875
1629370450241,-0.10162353515625,-0.14013671875,0.98016357421875
1629370450242,-0.10101318359375,-0.14208984375,0.98016357421875
1629370450243,-0.1002197265625,-0.1390380859375,0.9808349609375
1629370450243,-0.10076904296875,-0.14019775390625,0.98095703125
1629370450339,-0.09881591796875,-0.14178466796875,0.98028564453125
1629370450341,-0.09979248046875,-0.13726806640625,0.98077392578125
1629370450343,-0.0992431640625,-0.1416015625,0.98211669921875
1629370450407,-0.098876953125,-0.13946533203125,0.97900390625
1629370450407,-0.09918212890625,-0.140380859375,0.9827880859375
1629370450407,-0.09674072265625,-0.1412353515625,0.9833984375
1629370450503,-0.09454345703125,-0.1412353515625,0.9805908203125
1629370450509,-0.0966796875,-0.1431884765625,0.98138427734375
1629370450509,-0.09857177734375,-0.14105224609375,0.9815673828125
1629370450561,-0.0947265625,-0.140625,0.9835205078125
1629370450562,-0.0943603515625,-0.1392822265625,0.98291015625
1629370450562,-0.09454345703125,-0.14166259765625,0.9859619140625
1629370450611,-0.09454345703125,-0.13848876953125,0.98223876953125
1629370450612,-0.096923828125,-0.14202880859375,0.98382568359375
1629370450614,-0.0987548828125,-0.138916015625,0.978759765625
1629370450654,-0.09771728515625,-0.1412353515625,0.9820556640625
1629370450655,-0.09716796875,-0.14154052734375,0.98193359375
1629370450660,-0.0960693359375,-0.13922119140625,0.98065185546875
1629370450709,-0.09844970703125,-0.1427001953125,0.98150634765625
1629370450711,-0.09393310546875,-0.1434326171875,0.9794921875
1629370450712,-0.101806640625,-0.14141845703125,0.98260498046875
1629370450747,-0.09881591796875,-0.14117431640625,0.98321533203125
1629370450748,-0.09576416015625,-0.140625,0.97906494140625
1629370450749,-0.09698486328125,-0.14227294921875,0.982177734375
1629370450808,-0.09869384765625,-0.14044189453125,0.9805908203125
1629370450808,-0.0977783203125,-0.14093017578125,0.9825439453125
1629370450808,-0.1014404296875,-0.1402587890625,0.98004150390625
1629370450938,-0.097412109375,-0.14569091796875,0.97991943359375
1629370450938,-0.098388671875,-0.144287109375,0.981201171875
1629370450939,-0.0992431640625,-0.14251708984375,0.9793701171875
1629370450968,-0.096923828125,-0.14385986328125,0.9793701171875
1629370450968,-0.09759521484375,-0.1422119140625,0.98370361328125
1629370450968,-0.0960693359375,-0.14398193359375,0.98272705078125
1629370450983,-0.09698486328125,-0.137451171875,0.9779052734375
1629370450984,-0.098388671875,-0.141357421875,0.981689453125
1629370450985,-0.0975341796875,-0.138916015625,0.9837646484375
1629370451005,-0.09710693359375,-0.13787841796875,0.9830322265625
1629370451009,-0.102294921875,-0.138671875,0.98162841796875
1629370451015,-0.09918212890625,-0.13812255859375,0.9808349609375
1629370451169,-0.09808349609375,-0.13922119140625,0.9805908203125
1629370451169,-0.10479736328125,-0.14019775390625,0.9818115234375
1629370451170,-0.10040283203125,-0.13909912109375,0.9798583984375
1629370451186,-0.10052490234375,-0.137451171875,0.9776611328125
1629370451186,-0.10162353515625,-0.13970947265625,0.9808349609375
1629370451188,-0.1021728515625,-0.14031982421875,0.9793701171875
1629370451247,-0.10040283203125,-0.14324951171875,0.98431396484375
1629370451248,-0.0986328125,-0.1416015625,0.9788818359375
1629370451248,-0.0999755859375,-0.13751220703125,0.97979736328125
1629370451263,-0.0965576171875,-0.141845703125,0.98291015625
1629370451264,-0.0992431640625,-0.13592529296875,0.986083984375
1629370451267,-0.0947265625,-0.13983154296875,0.9842529296875
1629370451487,-0.0980224609375,-0.1378173828125,0.98309326171875
1629370451488,-0.09600830078125,-0.13824462890625,0.9814453125
1629370451489,-0.09881591796875,-0.13763427734375,0.9837646484375
1629370451496,-0.096923828125,-0.13970947265625,0.98175048828125
1629370451496,-0.095703125,-0.13525390625,0.98126220703125
1629370451496,-0.0985107421875,-0.1380615234375,0.98260498046875
1629370451528,-0.0975341796875,-0.13543701171875,0.9801025390625
1629370451531,-0.09954833984375,-0.13616943359375,0.979248046875
1629370451538,-0.09716796875,-0.14080810546875,0.9825439453125
1629370451586,-0.10137939453125,-0.14056396484375,0.98101806640625
1629370451588,-0.0977783203125,-0.13916015625,0.9814453125
1629370451590,-0.10003662109375,-0.1414794921875,0.97833251953125
1629370451693,-0.099365234375,-0.14141845703125,0.98175048828125
1629370451694,-0.09942626953125,-0.13916015625,0.9818115234375
1629370451695,-0.09710693359375,-0.1395263671875,0.980712890625
1629370451727,-0.0970458984375,-0.13677978515625,0.98309326171875
1629370451727,-0.0927734375,-0.1361083984375,0.984130859375
1629370451729,-0.0972900390625,-0.13580322265625,0.982177734375
1629370451779,-0.0960693359375,-0.1358642578125,0.98626708984375
1629370451781,-0.09527587890625,-0.13690185546875,0.98577880859375
1629370451782,-0.0919189453125,-0.13702392578125,0.98590087890625
1629370451803,-0.0985107421875,-0.13885498046875,0.98406982421875
1629370451804,-0.098388671875,-0.13775634765625,0.98291015625
1629370451805,-0.09869384765625,-0.13836669921875,0.9822998046875
1629370451861,-0.0975341796875,-0.1376953125,0.98297119140625
1629370451861,-0.09716796875,-0.140380859375,0.98077392578125
1629370451864,-0.0970458984375,-0.14501953125,0.982666015625
1629370451904,-0.100341796875,-0.1397705078125,0.98455810546875
1629370451908,-0.09759521484375,-0.1409912109375,0.9798583984375
1629370451911,-0.09912109375,-0.1409912109375,0.98065185546875
1629370451941,-0.1014404296875,-0.13671875,0.97845458984375
1629370451944,-0.10076904296875,-0.1378173828125,0.9820556640625
1629370451946,-0.09881591796875,-0.139892578125,0.9798583984375
1629370452039,-0.10137939453125,-0.140625,0.982421875
1629370452043,-0.1029052734375,-0.13616943359375,0.98431396484375
1629370452044,-0.10101318359375,-0.14227294921875,0.9854736328125
1629370452120,-0.09619140625,-0.1424560546875,0.98028564453125
1629370452123,-0.09765625,-0.13873291015625,0.98004150390625
1629370452128,-0.09906005859375,-0.135498046875,0.9820556640625
1629370452162,-0.0992431640625,-0.13897705078125,0.9853515625
1629370452163,-0.09429931640625,-0.13800048828125,0.98150634765625
1629370452165,-0.0994873046875,-0.1346435546875,0.98388671875
1629370452189,-0.09674072265625,-0.13385009765625,0.9827880859375
1629370452190,-0.09429931640625,-0.13446044921875,0.98236083984375
1629370452193,-0.0992431640625,-0.13720703125,0.9825439453125
1629370452272,-0.095703125,-0.139404296875,0.9818115234375
1629370452272,-0.093505859375,-0.135498046875,0.98138427734375
1629370452278,-0.096435546875,-0.13665771484375,0.98419189453125
1629370452304,-0.0975341796875,-0.137939453125,0.9801025390625
1629370452304,-0.0975341796875,-0.13751220703125,0.98309326171875
1629370452305,-0.1019287109375,-0.1380615234375,0.98211669921875
1629370452351,-0.1009521484375,-0.13751220703125,0.97998046875
1629370452352,-0.09893798828125,-0.1361083984375,0.978759765625
1629370452352,-0.10137939453125,-0.13836669921875,0.9810791015625
1629370452428,-0.09796142578125,-0.13641357421875,0.9837646484375
1629370452428,-0.1021728515625,-0.134033203125,0.9832763671875
1629370452428,-0.1016845703125,-0.13922119140625,0.983154296875
1629370452459,-0.099365234375,-0.13543701171875,0.9833984375
1629370452459,-0.10064697265625,-0.134033203125,0.98199462890625
1629370452459,-0.0999755859375,-0.13336181640625,0.983642578125
1629370452507,-0.09661865234375,-0.1380615234375,0.98333740234375
1629370452508,-0.09942626953125,-0.13427734375,0.98333740234375
1629370452508,-0.09954833984375,-0.139892578125,0.9842529296875
1629370452568,-0.10272216796875,-0.13671875,0.98040771484375
1629370452569,-0.10174560546875,-0.13568115234375,0.98211669921875
1629370452569,-0.1007080078125,-0.13702392578125,0.9810791015625
1629370452596,-0.10321044921875,-0.13812255859375,0.97894287109375
1629370452600,-0.10205078125,-0.13824462890625,0.98004150390625
1629370452602,-0.10479736328125,-0.139892578125,0.98162841796875
1629370452689,-0.10064697265625,-0.136962890625,0.983154296875
1629370452689,-0.1011962890625,-0.13720703125,0.9814453125
1629370452692,-0.1004638671875,-0.13787841796875,0.9801025390625
1629370452768,-0.10009765625,-0.13372802734375,0.9853515625
1629370452768,-0.1005859375,-0.1351318359375,0.98480224609375
1629370452768,-0.0986328125,-0.1336669921875,0.98541259765625
1629370452801,-0.10137939453125,-0.1317138671875,0.9840087890625
1629370452801,-0.10015869140625,-0.13189697265625,0.981201171875
1629370452801,-0.1004638671875,-0.13360595703125,0.98016357421875
1629370452831,-0.09893798828125,-0.1326904296875,0.9835205078125
1629370452831,-0.101806640625,-0.134521484375,0.984130859375
1629370452832,-0.0999755859375,-0.13323974609375,0.98260498046875
1629370453067,-0.1011962890625,-0.13818359375,0.98321533203125
1629370453068,-0.10430908203125,-0.13470458984375,0.98046875
1629370453069,-0.10540771484375,-0.13946533203125,0.98223876953125
1629370453141,-0.1090087890625,-0.13323974609375,0.980712890625
1629370453142,-0.10565185546875,-0.1356201171875,0.979736328125
1629370453147,-0.10772705078125,-0.13287353515625,0.9796142578125
1629370453185,-0.109130859375,-0.132080078125,0.97906494140625
1629370453189,-0.111328125,-0.1324462890625,0.97711181640625
1629370453192,-0.11077880859375,-0.13421630859375,0.97930908203125
1629370453245,-0.10791015625,-0.13812255859375,0.9776611328125
1629370453246,-0.1116943359375,-0.1346435546875,0.978271484375
1629370453247,-0.1058349609375,-0.13824462890625,0.982177734375
1629370453310,-0.10345458984375,-0.136962890625,0.9813232421875
1629370453311,-0.10479736328125,-0.13677978515625,0.982177734375
1629370453312,-0.10015869140625,-0.1319580078125,0.98663330078125
1629370453333,-0.09930419921875,-0.12982177734375,0.98480224609375
1629370453334,-0.10009765625,-0.12908935546875,0.98486328125
1629370453335,-0.1026611328125,-0.12335205078125,0.98779296875
1629370453378,-0.1046142578125,-0.12945556640625,0.988037109375
1629370453381,-0.1026611328125,-0.1298828125,0.98583984375
1629370453382,-0.103759765625,-0.1343994140625,0.9837646484375
1629370453397,-0.10162353515625,-0.13397216796875,0.9827880859375
1629370453399,-0.10589599609375,-0.13226318359375,0.97943115234375
1629370453400,-0.10723876953125,-0.1329345703125,0.979248046875
1629370453459,-0.1041259765625,-0.13336181640625,0.97796630859375
1629370453460,-0.1055908203125,-0.13800048828125,0.98004150390625
1629370453461,-0.10821533203125,-0.13897705078125,0.9810791015625
1629370453532,-0.10498046875,-0.135009765625,0.982666015625
1629370453533,-0.1044921875,-0.13818359375,0.98309326171875
1629370453533,-0.1080322265625,-0.13726806640625,0.9814453125
1629370453535,-0.10626220703125,-0.13671875,0.98016357421875
1629370453546,-0.10308837890625,-0.1365966796875,0.98175048828125
1629370453546,-0.1051025390625,-0.13897705078125,0.984619140625
1629370453573,-0.10662841796875,-0.1357421875,0.98193359375
1629370453574,-0.1026611328125,-0.13507080078125,0.9810791015625
1629370453574,-0.108154296875,-0.136474609375,0.9796142578125
1629370453706,-0.10614013671875,-0.13604736328125,0.9827880859375
1629370453707,-0.10479736328125,-0.138916015625,0.98370361328125
1629370453707,-0.10546875,-0.13909912109375,0.98541259765625
1629370453738,-0.1063232421875,-0.13092041015625,0.983642578125
1629370453740,-0.10345458984375,-0.13427734375,0.9786376953125
1629370453752,-0.10406494140625,-0.13543701171875,0.98602294921875
1629370453846,-0.10888671875,-0.13629150390625,0.97979736328125
1629370453846,-0.10845947265625,-0.13720703125,0.981689453125
1629370453847,-0.10498046875,-0.13421630859375,0.9822998046875
1629370453877,-0.1094970703125,-0.13812255859375,0.9805908203125
1629370453877,-0.11053466796875,-0.1337890625,0.97772216796875
1629370453878,-0.108154296875,-0.136474609375,0.98004150390625
1629370453969,-0.1104736328125,-0.13287353515625,0.9776611328125
1629370453969,-0.1077880859375,-0.13067626953125,0.9822998046875
1629370453970,-0.1077880859375,-0.13348388671875,0.98223876953125
1629370454010,-0.10699462890625,-0.1346435546875,0.98455810546875
1629370454012,-0.1104736328125,-0.1346435546875,0.9840087890625
1629370454015,-0.1082763671875,-0.137451171875,0.980224609375
1629370454059,-0.1033935546875,-0.13671875,0.9840087890625
1629370454061,-0.10443115234375,-0.13128662109375,0.985595703125
1629370454062,-0.10540771484375,-0.1336669921875,0.99005126953125
1629370454103,-0.106689453125,-0.133056640625,0.98834228515625
1629370454104,-0.1075439453125,-0.13421630859375,0.99737548828125
1629370454105,-0.10406494140625,-0.1339111328125,0.97882080078125
1629370454171,-0.11480712890625,-0.12835693359375,0.97418212890625
1629370454177,-0.1094970703125,-0.1336669921875,0.98870849609375
1629370454179,-0.11480712890625,-0.13128662109375,0.9814453125
1629370454180,-0.1168212890625,-0.13641357421875,0.99896240234375
1629370454181,-0.11151123046875,-0.13037109375,0.9814453125
1629370454184,-0.1168212890625,-0.13409423828125,0.980712890625
1629370454231,-0.1195068359375,-0.13946533203125,0.976318359375
1629370454232,-0.1204833984375,-0.1414794921875,0.97210693359375
1629370454257,-0.1175537109375,-0.1453857421875,0.96966552734375
1629370454295,-0.116943359375,-0.14031982421875,0.96356201171875
1629370454362,-0.1185302734375,-0.13226318359375,0.9808349609375
1629370454362,-0.115966796875,-0.12603759765625,0.97528076171875
1629370454363,-0.11578369140625,-0.1239013671875,0.9825439453125
1629370454400,-0.1181640625,-0.1220703125,0.97607421875
1629370454401,-0.11865234375,-0.12469482421875,0.980224609375
1629370454402,-0.12200927734375,-0.12652587890625,0.9888916015625
1629370454436,-0.11846923828125,-0.1253662109375,0.98858642578125
1629370454437,-0.12310791015625,-0.12652587890625,0.9710693359375
1629370454437,-0.12213134765625,-0.1275634765625,0.99896240234375
1629370454507,-0.1256103515625,-0.12969970703125,0.969482421875
1629370454507,-0.126220703125,-0.130615234375,0.96368408203125
1629370454518,-0.125732421875,-0.12640380859375,0.97882080078125
1629370454624,-0.124267578125,-0.13201904296875,0.9808349609375
1629370454624,-0.1302490234375,-0.132080078125,0.98284912109375
1629370454625,-0.12799072265625,-0.13421630859375,0.9791259765625
1629370454725,-0.12567138671875,-0.1312255859375,0.97210693359375
1629370454725,-0.12396240234375,-0.12689208984375,0.97998046875
1629370454726,-0.124267578125,-0.12646484375,0.97314453125
1629370454788,-0.12554931640625,-0.1224365234375,0.984619140625
1629370454789,-0.121826171875,-0.12542724609375,0.98150634765625
1629370454789,-0.12457275390625,-0.12603759765625,0.9827880859375
1629370454838,-0.12713623046875,-0.123046875,0.984375
1629370454838,-0.12579345703125,-0.124755859375,0.98406982421875
1629370454839,-0.1273193359375,-0.12432861328125,0.97509765625
1629370454877,-0.12957763671875,-0.12353515625,0.9764404296875
1629370454879,-0.1270751953125,-0.1229248046875,0.977783203125
1629370454881,-0.12945556640625,-0.12432861328125,0.97705078125
1629370454917,-0.1309814453125,-0.12530517578125,0.97625732421875
1629370454919,-0.1268310546875,-0.12652587890625,0.97723388671875
1629370454922,-0.12860107421875,-0.12213134765625,0.9830322265625
1629370454982,-0.12646484375,-0.12493896484375,0.98040771484375
1629370454984,-0.12738037109375,-0.12286376953125,0.98333740234375
1629370454986,-0.12481689453125,-0.1204833984375,0.98651123046875
1629370455059,-0.1231689453125,-0.11737060546875,0.98040771484375
1629370455061,-0.1221923828125,-0.1138916015625,0.978271484375
1629370455062,-0.12060546875,-0.11688232421875,0.9813232421875
1629370455091,-0.12420654296875,-0.1181640625,0.9862060546875
1629370455092,-0.12286376953125,-0.117919921875,0.98077392578125
1629370455093,-0.1240234375,-0.1185302734375,0.98388671875
1629370455140,-0.12945556640625,-0.1217041015625,0.980712890625
1629370455142,-0.1251220703125,-0.12249755859375,0.98309326171875
1629370455145,-0.12347412109375,-0.12506103515625,0.97509765625
1629370455174,-0.12335205078125,-0.1256103515625,0.979736328125
1629370455176,-0.1273193359375,-0.1265869140625,0.98175048828125
1629370455177,-0.12554931640625,-0.12591552734375,0.98193359375
1629370455257,-0.12396240234375,-0.12664794921875,0.98291015625
1629370455257,-0.124267578125,-0.1195068359375,0.98028564453125
1629370455262,-0.12591552734375,-0.1209716796875,0.98114013671875
1629370455368,-0.12615966796875,-0.11724853515625,0.98553466796875
1629370455369,-0.12835693359375,-0.1197509765625,0.98046875
1629370455369,-0.13018798828125,-0.11724853515625,0.9818115234375
1629370455385,-0.12811279296875,-0.1207275390625,0.98040771484375
1629370455386,-0.12725830078125,-0.12384033203125,0.983154296875
1629370455389,-0.12872314453125,-0.12261962890625,0.97589111328125
1629370455405,-0.1279296875,-0.1236572265625,0.97967529296875
1629370455408,-0.125732421875,-0.12445068359375,0.98046875
1629370455410,-0.125732421875,-0.12310791015625,0.97369384765625
1629370455469,-0.128173828125,-0.1214599609375,0.983642578125
1629370455471,-0.12957763671875,-0.12103271484375,0.97955322265625
1629370455473,-0.1263427734375,-0.11846923828125,0.978759765625
1629370455540,-0.12939453125,-0.1219482421875,0.9786376953125
1629370455540,-0.12457275390625,-0.12127685546875,0.97894287109375
1629370455542,-0.130615234375,-0.12322998046875,0.9801025390625
1629370455586,-0.125244140625,-0.12548828125,0.982177734375
1629370455587,-0.12750244140625,-0.1240234375,0.98333740234375
1629370455602,-0.129150390625,-0.12652587890625,0.981689453125
1629370455634,-0.127685546875,-0.12640380859375,0.982666015625
1629370455634,-0.1270751953125,-0.12359619140625,0.979248046875
1629370455634,-0.1279296875,-0.121337890625,0.98175048828125
1629370455673,-0.130126953125,-0.1239013671875,0.97821044921875
1629370455673,-0.12933349609375,-0.12615966796875,0.9833984375
1629370455689,-0.130615234375,-0.123291015625,0.9765625
1629370455787,-0.131103515625,-0.1251220703125,0.9832763671875
1629370455787,-0.130615234375,-0.1248779296875,0.97967529296875
1629370455788,-0.129150390625,-0.12750244140625,0.982421875
1629370455889,-0.13067626953125,-0.1224365234375,0.9803466796875
1629370455889,-0.13055419921875,-0.12310791015625,0.979736328125
1629370455889,-0.12799072265625,-0.12493896484375,0.97998046875
1629370455949,-0.132080078125,-0.1251220703125,0.9808349609375
1629370455963,-0.13116455078125,-0.12774658203125,0.97772216796875
1629370455964,-0.1285400390625,-0.1282958984375,0.98138427734375
1629370456074,-0.13055419921875,-0.12493896484375,0.97613525390625
1629370456076,-0.13067626953125,-0.12322998046875,0.97808837890625
1629370456078,-0.13153076171875,-0.124755859375,0.978271484375
1629370456107,-0.135009765625,-0.1214599609375,0.97698974609375
1629370456108,-0.129638671875,-0.12188720703125,0.97607421875
1629370456109,-0.1292724609375,-0.12445068359375,0.98297119140625
1629370456139,-0.13031005859375,-0.126220703125,0.9791259765625
1629370456140,-0.129638671875,-0.12359619140625,0.980224609375
1629370456142,-0.12530517578125,-0.12054443359375,0.98248291015625
1629370456185,-0.1278076171875,-0.1217041015625,0.98101806640625
1629370456186,-0.1256103515625,-0.12347412109375,0.98095703125
1629370456187,-0.12628173828125,-0.12054443359375,0.97918701171875
1629370456252,-0.12579345703125,-0.119140625,0.9835205078125
1629370456253,-0.12890625,-0.118896484375,0.978515625
1629370456254,-0.12945556640625,-0.11962890625,0.9815673828125
1629370456295,-0.13018798828125,-0.1226806640625,0.97991943359375
1629370456296,-0.1282958984375,-0.12078857421875,0.98199462890625
1629370456297,-0.13140869140625,-0.1197509765625,0.9820556640625
1629370456316,-0.1273193359375,-0.120361328125,0.98199462890625
1629370456318,-0.12713623046875,-0.1190185546875,0.97686767578125
1629370456318,-0.13238525390625,-0.12481689453125,0.9786376953125
1629370456405,-0.12896728515625,-0.1239013671875,0.9775390625
1629370456405,-0.128662109375,-0.12017822265625,0.9774169921875
1629370456411,-0.12908935546875,-0.11846923828125,0.97601318359375
1629370456458,-0.129150390625,-0.12005615234375,0.9825439453125
1629370456460,-0.12786865234375,-0.12274169921875,0.97711181640625
1629370456463,-0.12969970703125,-0.1246337890625,0.98138427734375
1629370456541,-0.13037109375,-0.12237548828125,0.97796630859375
1629370456543,-0.12994384765625,-0.12322998046875,0.97698974609375
1629370456543,-0.12969970703125,-0.12603759765625,0.9775390625
1629370456569,-0.1304931640625,-0.12255859375,0.97454833984375
1629370456570,-0.12969970703125,-0.121826171875,0.9766845703125
1629370456572,-0.12725830078125,-0.12347412109375,0.971435546875
1629370456613,-0.12799072265625,-0.1180419921875,0.99542236328125
1629370456613,-0.12554931640625,-0.1021728515625,1.00115966796875
1629370456614,-0.1217041015625,-0.06036376953125,1.006103515625
1629370456664,-0.11785888671875,-0.0335693359375,1.00360107421875
1629370456665,-0.11767578125,-0.05224609375,1.0103759765625
1629370456789,-0.1162109375,-0.0631103515625,0.9976806640625
1629370456789,-0.12554931640625,-0.076904296875,0.98602294921875
1629370456789,-0.1248779296875,-0.0758056640625,0.9903564453125
1629370456804,-0.1375732421875,-0.1021728515625,0.975341796875
1629370456804,-0.132080078125,-0.08984375,0.98577880859375
1629370456804,-0.12945556640625,-0.08203125,0.9876708984375
1629370456940,-0.14910888671875,-0.1285400390625,0.971923828125
1629370456940,-0.1544189453125,-0.132080078125,0.97174072265625
1629370456940,-0.14215087890625,-0.123779296875,0.96600341796875
1629370457020,-0.1650390625,-0.13519287109375,0.96435546875
1629370457021,-0.15771484375,-0.138427734375,0.9732666015625
1629370457024,-0.1641845703125,-0.13385009765625,0.96844482421875
1629370457054,-0.172607421875,-0.13531494140625,0.96978759765625
1629370457055,-0.16845703125,-0.14056396484375,0.96240234375
1629370457055,-0.17950439453125,-0.1220703125,0.9696044921875
1629370457055,-0.17742919921875,-0.12652587890625,0.97247314453125
1629370457061,-0.16766357421875,-0.1387939453125,0.96624755859375
1629370457061,-0.17388916015625,-0.1441650390625,0.96343994140625
1629370457139,-0.18414306640625,-0.1197509765625,0.97113037109375
1629370457141,-0.1822509765625,-0.1182861328125,0.96771240234375
1629370457143,-0.18048095703125,-0.12164306640625,0.9674072265625
1629370457182,-0.183837890625,-0.11578369140625,0.96685791015625
1629370457184,-0.1844482421875,-0.1131591796875,0.971435546875
1629370457188,-0.18463134765625,-0.10528564453125,0.97491455078125
1629370457245,-0.184814453125,-0.0985107421875,0.97613525390625
1629370457246,-0.1827392578125,-0.0994873046875,0.97894287109375
1629370457248,-0.186767578125,-0.1005859375,0.97064208984375
1629370457267,-0.19195556640625,-0.1064453125,0.974609375
1629370457268,-0.190185546875,-0.10321044921875,0.97125244140625
1629370457268,-0.19366455078125,-0.10321044921875,0.9700927734375
1629370457312,-0.19195556640625,-0.10076904296875,0.97283935546875
1629370457315,-0.19512939453125,-0.10296630859375,0.96661376953125
1629370457315,-0.19757080078125,-0.10107421875,0.96728515625
1629370457352,-0.19818115234375,-0.1019287109375,0.96746826171875
1629370457353,-0.20489501953125,-0.11065673828125,0.96099853515625
1629370457353,-0.20166015625,-0.10809326171875,0.96429443359375
1629370457422,-0.20025634765625,-0.1015625,0.96917724609375
1629370457422,-0.19952392578125,-0.10504150390625,0.96783447265625
1629370457423,-0.2041015625,-0.10528564453125,0.96856689453125
1629370457441,-0.198974609375,-0.09307861328125,0.97119140625
1629370457443,-0.2020263671875,-0.09942626953125,0.96783447265625
1629370457456,-0.2008056640625,-0.1048583984375,0.964111328125
1629370457549,-0.19940185546875,-0.0904541015625,0.9700927734375
1629370457552,-0.20367431640625,-0.08941650390625,0.97222900390625
1629370457553,-0.20037841796875,-0.09393310546875,0.97467041015625
1629370457580,-0.20037841796875,-0.09368896484375,0.96551513671875
1629370457580,-0.20318603515625,-0.09222412109375,0.97222900390625
1629370457581,-0.20062255859375,-0.0946044921875,0.96978759765625
1629370457610,-0.207763671875,-0.09857177734375,0.9622802734375
1629370457610,-0.20440673828125,-0.09771728515625,0.9671630859375
1629370457610,-0.2060546875,-0.0985107421875,0.96148681640625
1629370457741,-0.21331787109375,-0.098876953125,0.958740234375
1629370457741,-0.21453857421875,-0.1009521484375,0.9566650390625
1629370457743,-0.2132568359375,-0.09454345703125,0.960205078125
1629370457772,-0.221435546875,-0.12896728515625,0.93023681640625
1629370457774,-0.21942138671875,-0.12066650390625,0.9429931640625
1629370457774,-0.21563720703125,-0.10882568359375,0.94720458984375
1629370457780,-0.21435546875,-0.13812255859375,0.9334716796875
1629370457780,-0.221435546875,-0.13665771484375,0.92852783203125
1629370457781,-0.2115478515625,-0.13763427734375,0.9429931640625
1629370457860,-0.20458984375,-0.1407470703125,0.94622802734375
1629370457860,-0.196044921875,-0.13165283203125,0.95733642578125
1629370457867,-0.1854248046875,-0.12628173828125,0.96514892578125
1629370457950,-0.1649169921875,-0.1138916015625,0.9725341796875
1629370457950,-0.15997314453125,-0.11083984375,0.9683837890625
1629370457950,-0.1793212890625,-0.12042236328125,0.9697265625
1629370458195,-0.151611328125,-0.1072998046875,0.97344970703125
1629370458197,-0.14361572265625,-0.1024169921875,0.9776611328125
1629370458200,-0.13671875,-0.10723876953125,0.981201171875
1629370458278,-0.13043212890625,-0.12493896484375,0.97222900390625
1629370458280,-0.1243896484375,-0.13690185546875,0.96600341796875
1629370458282,-0.1229248046875,-0.1407470703125,0.965576171875
1629370458317,-0.11627197265625,-0.14007568359375,0.9608154296875
1629370458319,-0.1109619140625,-0.1324462890625,0.93804931640625
1629370458322,-0.10467529296875,-0.11846923828125,0.92901611328125
1629370458384,-0.09039306640625,-0.0853271484375,0.92388916015625
1629370458392,-0.0699462890625,-0.0628662109375,0.93115234375
1629370458394,-0.0548095703125,-0.04254150390625,0.96087646484375
1629370458454,-0.03704833984375,-0.02276611328125,0.95166015625
1629370458455,-0.01861572265625,-0.0081787109375,0.9482421875
1629370458458,0.00311279296875,0.0015869140625,0.9520263671875
1629370458531,0.02337646484375,0.02239990234375,0.9439697265625
1629370458533,0.053466796875,0.0343017578125,0.9527587890625
1629370458534,0.0853271484375,0.04327392578125,0.9644775390625
1629370458550,0.1097412109375,0.0548095703125,0.98291015625
1629370458552,0.13470458984375,0.0592041015625,1.00244140625
1629370458554,0.16387939453125,0.05828857421875,1.012451171875
1629370458585,0.18572998046875,0.062255859375,1.0255126953125
1629370458586,0.20245361328125,0.05145263671875,1.01300048828125
1629370458588,0.2225341796875,0.05718994140625,0.99664306640625
1629370458632,0.24285888671875,0.06427001953125,0.9830322265625
1629370458634,0.25848388671875,0.06378173828125,0.98846435546875
1629370458635,0.27490234375,0.06573486328125,1.004638671875
1629370458652,0.28302001953125,0.0777587890625,0.99407958984375
1629370458653,0.292724609375,0.07452392578125,0.9686279296875
1629370458728,0.3310546875,0.08575439453125,0.94293212890625
1629370458730,0.35418701171875,0.08819580078125,0.95294189453125
1629370458732,0.37677001953125,0.08856201171875,0.972412109375
1629370458766,0.3924560546875,0.0958251953125,0.9827880859375
1629370458769,0.40997314453125,0.09967041015625,0.977294921875
1629370458772,0.422607421875,0.10693359375,0.98199462890625
1629370458823,0.4306640625,0.11767578125,0.975341796875
1629370458824,0.44342041015625,0.12103271484375,0.96783447265625
1629370458825,0.45050048828125,0.12249755859375,0.97021484375
1629370458859,0.455078125,0.121337890625,0.97119140625
1629370458861,0.45245361328125,0.11993408203125,0.95928955078125
1629370458862,0.44573974609375,0.115966796875,0.95013427734375
1629370458880,0.44146728515625,0.11602783203125,0.940673828125
1629370458882,0.43902587890625,0.12103271484375,0.93585205078125
1629370458883,0.44049072265625,0.12542724609375,0.933837890625
1629370458938,0.42999267578125,0.13031005859375,0.936767578125
1629370458938,0.4296875,0.13226318359375,0.93939208984375
1629370458938,0.43487548828125,0.13177490234375,0.939697265625
1629370458956,0.42779541015625,0.12872314453125,0.93389892578125
1629370458957,0.4207763671875,0.12255859375,0.92413330078125
1629370458960,0.42034912109375,0.1253662109375,0.93646240234375
1629370459003,0.412109375,0.12835693359375,0.94659423828125
1629370459009,0.40887451171875,0.134033203125,0.943115234375
1629370459015,0.40509033203125,0.1334228515625,0.93609619140625
1629370459046,0.39141845703125,0.131103515625,0.93896484375
1629370459046,0.400634765625,0.13201904296875,0.9373779296875
1629370459046,0.3941650390625,0.1334228515625,0.93756103515625
1629370459123,0.37213134765625,0.123291015625,0.93756103515625
1629370459123,0.38507080078125,0.12884521484375,0.94598388671875
1629370459124,0.38092041015625,0.12481689453125,0.94720458984375
1629370459172,0.3651123046875,0.1219482421875,0.94482421875
1629370459176,0.36492919921875,0.121826171875,0.93756103515625
1629370459186,0.35455322265625,0.119384765625,0.9471435546875
1629370459223,0.3516845703125,0.114501953125,0.9371337890625
1629370459226,0.351806640625,0.11737060546875,0.94256591796875
1629370459230,0.34246826171875,0.11346435546875,0.9388427734375
1629370459304,0.34503173828125,0.11328125,0.93731689453125
1629370459306,0.34295654296875,0.1226806640625,0.9454345703125
1629370459308,0.3402099609375,0.1265869140625,0.94793701171875
1629370459404,0.33489990234375,0.114990234375,0.94989013671875
1629370459404,0.333740234375,0.12335205078125,0.94891357421875
1629370459404,0.33258056640625,0.12872314453125,0.94854736328125
1629370459407,0.33868408203125,0.12640380859375,0.9508056640625
1629370459408,0.337890625,0.1334228515625,0.946044921875
1629370459408,0.33514404296875,0.132080078125,0.94757080078125
1629370459436,0.32647705078125,0.10516357421875,0.9493408203125
1629370459436,0.3238525390625,0.09613037109375,0.94940185546875
1629370459439,0.32122802734375,0.088623046875,0.94891357421875
1629370459512,0.312744140625,0.0794677734375,0.95758056640625
1629370459514,0.317138671875,0.0823974609375,0.95068359375
1629370459517,0.315673828125,0.0789794921875,0.95111083984375
1629370459606,0.31072998046875,0.07647705078125,0.96246337890625
1629370459608,0.307373046875,0.07415771484375,0.96246337890625
1629370459608,0.30010986328125,0.0679931640625,0.96514892578125
1629370459619,0.29864501953125,0.058837890625,0.9677734375
1629370459621,0.296630859375,0.05426025390625,0.962158203125
1629370459624,0.290283203125,0.0462646484375,0.9715576171875
1629370459680,0.28582763671875,0.0389404296875,0.97320556640625
1629370459682,0.27886962890625,0.0355224609375,0.9736328125
1629370459684,0.277099609375,0.02984619140625,0.9727783203125
1629370459751,0.25994873046875,0.01678466796875,0.96636962890625
1629370459751,0.26788330078125,0.02301025390625,0.9644775390625
1629370459751,0.25616455078125,0.015625,0.9703369140625
1629370459831,0.24169921875,0.0107421875,0.9678955078125
1629370459832,0.2523193359375,0.0101318359375,0.9677734375
1629370459835,0.24041748046875,0.00640869140625,0.96600341796875
1629370459906,0.23724365234375,0.00421142578125,0.9677734375
1629370459909,0.234375,-0.00030517578125,0.96905517578125
1629370459913,0.23394775390625,-0.00701904296875,0.97601318359375
1629370459949,0.2305908203125,-0.01055908203125,0.9771728515625
1629370459951,0.23065185546875,-0.01617431640625,0.9791259765625
1629370459953,0.2255859375,-0.019287109375,0.9849853515625
1629370460016,0.221923828125,-0.02288818359375,0.9771728515625
1629370460017,0.213623046875,-0.0233154296875,0.98223876953125
1629370460017,0.21600341796875,-0.02545166015625,0.9801025390625
1629370460126,0.21417236328125,-0.022216796875,0.98406982421875
1629370460127,0.20849609375,-0.0211181640625,0.98333740234375
1629370460128,0.20745849609375,-0.01483154296875,0.97857666015625
1629370460180,0.2047119140625,-0.013916015625,0.977294921875
1629370460182,0.20220947265625,-0.0103759765625,0.97589111328125
1629370460184,0.200927734375,-0.0128173828125,0.97515869140625
