timestamp,ax,ay,az
1629897910161,-0.447313,-0.03294,0.877973
1629897910171,-0.448777,-0.031171,0.878034
1629897910180,-0.449143,-0.030012,0.8751059999999999
1629897910190,-0.449204,-0.02867,0.87291
1629897910200,-0.451583,-0.026352,0.875228
1629897910209,-0.452132,-0.027389,0.877119
1629897910219,-0.45170499999999997,-0.030866,0.875045
1629897910228,-0.450424,-0.034099,0.872727
1629897910238,-0.450668,-0.034159999999999996,0.8726659999999999
1629897910248,-0.451827,-0.033306,0.875289
1629897910257,-0.45078999999999997,-0.03294,0.878644
1629897910267,-0.45109499999999997,-0.033367,0.881633
1629897910276,-0.451156,-0.033428,0.884195
1629897910286,-0.450119,-0.034953,0.885415
1629897910296,-0.449082,-0.03721,0.8845609999999999
1629897910305,-0.448106,-0.037942,0.88328
1629897910315,-0.44773999999999997,-0.037881,0.88267
1629897910324,-0.447496,-0.037698,0.8821209999999999
1629897910334,-0.446764,-0.03721,0.881145
1629897910344,-0.446398,-0.036173,0.8827309999999999
1629897910353,-0.446215,-0.035502,0.88206
1629897910363,-0.444995,-0.034038,0.88145
1629897910372,-0.44426299999999996,-0.033367,0.880535
1629897910382,-0.44469,-0.032085999999999996,0.879132
1629897910392,-0.44395799999999996,-0.032635,0.878888
1629897910401,-0.444141,-0.031476,0.877485
1629897910411,-0.44426299999999996,-0.030317,0.877729
1629897910420,-0.444202,-0.029341,0.8772409999999999
1629897910430,-0.444202,-0.028791999999999998,0.878339
1629897910440,-0.444019,-0.028975,0.878705
1629897910449,-0.4453,-0.029158,0.8784
1629897192372,-0.6335459999999999,0.15481799999999998,0.7345619999999999
1629897192382,-0.633485,0.15494,0.735416
1629897192392,-0.6329359999999999,0.15433,0.735721
1629897192401,-0.631899,0.15359799999999998,0.73505
1629897192411,-0.631472,0.153842,0.7351719999999999
1629897192420,-0.632753,0.15372,0.735355
1629897192430,-0.6326309999999999,0.15372,0.735538
1629897192440,-0.6320209999999999,0.15512299999999998,0.735355
1629897192449,-0.6317159999999999,0.154696,0.734806
1629897192459,-0.632509,0.155245,0.734501
1629897192468,-0.633302,0.15677,0.734501
1629897192478,-0.634095,0.157014,0.733708
1629897192488,-0.6347659999999999,0.156465,0.731573
1629897192497,-0.633485,0.157807,0.73139
1629897192507,-0.635437,0.158173,0.73261
1629897192516,-0.635498,0.15921,0.73322
1629897192526,-0.634949,0.159881,0.730414
1629897192536,-0.63684,0.16226,0.732
1629897192545,-0.636474,0.16287,0.7345619999999999
1629897192555,-0.635925,0.159942,0.734074
1629897192564,-0.635132,0.154452,0.7324269999999999
1629897192574,-0.634278,0.153415,0.731634
1629897192584,-0.6350709999999999,0.153842,0.733098
1629897192593,-0.634217,0.155184,0.7357819999999999
1629897192603,-0.63318,0.155428,0.73688
1629897192612,-0.6338509999999999,0.155855,0.738283
1629897192622,-0.6338509999999999,0.156282,0.7385269999999999
1629897192632,-0.634278,0.155184,0.73749
1629897192641,-0.6338509999999999,0.154696,0.736026
1629897192651,-0.6335459999999999,0.153354,0.733708
1629897192660,-0.633058,0.152744,0.732305
1629897192670,-0.634095,0.15372,0.731146
1629897192680,-0.633363,0.155306,0.733586
1629897192689,-0.634217,0.156038,0.73444
1629897192699,-0.6344,0.156892,0.734745
1629897192708,-0.6344,0.157685,0.734318
1629897192718,-0.633912,0.157197,0.7342569999999999
1629897192728,-0.6335459999999999,0.156648,0.73383
1629897192737,-0.634034,0.156038,0.734745
1629897192747,-0.6341559999999999,0.155916,0.734074
1629897192756,-0.634583,0.156465,0.73505
1629897192766,-0.634644,0.157136,0.735538
1629897192776,-0.63501,0.156404,0.736819
1629897192785,-0.634095,0.15512299999999998,0.7366969999999999
1629897192795,-0.632265,0.154391,0.735843
1629897192804,-0.632753,0.157136,0.73566
1629897192814,-0.6329359999999999,0.158295,0.735538
1629897192824,-0.633058,0.158478,0.735111
1629897192833,-0.632265,0.155794,0.731573
1629897192843,-0.632814,0.155794,0.729194
1629897192852,-0.633302,0.157075,0.7293769999999999
1629897192862,-0.6329359999999999,0.157624,0.731756
1629897192872,-0.633668,0.159393,0.734928
1629897192881,-0.6344609999999999,0.15945399999999998,0.735843
1629897192891,-0.6350709999999999,0.15982,0.736026
1629897192900,-0.635498,0.15914899999999998,0.736514
1629897192910,-0.634949,0.159637,0.735416
1629897192920,-0.6344609999999999,0.15823399999999999,0.733281
1629897192929,-0.634644,0.157197,0.73261
1629897192939,-0.6341559999999999,0.157319,0.732061
1629897192948,-0.6320209999999999,0.157136,0.7327319999999999
1629897192958,-0.63257,0.157075,0.734318
1629897192968,-0.632997,0.156831,0.735111
1629897192977,-0.6326309999999999,0.156892,0.734379
1629897192987,-0.632204,0.15481799999999998,0.736941
1629897192996,-0.631472,0.15372,0.741028
1629897193006,-0.625921,0.148474,0.746579
1629897193016,-0.624091,0.141764,0.760792
1629897193025,-0.625494,0.136213,0.767868
1629897193035,-0.624579,0.133956,0.768173
1629897193044,-0.625433,0.135786,0.764025
1629897193054,-0.628178,0.138226,0.750483
1629897193064,-0.626348,0.135664,0.744261
1629897193073,-0.623603,0.13541999999999998,0.746518
1629897193083,-0.624091,0.132065,0.751947
1629897193092,-0.630069,0.142618,0.749812
1629897193102,-0.630191,0.144509,0.739564
1629897193112,-0.631594,0.147864,0.732366
1629897193121,-0.6344609999999999,0.152195,0.72529
1629897193131,-0.6365959999999999,0.157258,0.717421
1629897193140,-0.640927,0.163602,0.710711
1629897193150,-0.642818,0.16713999999999998,0.705099
1629897193160,-0.647149,0.173423,0.698572
1629897193169,-0.652273,0.179096,0.692533
1629897193179,-0.6572749999999999,0.184525,0.683871
1629897193188,-0.662826,0.191235,0.674538
1629897193198,-0.669048,0.20014099999999999,0.661606
1629897193208,-0.67588,0.209291,0.651541
1629897193217,-0.682468,0.219173,0.639097
1629897193227,-0.688568,0.227591,0.62891
1629897193236,-0.694912,0.234911,0.6198819999999999
1629897193246,-0.698206,0.24217,0.613843
1629897193256,-0.702415,0.24662299999999998,0.608353
1629897193265,-0.7065629999999999,0.250527,0.605486
1629897193275,-0.709979,0.252418,0.601094
1629897193284,-0.714249,0.256139,0.5964579999999999
1629897193294,-0.71858,0.26095799999999997,0.5931029999999999
1629897193304,-0.724558,0.267302,0.589809
1629897193313,-0.730658,0.272914,0.582794
1629897193323,-0.737368,0.279929,0.576145
1629897193332,-0.742431,0.28468699999999997,0.574376
1629897193342,-0.747189,0.285358,0.570228
1629897193352,-0.750056,0.283711,0.564433
1629897193361,-0.75091,0.283528,0.561688
1629897193371,-0.756522,0.289262,0.563335
1629897193380,-0.764513,0.297375,0.5617489999999999
1629897193390,-0.77165,0.303048,0.556808
1629897193400,-0.7774449999999999,0.307074,0.551928
1629897193409,-0.782447,0.309758,0.544974
1629897193419,-0.7856799999999999,0.310978,0.539057
1629897193428,-0.786839,0.309575,0.530517
1629897193438,-0.785497,0.30811099999999997,0.525454
1629897193448,-0.788059,0.30994099999999997,0.522404
1629897193457,-0.789828,0.31055099999999997,0.523685
1629897193467,-0.792939,0.312991,0.52521
1629897193476,-0.795135,0.313784,0.526308
1629897193486,-0.797392,0.313357,0.526918
1629897193496,-0.797514,0.311222,0.525881
1629897193505,-0.79788,0.30963599999999997,0.526491
1629897193515,-0.795745,0.307562,0.526735
1629897193524,-0.794769,0.306403,0.527467
1629897193534,-0.793,0.304817,0.52887
1629897193544,-0.792817,0.304024,0.530334
1629897193553,-0.792146,0.302377,0.531859
1629897193563,-0.789401,0.298107,0.533628
1629897193572,-0.7853749999999999,0.293227,0.533384
1629897193582,-0.780922,0.288286,0.534604
1629897193592,-0.777506,0.28365,0.537654
1629897193601,-0.773785,0.2806,0.542168
1629897193611,-0.771345,0.277367,0.546804
1629897193620,-0.768051,0.272182,0.551013
1629897193630,-0.765672,0.269498,0.555344
1629897193640,-0.76372,0.265411,0.559187
1629897193649,-0.7619509999999999,0.261995,0.561871
1629897193659,-0.7576809999999999,0.259189,0.5654089999999999
1629897193668,-0.753594,0.255102,0.566446
1629897193678,-0.7503,0.249246,0.567666
1629897193688,-0.746945,0.24479299999999998,0.5693739999999999
1629897193697,-0.744627,0.239669,0.57157
1629897193707,-0.744444,0.236375,0.57523
1629897193716,-0.744078,0.23302,0.581818
1629897193726,-0.743163,0.230458,0.587491
1629897193736,-0.743712,0.226798,0.592676
1629897193745,-0.743956,0.223138,0.597861
1629897193755,-0.742126,0.220332,0.604327
1629897193764,-0.740174,0.218258,0.608048
1629897193774,-0.738283,0.214415,0.610854
1629897193784,-0.736331,0.21215799999999999,0.614026
1629897193793,-0.735843,0.20996199999999998,0.618296
1629897193803,-0.736819,0.208315,0.625738
1629897193812,-0.738954,0.205936,0.632997
1629897193822,-0.739869,0.200629,0.638304
1629897193832,-0.7379169999999999,0.19550499999999998,0.640988
1629897193841,-0.734684,0.191418,0.644709
1629897193851,-0.733525,0.187026,0.650626
1629897193860,-0.728279,0.18196299999999999,0.660264
1629897193870,-0.722118,0.179279,0.669841
1629897193880,-0.715896,0.17580199999999999,0.67649
1629897193889,-0.710284,0.17238599999999998,0.680577
1629897193899,-0.70577,0.168787,0.682468
1629897193908,-0.701012,0.16958,0.68503
1629897193918,-0.69662,0.169092,0.68442
1629897193928,-0.691496,0.16897,0.682651
1629897193937,-0.682956,0.168787,0.67771
1629897193947,-0.67832,0.167628,0.67893
1629897193956,-0.676185,0.16530999999999998,0.682895
1629897193966,-0.67344,0.165432,0.6867989999999999
1629897193976,-0.669658,0.163663,0.6916789999999999
1629897193985,-0.665022,0.158722,0.69601
1629897193995,-0.660386,0.154452,0.699304
1629897194004,-0.654957,0.149328,0.7076
1629897194014,-0.651297,0.145424,0.715347
1629897194024,-0.651602,0.143594,0.723216
1629897194033,-0.651358,0.14274,0.7278519999999999
1629897194043,-0.650626,0.14219099999999998,0.7324269999999999
1629897194052,-0.649284,0.141764,0.7333419999999999
1629897194062,-0.646783,0.140117,0.734379
1629897194072,-0.6423909999999999,0.139141,0.730536
1629897194081,-0.63806,0.13725,0.729499
1629897194091,-0.63379,0.135969,0.7287669999999999
1629897194100,-0.632143,0.134322,0.7302919999999999
1629897194110,-0.629642,0.132919,0.734623
1629897194120,-0.626836,0.133102,0.737429
1629897194129,-0.625128,0.132614,0.738039
1629897194139,-0.624518,0.134017,0.7418819999999999
1629897194148,-0.622444,0.136274,0.742675
1629897194158,-0.6183569999999999,0.133407,0.739503
1629897194168,-0.612806,0.127978,0.732366
1629897194177,-0.610244,0.126026,0.7315119999999999
1629897194187,-0.6107319999999999,0.126697,0.733891
1629897194196,-0.611281,0.125355,0.73627
1629897194206,-0.611525,0.125965,0.738954
1629897194216,-0.611769,0.126453,0.740784
1629897194225,-0.61183,0.12749,0.74115
1629897194235,-0.613111,0.128527,0.743834
1629897194244,-0.615978,0.130723,0.745298
1629897194254,-0.617625,0.132797,0.748531
1629897194264,-0.6195769999999999,0.135298,0.749934
1629897194273,-0.622017,0.135542,0.750849
1629897194283,-0.623664,0.137311,0.7534109999999999
1629897194292,-0.624762,0.137067,0.754082
1629897194302,-0.624152,0.137616,0.752069
1629897194312,-0.622688,0.137433,0.753228
1629897194321,-0.621285,0.135969,0.753777
1629897194331,-0.619516,0.135908,0.755424
1629897194340,-0.618845,0.136823,0.755424
1629897194350,-0.618174,0.135969,0.754814
1629897194360,-0.617259,0.136152,0.754997
1629897194369,-0.617503,0.13725,0.75335
1629897194379,-0.618296,0.138226,0.752374
1629897194388,-0.620431,0.140727,0.752618
1629897194398,-0.6214069999999999,0.144875,0.752984
1629897194408,-0.619638,0.146583,0.749934
1629897194417,-0.618906,0.147803,0.745908
1629897194427,-0.620126,0.148535,0.744993
1629897194436,-0.624457,0.150853,0.746579
1629897194446,-0.626409,0.15006,0.747982
1629897194456,-0.626043,0.149023,0.747494
1629897194465,-0.62586,0.148718,0.748104
1629897194475,-0.624457,0.149145,0.747555
1629897194484,-0.622749,0.149206,0.745908
1629897194494,-0.621346,0.150792,0.743712
1629897194504,-0.620736,0.151341,0.740723
1629897194513,-0.620309,0.152622,0.736819
1629897194523,-0.621651,0.154696,0.735965
1629897194532,-0.624518,0.157014,0.736026
1629897194542,-0.624152,0.158783,0.734135
1629897194552,-0.624152,0.15945399999999998,0.732061
1629897194561,-0.624091,0.159332,0.729255
1629897194571,-0.623664,0.160003,0.726693
1629897194580,-0.623298,0.16097899999999998,0.72529
1629897194590,-0.624274,0.159881,0.72529
1629897194600,-0.624457,0.159393,0.7269369999999999
1629897194609,-0.626104,0.159088,0.730353
1629897194619,-0.626897,0.158783,0.731939
1629897194628,-0.62769,0.158295,0.7324269999999999
1629897194638,-0.6283,0.156526,0.7324269999999999
1629897194648,-0.630801,0.157319,0.733708
1629897194657,-0.63196,0.157685,0.7354769999999999
1629897194667,-0.6338509999999999,0.157868,0.736941
1629897194676,-0.633302,0.157746,0.7381
1629897194686,-0.635254,0.15799,0.738893
1629897194696,-0.635864,0.158478,0.740235
1629897194705,-0.6365959999999999,0.1586,0.741089
1629897194715,-0.637328,0.15853899999999999,0.741516
1629897194724,-0.637389,0.15921,0.741028
1629897194734,-0.637877,0.158417,0.73993
1629897194744,-0.636535,0.15884399999999999,0.7394419999999999
1629897194753,-0.636718,0.158966,0.737673
1629897194763,-0.6365959999999999,0.159332,0.737124
1629897194772,-0.6353759999999999,0.16036899999999998,0.73688
1629897194782,-0.6356809999999999,0.161162,0.73688
1629897194792,-0.635498,0.161467,0.735111
1629897194801,-0.635193,0.161223,0.734806
1629897194811,-0.6353759999999999,0.161894,0.7333419999999999
1629897194820,-0.6341559999999999,0.161833,0.732488
1629897194830,-0.6344,0.162321,0.732244
1629897194840,-0.634705,0.162504,0.732
1629897194849,-0.634522,0.163114,0.731939
1629897194859,-0.635132,0.16226,0.731756
1629897194868,-0.635559,0.162199,0.7312069999999999
1629897194878,-0.635437,0.160308,0.727608
1629897194888,-0.634888,0.157868,0.724253
1629897194897,-0.635559,0.157014,0.723216
1629897194907,-0.635925,0.157624,0.723704
1629897194916,-0.637145,0.159393,0.724314
1629897194926,-0.640378,0.161223,0.725534
1629897194936,-0.6433059999999999,0.16287,0.729743
1629897194945,-0.644282,0.160918,0.729743
1629897194955,-0.644465,0.156465,0.726205
1629897194964,-0.644404,0.154147,0.724009
1629897194974,-0.6454409999999999,0.154696,0.724375
1629897194984,-0.647088,0.156526,0.723887
1629897194993,-0.648552,0.157624,0.723948
1629897195003,-0.650687,0.160125,0.724192
1629897195012,-0.652151,0.161406,0.723887
1629897195022,-0.653371,0.162687,0.721996
1629897195032,-0.652578,0.163114,0.720654
1629897195041,-0.653188,0.163236,0.7184579999999999
1629897195051,-0.653432,0.162138,0.716201
1629897195060,-0.653005,0.16128399999999998,0.715042
1629897195070,-0.652029,0.161162,0.715652
1629897195080,-0.653188,0.161101,0.716506
1629897195089,-0.653249,0.161955,0.7178479999999999
1629897195099,-0.653188,0.163358,0.718031
1629897195108,-0.65331,0.163968,0.719129
1629897195118,-0.653554,0.163846,0.717787
1629897195128,-0.653737,0.165127,0.7175429999999999
1629897195137,-0.652456,0.164822,0.7172379999999999
1629897195147,-0.652883,0.166103,0.717787
1629897195156,-0.653066,0.165798,0.716811
1629897195166,-0.651419,0.165432,0.718397
1629897195176,-0.65148,0.165432,0.718092
1629897195185,-0.649467,0.165188,0.7172379999999999
1629897195195,-0.651297,0.169031,0.718031
1629897195204,-0.650504,0.17025099999999999,0.71736
1629897195214,-0.650443,0.170434,0.717604
1629897195224,-0.650138,0.168482,0.7147979999999999
1629897195233,-0.64965,0.168726,0.713822
1629897195243,-0.650016,0.17019,0.7126629999999999
1629897195252,-0.650748,0.169763,0.714432
1629897195262,-0.650382,0.170617,0.714859
1629897195272,-0.650199,0.171837,0.716567
1629897195281,-0.650138,0.172874,0.718946
1629897195291,-0.649101,0.17269099999999998,0.719861
1629897195300,-0.649345,0.17202,0.718214
1629897195310,-0.649345,0.171837,0.71797
1629897195320,-0.649955,0.170495,0.7181529999999999
1629897195329,-0.649833,0.170373,0.7181529999999999
1629897195339,-0.649406,0.170678,0.717116
1629897195348,-0.650382,0.170678,0.71736
1629897195358,-0.650809,0.1708,0.715286
1629897195368,-0.650748,0.17116599999999998,0.715225
1629897195377,-0.651419,0.170983,0.7151029999999999
1629897195387,-0.651907,0.17086099999999999,0.716384
1629897195396,-0.651541,0.170129,0.716872
1629897195406,-0.650992,0.167811,0.717116
1629897195416,-0.650016,0.166774,0.717482
1629897195425,-0.64965,0.165432,0.717604
1629897195435,-0.648918,0.16469999999999999,0.7184579999999999
1629897195444,-0.649345,0.163907,0.718885
1629897195454,-0.648308,0.16408999999999999,0.719556
1629897195464,-0.648735,0.164822,0.720593
1629897195473,-0.64904,0.165981,0.720288
1629897195483,-0.64843,0.167018,0.72163
1629897195492,-0.64904,0.167933,0.720776
1629897195502,-0.648857,0.169336,0.719983
1629897195512,-0.648369,0.168726,0.718031
1629897195521,-0.648857,0.168909,0.71736
1629897195531,-0.648552,0.169275,0.716506
1629897195540,-0.649406,0.170007,0.7166279999999999
1629897195550,-0.649406,0.170068,0.7178479999999999
1629897195560,-0.648186,0.169641,0.719434
1629897195569,-0.647576,0.169702,0.719373
1629897195579,-0.646966,0.16897,0.719617
1629897195588,-0.646905,0.169214,0.718702
1629897195598,-0.647515,0.169336,0.719312
1629897195608,-0.648369,0.169214,0.719007
1629897195617,-0.646783,0.168604,0.716567
1629897195627,-0.646234,0.168604,0.7172379999999999
1629897195636,-0.645258,0.168116,0.717299
1629897195646,-0.645502,0.169214,0.718641
1629897195656,-0.645929,0.170129,0.718702
1629897195665,-0.647149,0.171898,0.719312
1629897195675,-0.649406,0.171288,0.719983
1629897195684,-0.648308,0.168055,0.720532
1629897195694,-0.646661,0.163297,0.71797
1629897195704,-0.645624,0.162626,0.7184579999999999
1629897195713,-0.646234,0.165066,0.720837
1629897195723,-0.645929,0.166164,0.722789
1629897195732,-0.645502,0.166713,0.723155
1629897195742,-0.646661,0.16713999999999998,0.722362
1629897195752,-0.646356,0.167018,0.721081
1629897195761,-0.646783,0.16683499999999998,0.72041
1629897195771,-0.646722,0.166103,0.719434
1629897195780,-0.645929,0.166103,0.718519
1629897195790,-0.64599,0.164883,0.71797
1629897195800,-0.646417,0.164761,0.7184579999999999
1629897195809,-0.646844,0.165493,0.718824
1629897195819,-0.646661,0.165188,0.720715
1629897195828,-0.646844,0.165798,0.720654
1629897195838,-0.647454,0.165859,0.722972
1629897195848,-0.648003,0.16561499999999998,0.723216
1629897195857,-0.648064,0.16561499999999998,0.723155
1629897195867,-0.646844,0.16469999999999999,0.723216
1629897195876,-0.647393,0.164456,0.724009
1629897195886,-0.647088,0.163724,0.722728
1629897195896,-0.648369,0.163724,0.723887
1629897195905,-0.64782,0.16408999999999999,0.725412
1629897195915,-0.64721,0.162748,0.724924
1629897195924,-0.6451359999999999,0.162077,0.723155
1629897195934,-0.645319,0.166164,0.722362
1629897195944,-0.647088,0.167079,0.723826
1629897195953,-0.64721,0.169031,0.724558
1629897195963,-0.6457459999999999,0.166347,0.721386
1629897195972,-0.646234,0.166408,0.717604
1629897195982,-0.64599,0.166347,0.716994
1629897195992,-0.646173,0.167323,0.718214
1629897196001,-0.646722,0.16897,0.719129
1629897196011,-0.646905,0.170617,0.721874
1629897196020,-0.647515,0.170922,0.723094
1629897196030,-0.647088,0.171349,0.722606
1629897196040,-0.646844,0.169214,0.72163
1629897196049,-0.646112,0.168482,0.721386
1629897196059,-0.645258,0.166713,0.720593
1629897196068,-0.645502,0.166591,0.719556
1629897196078,-0.645258,0.16652999999999998,0.719739
1629897196088,-0.6451359999999999,0.16713999999999998,0.719434
1629897196097,-0.645502,0.16775,0.719922
1629897196107,-0.644648,0.167994,0.720349
1629897196116,-0.645624,0.168238,0.720959
1629897196126,-0.64477,0.168421,0.721142
1629897196136,-0.645258,0.168177,0.72224
1629897196145,-0.644343,0.167628,0.720288
1629897196155,-0.6442209999999999,0.167079,0.718519
1629897196164,-0.64416,0.166164,0.7184579999999999
1629897196174,-0.6439159999999999,0.16622499999999998,0.718275
1629897196184,-0.645014,0.167384,0.717726
1629897196193,-0.64538,0.168604,0.719556
1629897196203,-0.646173,0.169153,0.721325
1629897196212,-0.646356,0.169458,0.722301
1629897196222,-0.647759,0.169763,0.72285
1629897196232,-0.648308,0.169885,0.722423
1629897196241,-0.647698,0.169824,0.72224
1629897196251,-0.648064,0.17019,0.721325
1629897196260,-0.648247,0.17055599999999999,0.719922
1629897196270,-0.646844,0.17055599999999999,0.719556
1629897196280,-0.646417,0.170617,0.719556
1629897196289,-0.647027,0.170983,0.7198
1629897196299,-0.647027,0.171044,0.722484
1629897196308,-0.646051,0.170922,0.722667
1629897196318,-0.645319,0.170129,0.723582
1629897196328,-0.645014,0.170434,0.723094
1629897196337,-0.643977,0.170068,0.723338
1629897196347,-0.644099,0.169275,0.724131
1629897196356,-0.6433059999999999,0.168055,0.723155
1629897196366,-0.642025,0.16775,0.723887
1629897196376,-0.6414759999999999,0.168665,0.723887
1629897196385,-0.642208,0.169092,0.721996
1629897196395,-0.6414759999999999,0.1708,0.719678
1629897196404,-0.64355,0.173423,0.722484
1629897196414,-0.644648,0.174033,0.72407
1629897196424,-0.643794,0.16994599999999999,0.721325
1629897196433,-0.641842,0.165981,0.718031
1629897196443,-0.6414759999999999,0.166164,0.719434
1629897196452,-0.64111,0.167872,0.721447
1629897196462,-0.640927,0.168421,0.724009
1629897196472,-0.640744,0.16994599999999999,0.725717
1629897196481,-0.641354,0.169458,0.725778
1629897196491,-0.6414759999999999,0.16994599999999999,0.725229
1629897196500,-0.640988,0.169275,0.723948
1629897196510,-0.641049,0.168787,0.722423
1629897196520,-0.641293,0.168665,0.721386
1629897196529,-0.6417809999999999,0.168604,0.720471
1629897196539,-0.642635,0.169641,0.721203
1629897196548,-0.643733,0.171532,0.721813
1629897196558,-0.644099,0.171898,0.72163
1629897196568,-0.645197,0.17202,0.721874
1629897196577,-0.645624,0.171715,0.722301
1629897196587,-0.645014,0.172447,0.722118
1629897196596,-0.6457459999999999,0.170739,0.72285
1629897196606,-0.645258,0.170739,0.722606
1629897196616,-0.6454409999999999,0.170434,0.722118
1629897196625,-0.644953,0.169885,0.722972
1629897196635,-0.645075,0.169641,0.723826
1629897196644,-0.644709,0.16958,0.725473
1629897196654,-0.644465,0.168604,0.725412
1629897196664,-0.643794,0.167689,0.726388
1629897196673,-0.642513,0.16652999999999998,0.726022
1629897196683,-0.6423909999999999,0.168482,0.725412
1629897196692,-0.643428,0.169824,0.726266
1629897196702,-0.644099,0.17147099999999998,0.726144
1629897196712,-0.6439159999999999,0.17019,0.722606
1629897196721,-0.644709,0.168848,0.719739
1629897196731,-0.644404,0.169336,0.718946
1629897196740,-0.64477,0.170434,0.720227
1629897196750,-0.644709,0.17208099999999998,0.721508
1629897196760,-0.6457459999999999,0.173484,0.722545
1629897196769,-0.645014,0.173911,0.723216
1629897196779,-0.644648,0.173667,0.724131
1629897196788,-0.643855,0.173789,0.723094
1629897196798,-0.643672,0.173789,0.721874
1629897196808,-0.643245,0.172569,0.720715
1629897196817,-0.643245,0.17177599999999998,0.719678
1629897196827,-0.6439159999999999,0.172447,0.718885
1629897196836,-0.6439159999999999,0.172935,0.718946
1629897196846,-0.643672,0.172142,0.717787
1629897196856,-0.64416,0.17385,0.718397
1629897196865,-0.644648,0.174033,0.7190679999999999
1629897196875,-0.644465,0.17330099999999998,0.720288
1629897196884,-0.644282,0.173057,0.720837
1629897196894,-0.644343,0.173362,0.720654
1629897196904,-0.643245,0.172142,0.720837
1629897196913,-0.642879,0.172203,0.720837
1629897196923,-0.642635,0.17086099999999999,0.721264
1629897196932,-0.643245,0.17208099999999998,0.721691
1629897196942,-0.644282,0.17263,0.720959
1629897196952,-0.645258,0.173545,0.721447
1629897196961,-0.645685,0.17385,0.721142
1629897196971,-0.6457459999999999,0.173789,0.721508
1629897196980,-0.646112,0.173972,0.721325
1629897196990,-0.64538,0.173057,0.721325
1629897197000,-0.644648,0.172508,0.72102
1629897197009,-0.645197,0.172142,0.72224
1629897197019,-0.6445259999999999,0.173484,0.722545
1629897197028,-0.64538,0.172935,0.722972
1629897197038,-0.644587,0.172752,0.722728
1629897197048,-0.64416,0.171837,0.722667
1629897197057,-0.6426959999999999,0.17147099999999998,0.722545
1629897197067,-0.642757,0.17055599999999999,0.72285
1629897197076,-0.642574,0.17019,0.724497
1629897197086,-0.642635,0.16994599999999999,0.725717
1629897197096,-0.643184,0.169641,0.726388
1629897197105,-0.641659,0.169519,0.72651
1629897197115,-0.642025,0.169275,0.726205
1629897197124,-0.64233,0.16994599999999999,0.725656
1629897197134,-0.642879,0.1708,0.724924
1629897197144,-0.642025,0.1708,0.722362
1629897197153,-0.64233,0.171654,0.723643
1629897197163,-0.6430009999999999,0.172813,0.723277
1629897197172,-0.642452,0.17385,0.721325
1629897197182,-0.643123,0.175497,0.719312
1629897197192,-0.64416,0.177754,0.720959
1629897197201,-0.644343,0.177876,0.722667
1629897197211,-0.644587,0.173972,0.720837
1629897197220,-0.643428,0.170739,0.7175429999999999
1629897197230,-0.643672,0.17116599999999998,0.717726
1629897197240,-0.644038,0.173179,0.720288
1629897197249,-0.642452,0.173484,0.723094
1629897197259,-0.6426959999999999,0.174155,0.72407
1629897197268,-0.642574,0.173423,0.725534
1629897197278,-0.642452,0.172142,0.724558
1629897197288,-0.641537,0.170129,0.72285
1629897197297,-0.641232,0.170068,0.721874
1629897197307,-0.64111,0.170129,0.720715
1629897197316,-0.641842,0.170739,0.720837
1629897197326,-0.6423909999999999,0.17238599999999998,0.720898
1629897197336,-0.643245,0.174948,0.721386
1629897197345,-0.644404,0.176534,0.720593
1629897197355,-0.6445259999999999,0.17812,0.721203
1629897197364,-0.6448309999999999,0.17751,0.721508
1629897197374,-0.644465,0.17793699999999998,0.720166
1629897197384,-0.645258,0.17751,0.7198
1629897197393,-0.644892,0.177205,0.719861
1629897197403,-0.6451359999999999,0.176351,0.720776
1629897197412,-0.645014,0.176229,0.720593
1629897197422,-0.645075,0.17641199999999999,0.722606
1629897197432,-0.6451359999999999,0.175619,0.723094
1629897197441,-0.644099,0.174887,0.723643
1629897197451,-0.643855,0.174826,0.72468
1629897197460,-0.643184,0.174094,0.725595
1629897197470,-0.64294,0.174582,0.723948
1629897197480,-0.6445259999999999,0.176778,0.722301
1629897197489,-0.645807,0.177876,0.721752
1629897197499,-0.646173,0.179279,0.721325
1629897197508,-0.6451359999999999,0.17812,0.718885
1629897197518,-0.645502,0.178669,0.718824
1629897197528,-0.645929,0.17824199999999998,0.717604
1629897197537,-0.646234,0.178425,0.717604
1629897197547,-0.645929,0.180072,0.717116
1629897197556,-0.646539,0.180438,0.71858
1629897197566,-0.646234,0.180865,0.718946
1629897197576,-0.646905,0.182024,0.719251
1629897197585,-0.645624,0.181475,0.719739
1629897197595,-0.6454409999999999,0.18196299999999999,0.719556
1629897197604,-0.645563,0.180804,0.71858
1629897197614,-0.644709,0.180072,0.717726
1629897197624,-0.643489,0.180072,0.719007
1629897197633,-0.643123,0.178913,0.7184579999999999
1629897197643,-0.6436109999999999,0.178974,0.718336
1629897197652,-0.642452,0.178974,0.718397
1629897197662,-0.642818,0.179401,0.718885
1629897197672,-0.642635,0.17976699999999998,0.718885
1629897197681,-0.642513,0.180133,0.719495
1629897197691,-0.642208,0.180011,0.720044
1629897197700,-0.641842,0.179401,0.720715
1629897197710,-0.64233,0.17873,0.721386
1629897197720,-0.642147,0.179096,0.720776
1629897197729,-0.642635,0.178974,0.721264
1629897197739,-0.6426959999999999,0.179523,0.721447
1629897197748,-0.642757,0.17873,0.722362
1629897197758,-0.642635,0.179279,0.722606
1629897197768,-0.6430009999999999,0.17873,0.723216
1629897197777,-0.642757,0.178669,0.722728
1629897197787,-0.6426959999999999,0.178669,0.722362
1629897197796,-0.642025,0.178669,0.722606
1629897197806,-0.64172,0.17854699999999998,0.723826
1629897197816,-0.641842,0.177998,0.723521
1629897197825,-0.6420859999999999,0.17793699999999998,0.72407
1629897197835,-0.641049,0.177083,0.72407
1629897197844,-0.641537,0.176595,0.725046
1629897197854,-0.641537,0.1769,0.72529
1629897197864,-0.63989,0.176168,0.725046
1629897197873,-0.639585,0.174887,0.725473
1629897197883,-0.638975,0.174521,0.72468
1629897197892,-0.638243,0.174216,0.723765
1629897197902,-0.637999,0.173789,0.725046
1629897197912,-0.637877,0.173484,0.725412
1629897197921,-0.6393409999999999,0.174155,0.725168
1629897197931,-0.6390359999999999,0.174643,0.726327
1629897197940,-0.639585,0.175253,0.726083
1629897197950,-0.63989,0.175558,0.725656
1629897197960,-0.640988,0.1769,0.723643
1629897197969,-0.640805,0.17671699999999999,0.721874
1629897197979,-0.6402559999999999,0.177144,0.721752
1629897197988,-0.64172,0.178425,0.723094
1629897197998,-0.640744,0.178425,0.72102
1629897198008,-0.640683,0.179218,0.718031
1629897198017,-0.641537,0.181719,0.718519
1629897198027,-0.644038,0.18287799999999999,0.72041
1629897198036,-0.643123,0.180499,0.720776
1629897198046,-0.642025,0.176961,0.7184579999999999
1629897198056,-0.6414759999999999,0.174338,0.71858
1629897198065,-0.6414759999999999,0.174155,0.720593
1629897198075,-0.6411709999999999,0.174399,0.723033
1629897198084,-0.64172,0.175375,0.725656
1629897198094,-0.641415,0.17610699999999999,0.726876
1629897198104,-0.641415,0.175619,0.726632
1629897198113,-0.64172,0.175558,0.725839
1629897198123,-0.641354,0.174643,0.723704
1629897198132,-0.641354,0.173667,0.721996
1629897198142,-0.640927,0.174094,0.721142
1629897198152,-0.64233,0.174643,0.720593
1629897198161,-0.642818,0.176961,0.720532
1629897198171,-0.644099,0.178791,0.721386
1629897198180,-0.644465,0.179218,0.721264
1629897198190,-0.644282,0.17946199999999998,0.720898
1629897198200,-0.64477,0.17854699999999998,0.72041
1629897198209,-0.644099,0.178303,0.721386
1629897198219,-0.644648,0.177449,0.721996
1629897198228,-0.644953,0.175863,0.722972
1629897198238,-0.64477,0.175985,0.723948
1629897198248,-0.644465,0.174948,0.724619
1629897198257,-0.644648,0.175192,0.725351
1629897198267,-0.643672,0.174826,0.726327
1629897198276,-0.643184,0.173789,0.726754
1629897198286,-0.642452,0.171837,0.726632
1629897198296,-0.6414759999999999,0.173118,0.724314
1629897198305,-0.642574,0.175009,0.724009
1629897198315,-0.642574,0.17568,0.722789
1629897198324,-0.642513,0.177083,0.72163
1629897198334,-0.641842,0.176351,0.719861
1629897198344,-0.6420859999999999,0.17610699999999999,0.719861
1629897198353,-0.6423909999999999,0.175497,0.719922
1629897198363,-0.64172,0.176168,0.720044
1629897198372,-0.6423909999999999,0.177266,0.721264
1629897198382,-0.6430009999999999,0.178425,0.722423
1629897198392,-0.643428,0.178059,0.723582
1629897198401,-0.643367,0.178486,0.722423
1629897198411,-0.643123,0.178181,0.721874
1629897198420,-0.64233,0.177693,0.722301
1629897198430,-0.6426959999999999,0.176778,0.721508
1629897198440,-0.6423909999999999,0.1769,0.721203
1629897198449,-0.6420859999999999,0.17580199999999999,0.720776
1629897198459,-0.64111,0.17702199999999998,0.72163
1629897198468,-0.641415,0.176229,0.721508
1629897198478,-0.641354,0.176595,0.720898
1629897198488,-0.640622,0.177571,0.720837
1629897198497,-0.641293,0.177693,0.721325
1629897198507,-0.641354,0.177754,0.720898
1629897198516,-0.6411709999999999,0.176839,0.721447
1629897198526,-0.640073,0.176351,0.721691
1629897198536,-0.640439,0.175741,0.721996
1629897198545,-0.640317,0.175863,0.722606
1629897198555,-0.64111,0.175314,0.723277
1629897198564,-0.641659,0.174704,0.723826
1629897198574,-0.642025,0.175863,0.724985
1629897198584,-0.641903,0.17580199999999999,0.724131
1629897198593,-0.641598,0.176778,0.724741
1629897198603,-0.6420859999999999,0.17702199999999998,0.723765
1629897198612,-0.64172,0.17793699999999998,0.724192
1629897198622,-0.642025,0.178669,0.724253
1629897198632,-0.64233,0.179096,0.723643
1629897198641,-0.641659,0.178608,0.723521
1629897198651,-0.641659,0.178608,0.723704
1629897198660,-0.64172,0.178181,0.72407
1629897198670,-0.641415,0.17824199999999998,0.724314
1629897198680,-0.642025,0.178974,0.72468
1629897198689,-0.6405609999999999,0.178181,0.724985
1629897198699,-0.6402559999999999,0.177998,0.724314
1629897198708,-0.639158,0.177388,0.724802
1629897198718,-0.63928,0.1769,0.724314
1629897198728,-0.638792,0.176534,0.724436
1629897198737,-0.638853,0.176046,0.725107
1629897198747,-0.638182,0.175192,0.725961
1629897198756,-0.6384259999999999,0.17629,0.726632
1629897198766,-0.638975,0.17629,0.726815
1629897198776,-0.638548,0.176961,0.725168
1629897198785,-0.6396459999999999,0.177388,0.724741
1629897198795,-0.6405,0.179035,0.724802
1629897198804,-0.640317,0.178486,0.723521
1629897198814,-0.640988,0.179401,0.722179
1629897198824,-0.640744,0.180316,0.72163
1629897198833,-0.640744,0.181048,0.721874
1629897198843,-0.640927,0.181658,0.720471
1629897198852,-0.640927,0.181719,0.71797
1629897198862,-0.641903,0.184586,0.719129
1629897198872,-0.643184,0.186111,0.722606
1629897198881,-0.6430009999999999,0.18287799999999999,0.722606
1629897198891,-0.642208,0.177693,0.719983
1629897198900,-0.6411709999999999,0.175436,0.720471
1629897198910,-0.640683,0.174765,0.72285
1629897198920,-0.6405,0.176046,0.725656
1629897198929,-0.639585,0.17641199999999999,0.727669
1629897198939,-0.639768,0.176595,0.7284619999999999
1629897198948,-0.639402,0.17629,0.729499
1629897198958,-0.6393409999999999,0.17580199999999999,0.728218
1629897198968,-0.638792,0.175436,0.725717
1629897198977,-0.638609,0.17330099999999998,0.724436
1629897198987,-0.638182,0.173057,0.722972
1629897198996,-0.6387309999999999,0.173789,0.723826
1629897199006,-0.6387309999999999,0.174948,0.725473
1629897199016,-0.63867,0.176168,0.726388
1629897199025,-0.638609,0.175924,0.7272419999999999
1629897199035,-0.637877,0.17629,0.7272419999999999
1629897199044,-0.637877,0.175741,0.727364
1629897199054,-0.637999,0.174643,0.726815
1629897199064,-0.637755,0.175497,0.726876
1629897199073,-0.637877,0.174948,0.726998
1629897199083,-0.638182,0.174887,0.727974
1629897199092,-0.637694,0.174887,0.728523
1629897199102,-0.637999,0.175009,0.7290719999999999
1629897199112,-0.637938,0.174887,0.729316
1629897199121,-0.636962,0.173179,0.7309019999999999
1629897199131,-0.6353759999999999,0.173423,0.7290719999999999
1629897199140,-0.635559,0.176534,0.7287669999999999
1629897199150,-0.637023,0.17751,0.727608
1629897199160,-0.637023,0.179218,0.726632
1629897199169,-0.635864,0.17641199999999999,0.721447
1629897199179,-0.63623,0.17641199999999999,0.720776
1629897199188,-0.63684,0.177876,0.722545
1629897199198,-0.637267,0.179584,0.724985
1629897199208,-0.637877,0.180926,0.726571
1629897199217,-0.6384259999999999,0.180926,0.7284619999999999
1629897199227,-0.63867,0.182085,0.728523
1629897199236,-0.638975,0.181597,0.727486
1629897199246,-0.6390359999999999,0.181658,0.726266
1629897199256,-0.638792,0.180743,0.724497
1629897199265,-0.638914,0.18056,0.722728
1629897199275,-0.63928,0.180926,0.722118
1629897199284,-0.638182,0.180133,0.721264
1629897199294,-0.638365,0.180255,0.722789
1629897199304,-0.638853,0.181292,0.723643
1629897199313,-0.638975,0.18056,0.724192
1629897199323,-0.637938,0.18056,0.7259
1629897199332,-0.6378159999999999,0.180255,0.7259
1629897199342,-0.6372059999999999,0.179828,0.725839
1629897199352,-0.637938,0.17976699999999998,0.726022
1629897199361,-0.637938,0.179096,0.726449
1629897199371,-0.637633,0.179096,0.726388
1629897199380,-0.638182,0.178059,0.725839
1629897199390,-0.636657,0.177876,0.724802
1629897199400,-0.637023,0.177144,0.724558
1629897199409,-0.637084,0.17873,0.725168
1629897199419,-0.6384259999999999,0.178791,0.72651
1629897199428,-0.638182,0.17934,0.72712
1629897199438,-0.639158,0.179828,0.727059
1629897199448,-0.6390359999999999,0.180255,0.727608
1629897199457,-0.638609,0.180011,0.727059
1629897199467,-0.63867,0.179889,0.725656
1629897199476,-0.638304,0.180133,0.725046
1629897199486,-0.63867,0.180316,0.725656
1629897199496,-0.638487,0.180682,0.724802
1629897199505,-0.637694,0.180926,0.725351
1629897199515,-0.6372059999999999,0.181536,0.724802
1629897199524,-0.637267,0.180438,0.725778
1629897199534,-0.637389,0.180133,0.7269369999999999
1629897199544,-0.636718,0.178974,0.728523
1629897199553,-0.636535,0.177388,0.7299869999999999
1629897199563,-0.636779,0.17763199999999998,0.729621
1629897199572,-0.636169,0.176839,0.728096
1629897199582,-0.63623,0.17702199999999998,0.727425
1629897199592,-0.636352,0.177449,0.727425
1629897199601,-0.636169,0.178608,0.727608
1629897199611,-0.636779,0.17702199999999998,0.725412
1629897199620,-0.635254,0.17702199999999998,0.724497
1629897199630,-0.635254,0.178181,0.724253
1629897199640,-0.635498,0.17885199999999998,0.726388
1629897199649,-0.634949,0.179096,0.726632
1629897199659,-0.635132,0.180804,0.726693
1629897199668,-0.637999,0.18257299999999999,0.728401
1629897199678,-0.639158,0.180804,0.7290719999999999
1629897199688,-0.637328,0.175863,0.7272419999999999
1629897199697,-0.634644,0.171532,0.725046
1629897199707,-0.634217,0.17177599999999998,0.727303
1629897199716,-0.633729,0.173728,0.72956
1629897199726,-0.6341559999999999,0.173789,0.730658
1629897199736,-0.6338509999999999,0.174887,0.731573
1629897199745,-0.634583,0.17610699999999999,0.731085
1629897199755,-0.635498,0.176656,0.7296819999999999
1629897199764,-0.6350709999999999,0.175619,0.7281569999999999
1629897199774,-0.6353759999999999,0.17507,0.72773
1629897199784,-0.6353759999999999,0.17299599999999998,0.726144
1629897199793,-0.63501,0.172569,0.726693
1629897199803,-0.634522,0.172752,0.727425
1629897199812,-0.6356809999999999,0.173423,0.727181
1629897199822,-0.635193,0.173911,0.7284619999999999
1629897199832,-0.635742,0.174765,0.729743
1629897199841,-0.636413,0.174582,0.73017
1629897199851,-0.636474,0.174338,0.730414
1629897199860,-0.637389,0.175192,0.730658
1629897199870,-0.637877,0.174094,0.729621
1629897199880,-0.637633,0.173972,0.730109
1629897199889,-0.637267,0.17385,0.7302919999999999
1629897199899,-0.6378159999999999,0.174155,0.729621
1629897199908,-0.6372059999999999,0.173118,0.730048
1629897199918,-0.63623,0.172142,0.73017
1629897199928,-0.635132,0.172935,0.729499
1629897199937,-0.636657,0.176656,0.729499
1629897199947,-0.636657,0.176961,0.729438
1629897199956,-0.637023,0.176534,0.728523
1629897199966,-0.636108,0.173362,0.725229
1629897199976,-0.63684,0.174094,0.724253
1629897199985,-0.6369009999999999,0.174521,0.724863
1629897199995,-0.637755,0.176778,0.726205
1629897200004,-0.638487,0.177998,0.727486
1629897200014,-0.638182,0.178608,0.728584
1629897200024,-0.638182,0.178425,0.729499
1629897200033,-0.638487,0.17873,0.72895
1629897200043,-0.6375109999999999,0.177144,0.727303
1629897200052,-0.6365959999999999,0.176351,0.726144
1629897200062,-0.637145,0.17641199999999999,0.724985
1629897200072,-0.6372059999999999,0.176229,0.725351
1629897200081,-0.6362909999999999,0.17641199999999999,0.724497
1629897200091,-0.637267,0.1769,0.724436
1629897200100,-0.636962,0.17793699999999998,0.724192
1629897200110,-0.637572,0.17812,0.724253
1629897200120,-0.637694,0.177876,0.725656
1629897200129,-0.637389,0.17793699999999998,0.726205
1629897200139,-0.637145,0.176839,0.725656
1629897200148,-0.6369009999999999,0.175741,0.725656
1629897200158,-0.636779,0.176168,0.72529
1629897200168,-0.637084,0.175314,0.725351
1629897200177,-0.637267,0.175436,0.725656
1629897200187,-0.637084,0.175253,0.725778
1629897200196,-0.637999,0.175985,0.726754
1629897200206,-0.6384259999999999,0.177144,0.7269369999999999
1629897200216,-0.6387309999999999,0.17732699999999998,0.728218
1629897200225,-0.6390359999999999,0.177449,0.728706
1629897200235,-0.638914,0.177083,0.7278519999999999
1629897200244,-0.638853,0.17610699999999999,0.7281569999999999
1629897200254,-0.6384259999999999,0.177144,0.728279
1629897200264,-0.637145,0.178059,0.727608
1629897200273,-0.637145,0.177571,0.728035
1629897200283,-0.637572,0.17793699999999998,0.726876
1629897200292,-0.6362909999999999,0.177998,0.726632
1629897200302,-0.636047,0.17751,0.727364
1629897200312,-0.636474,0.176839,0.729133
1629897200321,-0.6356809999999999,0.17641199999999999,0.729865
1629897200331,-0.635498,0.176168,0.730353
1629897200340,-0.634339,0.17507,0.729926
1629897200350,-0.634034,0.174765,0.729804
1629897200360,-0.634644,0.175924,0.730536
1629897200369,-0.635132,0.175192,0.73017
1629897200379,-0.633973,0.173118,0.72895
1629897200388,-0.633912,0.174399,0.728523
1629897200398,-0.6341559999999999,0.174643,0.728889
1629897200408,-0.633973,0.17568,0.7287669999999999
1629897200417,-0.6335459999999999,0.177144,0.726693
1629897200427,-0.634949,0.180987,0.7278519999999999
1629897200436,-0.636474,0.181414,0.729438
1629897200446,-0.6365959999999999,0.180255,0.728584
1629897200456,-0.635193,0.174826,0.723826
1629897200465,-0.634217,0.17238599999999998,0.723582
1629897200475,-0.634095,0.174582,0.725656
1629897200484,-0.634705,0.176168,0.728279
1629897200494,-0.635559,0.177205,0.729621
1629897200504,-0.635437,0.17824199999999998,0.730475
1629897200513,-0.635132,0.178364,0.731146
1629897200523,-0.635132,0.178303,0.7287669999999999
1629897200532,-0.6359859999999999,0.17732699999999998,0.726144
1629897200542,-0.636352,0.176473,0.725229
1629897200552,-0.635498,0.175009,0.725595
1629897200561,-0.635925,0.175558,0.724192
1629897200571,-0.6356809999999999,0.176656,0.72529
1629897200580,-0.636413,0.177998,0.726754
1629897200590,-0.636108,0.177815,0.726998
1629897200600,-0.636535,0.17793699999999998,0.727974
1629897200609,-0.636962,0.177754,0.728218
1629897200619,-0.637755,0.17793699999999998,0.728706
1629897200628,-0.637877,0.177449,0.7287669999999999
1629897200638,-0.638243,0.177266,0.729438
1629897200648,-0.637938,0.17732699999999998,0.729804
1629897200657,-0.63867,0.177083,0.7296819999999999
1629897200667,-0.637694,0.176778,0.72956
1629897200676,-0.63684,0.176656,0.7293769999999999
1629897200686,-0.636108,0.175741,0.730536
1629897200696,-0.634278,0.174338,0.729438
1629897200705,-0.633973,0.17763199999999998,0.72956
1629897200715,-0.635803,0.178974,0.731268
1629897200724,-0.635803,0.179828,0.730658
1629897200734,-0.635132,0.177815,0.72651
1629897200744,-0.634583,0.176168,0.723704
1629897200753,-0.635925,0.17793699999999998,0.722362
1629897200763,-0.637267,0.179218,0.724131
1629897200772,-0.637694,0.181597,0.726144
1629897200782,-0.638548,0.183244,0.727364
1629897200792,-0.638487,0.183244,0.727913
1629897200801,-0.638609,0.182451,0.728828
1629897200811,-0.638243,0.182024,0.72773
1629897200820,-0.6372059999999999,0.181902,0.726815
1629897200830,-0.636657,0.180438,0.725107
1629897200840,-0.635498,0.180438,0.724192
1629897200849,-0.636108,0.180194,0.723582
1629897200859,-0.6365959999999999,0.180743,0.72346
1629897200868,-0.6362909999999999,0.181658,0.723399
1629897200878,-0.63684,0.18226799999999999,0.724253
1629897200888,-0.637633,0.182085,0.724497
1629897200897,-0.637145,0.182207,0.725168
1629897200907,-0.635803,0.18226799999999999,0.724863
1629897200916,-0.636047,0.180133,0.724436
1629897200926,-0.635925,0.17934,0.724314
1629897200936,-0.635498,0.179096,0.724131
1629897200945,-0.636108,0.179218,0.725351
1629897200955,-0.635498,0.178486,0.726083
1629897200964,-0.636413,0.179645,0.726998
1629897200974,-0.636169,0.179584,0.7272419999999999
1629897200984,-0.637572,0.179584,0.728218
1629897200993,-0.63623,0.17995,0.727364
1629897201003,-0.636962,0.17976699999999998,0.727608
1629897201012,-0.637389,0.17976699999999998,0.727364
1629897201022,-0.636413,0.180377,0.72773
1629897201032,-0.63745,0.181231,0.726998
1629897201041,-0.636962,0.181048,0.72712
1629897201051,-0.63806,0.180499,0.726632
1629897201060,-0.636474,0.181231,0.726998
1629897201070,-0.6359859999999999,0.181353,0.726144
1629897201080,-0.635803,0.181414,0.727181
1629897201089,-0.63562,0.17995,0.727913
1629897201099,-0.63562,0.178486,0.7281569999999999
1629897201108,-0.63562,0.177693,0.7290719999999999
1629897201118,-0.634644,0.17702199999999998,0.7293769999999999
1629897201128,-0.6353759999999999,0.17671699999999999,0.730963
1629897201137,-0.634888,0.175924,0.731939
1629897201147,-0.635803,0.176595,0.7327319999999999
1629897201156,-0.6353759999999999,0.17641199999999999,0.732305
1629897201166,-0.634705,0.176351,0.731085
1629897201176,-0.635254,0.17702199999999998,0.729926
1629897201185,-0.6359859999999999,0.177571,0.729316
1629897201195,-0.63501,0.177266,0.726754
1629897201204,-0.634095,0.177754,0.727181
1629897201214,-0.6356809999999999,0.179096,0.726876
1629897201224,-0.63501,0.181292,0.725595
1629897201233,-0.6347659999999999,0.183244,0.722606
1629897201243,-0.6365959999999999,0.184952,0.724192
1629897201252,-0.636962,0.185928,0.726449
1629897201262,-0.636047,0.18178,0.725168
1629897201272,-0.634522,0.177998,0.72224
1629897201281,-0.634522,0.1769,0.721874
1629897201291,-0.634827,0.17812,0.724131
1629897201300,-0.634888,0.17976699999999998,0.727608
1629897201310,-0.634522,0.179218,0.730658
1629897201320,-0.634034,0.178486,0.732366
1629897201329,-0.634949,0.177815,0.7318169999999999
1629897201339,-0.634278,0.177144,0.730414
1629897201348,-0.6341559999999999,0.17702199999999998,0.72895
1629897201358,-0.634217,0.175375,0.726876
1629897201368,-0.633302,0.175558,0.72651
1629897201377,-0.634339,0.17580199999999999,0.726083
1629897201387,-0.635559,0.17763199999999998,0.726693
1629897201396,-0.6365959999999999,0.180133,0.727974
1629897201406,-0.636474,0.181841,0.727913
1629897201416,-0.63684,0.180804,0.72773
1629897201425,-0.635742,0.18056,0.726754
1629897201435,-0.636474,0.17854699999999998,0.727974
1629897201444,-0.6356809999999999,0.178303,0.727974
1629897201454,-0.635498,0.17751,0.727425
1629897201464,-0.637023,0.178303,0.72834
1629897201473,-0.63684,0.179035,0.729438
1629897201483,-0.63684,0.179523,0.729926
1629897201492,-0.637328,0.178486,0.7302919999999999
1629897201502,-0.6375109999999999,0.17824199999999998,0.730841
1629897201512,-0.635498,0.176473,0.7309019999999999
1629897201521,-0.635193,0.17580199999999999,0.729743
1629897201531,-0.635193,0.177754,0.728523
1629897201540,-0.636535,0.17946199999999998,0.727791
1629897201550,-0.637694,0.180499,0.726266
1629897201560,-0.637145,0.179828,0.72407
1629897201569,-0.636779,0.180194,0.724375
1629897201579,-0.637755,0.180865,0.724558
1629897201588,-0.63623,0.18178,0.724375
1629897201598,-0.638487,0.182756,0.72529
1629897201608,-0.638792,0.183732,0.725778
1629897201617,-0.63867,0.184586,0.726022
1629897201627,-0.638365,0.184525,0.725778
1629897201636,-0.6387309999999999,0.184281,0.725168
1629897201646,-0.638182,0.18422,0.724863
1629897201656,-0.6372059999999999,0.183915,0.723643
1629897201665,-0.636108,0.18361,0.72407
1629897201675,-0.636047,0.183732,0.72346
1629897201684,-0.635193,0.18318299999999998,0.723216
1629897201694,-0.636047,0.183366,0.72346
1629897201704,-0.636169,0.183915,0.723826
1629897201713,-0.636413,0.184464,0.724009
1629897201723,-0.636718,0.185074,0.724192
1629897201732,-0.6356809999999999,0.18483,0.724253
1629897201742,-0.6365959999999999,0.184952,0.72468
1629897201752,-0.6353759999999999,0.183915,0.72529
1629897201761,-0.636108,0.183854,0.725412
1629897201771,-0.636047,0.182634,0.726205
1629897201780,-0.636352,0.182756,0.726144
1629897201790,-0.636108,0.18287799999999999,0.726815
1629897201800,-0.636169,0.18361,0.727425
1629897201809,-0.6365959999999999,0.183671,0.726754
1629897201819,-0.636047,0.183,0.726388
1629897201828,-0.636169,0.184525,0.726327
1629897201838,-0.63623,0.183671,0.726388
1629897201848,-0.63623,0.18409799999999998,0.725351
1629897201857,-0.6365959999999999,0.18470799999999998,0.726205
1629897201867,-0.635864,0.18361,0.726144
1629897201876,-0.635437,0.184159,0.726388
1629897201886,-0.635437,0.18422,0.726388
1629897201896,-0.636352,0.184342,0.727181
1629897201905,-0.636047,0.183427,0.726632
1629897201915,-0.6359859999999999,0.183366,0.7272419999999999
1629897201924,-0.6359859999999999,0.182695,0.727791
1629897201934,-0.635742,0.183671,0.72773
1629897201944,-0.6353759999999999,0.18287799999999999,0.72712
1629897201953,-0.634644,0.181536,0.7278519999999999
1629897201963,-0.6338509999999999,0.180621,0.726815
1629897201972,-0.633119,0.180316,0.727608
1629897201982,-0.634522,0.18117,0.728035
1629897201992,-0.634949,0.181231,0.727974
1629897202001,-0.634522,0.181902,0.728828
1629897202011,-0.634217,0.182634,0.727791
1629897202020,-0.6353759999999999,0.18348799999999998,0.727974
1629897202030,-0.63562,0.183976,0.726632
1629897202040,-0.634522,0.183915,0.725473
1629897202049,-0.634217,0.183732,0.725046
1629897202059,-0.6347659999999999,0.185135,0.726815
1629897202068,-0.634644,0.185806,0.7259
1629897202078,-0.634644,0.185562,0.723704
1629897202088,-0.635498,0.187758,0.723948
1629897202097,-0.636535,0.188673,0.726571
1629897202107,-0.6353759999999999,0.186904,0.7259
1629897202116,-0.634583,0.182512,0.722911
1629897202126,-0.6347659999999999,0.180865,0.723643
1629897202136,-0.634339,0.180804,0.725717
1629897202145,-0.6341559999999999,0.181292,0.728279
1629897202155,-0.634217,0.18178,0.7302919999999999
1629897202164,-0.633912,0.18117,0.731878
1629897202174,-0.6347659999999999,0.18239,0.731634
1629897202184,-0.634827,0.18117,0.730963
1629897202193,-0.634034,0.18056,0.728706
1629897202203,-0.633302,0.179401,0.726693
1629897202212,-0.6338509999999999,0.179645,0.726083
1629897202222,-0.634095,0.180621,0.725717
1629897202232,-0.6353759999999999,0.18239,0.725595
1629897202241,-0.636474,0.185867,0.724924
1629897202251,-0.637084,0.186782,0.724924
1629897202260,-0.637694,0.186843,0.725595
1629897202270,-0.636962,0.186538,0.72529
1629897202280,-0.637572,0.185745,0.725229
1629897202289,-0.637938,0.185379,0.726449
1629897202299,-0.637023,0.184342,0.726998
1629897202308,-0.636413,0.183061,0.727791
1629897202318,-0.6372059999999999,0.18257299999999999,0.72834
1629897202328,-0.6372059999999999,0.182695,0.729499
1629897202337,-0.6362909999999999,0.181658,0.729804
1629897202347,-0.635742,0.181048,0.7309019999999999
1629897202356,-0.634339,0.180682,0.731024
1629897202366,-0.634095,0.180743,0.7290719999999999
1629897202376,-0.634339,0.18318299999999998,0.727425
1629897202385,-0.6353759999999999,0.183915,0.726632
1629897202395,-0.635925,0.185562,0.726327
1629897202404,-0.634644,0.184342,0.723948
1629897202414,-0.63501,0.184281,0.723826
1629897202424,-0.6350709999999999,0.183915,0.722911
1629897202433,-0.635132,0.184952,0.724863
1629897202443,-0.63501,0.185135,0.725961
1629897202452,-0.635132,0.18727,0.726998
1629897202462,-0.636108,0.186782,0.728035
1629897202472,-0.6362909999999999,0.186599,0.7284619999999999
1629897202481,-0.635132,0.186782,0.7275469999999999
1629897202491,-0.63501,0.186172,0.7281569999999999
1629897202500,-0.634644,0.185928,0.727669
1629897202510,-0.6344609999999999,0.185135,0.727303
1629897202520,-0.633973,0.184464,0.72712
1629897202529,-0.633668,0.184525,0.726083
1629897202539,-0.633485,0.18422,0.725351
1629897202548,-0.633912,0.18470799999999998,0.725534
1629897202558,-0.633729,0.184891,0.726388
1629897202568,-0.633363,0.185379,0.725839
1629897202577,-0.633729,0.185501,0.725961
1629897202587,-0.63318,0.184586,0.727303
1629897202596,-0.634339,0.18440299999999998,0.727486
1629897202606,-0.634095,0.18422,0.728401
1629897202616,-0.6344609999999999,0.18409799999999998,0.727669
1629897202625,-0.6344,0.183915,0.727181
1629897202635,-0.634095,0.183915,0.727425
1629897202644,-0.635498,0.18422,0.728218
1629897202654,-0.635864,0.185074,0.726998
1629897202664,-0.634888,0.185562,0.727059
1629897202673,-0.635254,0.186721,0.7272419999999999
1629897202683,-0.635193,0.186843,0.727486
1629897202692,-0.635925,0.187514,0.726632
1629897202702,-0.63501,0.186904,0.726205
1629897202712,-0.63501,0.186843,0.726205
1629897202721,-0.634888,0.186904,0.725778
1629897202731,-0.634583,0.187087,0.726876
1629897202740,-0.634034,0.186355,0.727364
1629897202750,-0.633912,0.185989,0.728218
1629897202760,-0.633729,0.185379,0.728096
1629897202769,-0.6338509999999999,0.185562,0.728401
1629897202779,-0.633729,0.184769,0.728584
1629897202788,-0.633485,0.18605,0.728218
1629897202798,-0.632509,0.185501,0.729011
1629897202808,-0.6335459999999999,0.18544,0.727974
1629897202817,-0.63318,0.186233,0.7278519999999999
1629897202827,-0.633058,0.185135,0.727059
1629897202836,-0.6329359999999999,0.185196,0.726998
1629897202846,-0.633058,0.185379,0.727486
1629897202856,-0.6329359999999999,0.185684,0.7272419999999999
1629897202865,-0.632814,0.186599,0.7284619999999999
1629897202875,-0.632753,0.187148,0.728218
1629897202884,-0.63318,0.187026,0.7284619999999999
1629897202894,-0.633119,0.188002,0.728218
1629897202904,-0.6350709999999999,0.187514,0.7272419999999999
1629897202913,-0.634522,0.18781899999999999,0.725534
1629897202923,-0.63379,0.187392,0.72529
1629897202932,-0.635254,0.18788,0.726205
1629897202942,-0.634827,0.188978,0.72651
1629897202952,-0.634583,0.189893,0.72407
1629897202961,-0.634705,0.191662,0.723704
1629897202971,-0.636718,0.192821,0.726632
1629897202980,-0.636169,0.192455,0.726571
1629897202990,-0.633729,0.187575,0.723826
1629897203000,-0.633668,0.185074,0.723826
1629897203009,-0.633668,0.18483,0.725351
1629897203019,-0.633729,0.18562299999999998,0.727425
1629897203028,-0.633302,0.186294,0.730109
1629897203038,-0.633607,0.187087,0.731085
1629897203048,-0.633485,0.186172,0.731695
1629897203057,-0.632814,0.186172,0.7315119999999999
1629897203067,-0.632509,0.184769,0.729926
1629897203076,-0.632692,0.183915,0.727608
1629897203086,-0.632204,0.18483,0.726205
1629897203096,-0.632509,0.18470799999999998,0.7259
1629897203105,-0.633485,0.186233,0.726327
1629897203115,-0.63318,0.18873399999999999,0.725656
1629897203124,-0.6344609999999999,0.190442,0.726327
1629897203134,-0.634034,0.190076,0.726632
1629897203144,-0.634705,0.189832,0.725839
1629897203153,-0.6344609999999999,0.189161,0.726693
1629897203163,-0.634217,0.18849,0.726754
1629897203172,-0.634339,0.187392,0.72773
1629897203182,-0.634034,0.185806,0.7284619999999999
1629897203192,-0.6332409999999999,0.185745,0.729926
1629897203201,-0.632997,0.185989,0.730719
1629897203211,-0.632265,0.185196,0.7315119999999999
1629897203220,-0.632204,0.18440299999999998,0.732305
1629897203230,-0.630679,0.183854,0.731878
1629897203240,-0.629337,0.185562,0.73017
1629897203249,-0.631777,0.187148,0.730109
1629897203259,-0.6317159999999999,0.188612,0.729865
1629897203268,-0.6317159999999999,0.18849,0.726144
1629897203278,-0.631228,0.187941,0.723765
1629897203288,-0.631228,0.188246,0.723277
1629897203297,-0.631472,0.188002,0.724131
1629897203307,-0.632265,0.188612,0.725595
1629897203316,-0.632387,0.18964899999999998,0.728096
1629897203326,-0.6335459999999999,0.19056399999999998,0.728828
1629897203336,-0.634034,0.190137,0.73017
1629897203345,-0.634278,0.190076,0.730475
1629897203355,-0.6332409999999999,0.18934399999999998,0.730719
1629897203364,-0.6332409999999999,0.18873399999999999,0.729133
1629897203374,-0.6335459999999999,0.188673,0.728096
1629897203384,-0.633424,0.188856,0.728096
1629897203393,-0.632387,0.189771,0.726754
1629897203403,-0.632265,0.18903899999999998,0.725046
1629897203412,-0.632753,0.18995399999999998,0.725168
1629897203422,-0.6329359999999999,0.191113,0.724558
1629897203432,-0.632875,0.191418,0.725351
1629897203441,-0.6332409999999999,0.190991,0.725839
1629897203451,-0.6335459999999999,0.189588,0.727608
1629897203460,-0.633058,0.190076,0.727608
1629897203470,-0.6326309999999999,0.188185,0.728279
1629897203480,-0.633607,0.188002,0.728645
1629897203489,-0.633119,0.18788,0.72834
1629897203499,-0.633363,0.187453,0.72895
1629897203508,-0.633302,0.187514,0.727913
1629897203518,-0.632997,0.189222,0.7275469999999999
1629897203528,-0.632997,0.188368,0.72773
1629897203537,-0.6335459999999999,0.1891,0.7278519999999999
1629897203547,-0.633668,0.189588,0.7284619999999999
1629897203556,-0.6344,0.18995399999999998,0.727974
1629897203566,-0.632692,0.190747,0.727425
1629897203576,-0.6332409999999999,0.19086899999999998,0.726693
1629897203585,-0.634034,0.19086899999999998,0.726571
1629897203595,-0.633424,0.19056399999999998,0.726632
1629897203604,-0.633363,0.190808,0.7272419999999999
1629897203614,-0.632997,0.19056399999999998,0.7284619999999999
1629897203624,-0.634095,0.190442,0.72956
1629897203633,-0.633302,0.190381,0.729865
1629897203643,-0.632143,0.189283,0.7293769999999999
1629897203652,-0.632448,0.189283,0.728828
1629897203662,-0.63196,0.18812399999999999,0.727974
1629897203672,-0.631655,0.188063,0.72956
1629897203681,-0.631228,0.188612,0.730231
1629897203691,-0.631045,0.18849,0.73017
1629897203700,-0.630984,0.188551,0.729438
1629897203710,-0.630923,0.18781899999999999,0.72956
1629897203720,-0.629764,0.188246,0.729194
1629897203729,-0.631411,0.18812399999999999,0.729865
1629897203739,-0.63135,0.18873399999999999,0.730475
1629897203748,-0.630435,0.188551,0.730109
1629897203758,-0.630923,0.188795,0.730536
1629897203768,-0.630923,0.189832,0.73017
1629897203777,-0.632265,0.19056399999999998,0.7302919999999999
1629897203787,-0.63196,0.188856,0.729316
1629897203796,-0.630923,0.188917,0.7278519999999999
1629897203806,-0.631045,0.190137,0.726571
1629897203816,-0.630557,0.190991,0.726388
1629897203825,-0.629764,0.192089,0.724802
1629897203835,-0.6317159999999999,0.194834,0.72651
1629897203844,-0.633302,0.19763999999999998,0.730048
1629897203854,-0.634278,0.194956,0.7309019999999999
1629897203864,-0.632692,0.19086899999999998,0.727974
1629897203873,-0.630618,0.186721,0.7269369999999999
1629897203883,-0.629581,0.187575,0.72895
1629897203892,-0.629398,0.188673,0.73017
1629897203902,-0.628178,0.190198,0.731634
1629897203912,-0.628422,0.190991,0.732244
1629897203921,-0.628056,0.191052,0.7327319999999999
1629897203931,-0.62708,0.190808,0.731878
1629897203940,-0.626226,0.190442,0.730719
1629897203950,-0.626409,0.188978,0.729499
1629897203960,-0.627568,0.18873399999999999,0.728645
1629897203969,-0.627202,0.189222,0.7290719999999999
1629897203979,-0.626714,0.18934399999999998,0.730231
1629897203988,-0.626653,0.190686,0.731024
1629897203998,-0.626775,0.191662,0.731451
1629897204008,-0.626775,0.192089,0.731451
1629897204017,-0.627446,0.192455,0.730963
1629897204027,-0.627324,0.191418,0.730658
1629897204036,-0.627141,0.192089,0.7309019999999999
1629897204046,-0.627385,0.192333,0.7315119999999999
1629897204056,-0.627873,0.192272,0.7318169999999999
1629897204065,-0.627873,0.19154,0.731573
1629897204075,-0.628788,0.192028,0.732366
1629897204084,-0.627995,0.18995399999999998,0.734135
1629897204094,-0.62769,0.189832,0.7348669999999999
1629897204104,-0.626714,0.189588,0.733525
1629897204113,-0.626531,0.192577,0.733098
1629897204123,-0.628117,0.193858,0.734196
1629897204132,-0.627873,0.192516,0.734013
1629897204142,-0.627812,0.190137,0.729804
1629897204152,-0.62708,0.190137,0.728035
1629897204161,-0.627751,0.19117399999999998,0.727669
1629897204171,-0.6283,0.192272,0.729011
1629897204180,-0.628544,0.192882,0.731268
1629897204190,-0.629703,0.195017,0.73444
1629897204200,-0.628788,0.195383,0.734684
1629897204209,-0.62891,0.195322,0.73505
1629897204219,-0.628361,0.194102,0.734318
1629897204228,-0.626958,0.192821,0.732549
1629897204238,-0.626775,0.19178399999999998,0.730536
1629897204248,-0.626714,0.191113,0.728828
1629897204257,-0.626287,0.191906,0.728645
1629897204267,-0.626531,0.192089,0.72895
1629897204276,-0.626897,0.191906,0.729194
1629897204286,-0.626592,0.192272,0.729621
1629897204296,-0.626897,0.192272,0.730353
1629897204305,-0.626592,0.191601,0.731329
1629897204315,-0.626653,0.191601,0.730536
1629897204324,-0.625738,0.18964899999999998,0.7312069999999999
1629897204334,-0.626775,0.188368,0.731573
1629897204344,-0.62708,0.18849,0.731085
1629897204353,-0.626226,0.18781899999999999,0.731573
1629897204363,-0.626714,0.187758,0.730536
1629897204372,-0.627568,0.188002,0.731756
1629897204382,-0.627507,0.188551,0.732305
1629897204392,-0.629032,0.187575,0.732915
1629897204401,-0.628971,0.18873399999999999,0.732244
1629897204411,-0.630008,0.189466,0.732305
1629897204420,-0.63074,0.19032,0.732
1629897204430,-0.631228,0.190015,0.731024
1629897204440,-0.630923,0.191357,0.7312069999999999
1629897204449,-0.63196,0.19086899999999998,0.7299869999999999
1629897204459,-0.631472,0.191357,0.730231
1629897204468,-0.631472,0.191052,0.73078
1629897204478,-0.630252,0.191662,0.730658
1629897204488,-0.630313,0.189771,0.730414
1629897204497,-0.629215,0.188856,0.7305969999999999
1629897204507,-0.629032,0.18934399999999998,0.731756
1629897204516,-0.629337,0.187636,0.733525
1629897204526,-0.628788,0.186904,0.7351719999999999
1629897204536,-0.628422,0.186111,0.7354769999999999
1629897204545,-0.627629,0.185196,0.735233
1629897204555,-0.626348,0.184525,0.7345619999999999
1629897204564,-0.627019,0.186294,0.7339519999999999
1629897204574,-0.627446,0.186233,0.7342569999999999
1629897204584,-0.628056,0.186538,0.733464
1629897204593,-0.626958,0.186477,0.730841
1629897204603,-0.627141,0.186416,0.730109
1629897204612,-0.626653,0.187514,0.730475
1629897204622,-0.626287,0.189283,0.731695
1629897204632,-0.625799,0.190442,0.729865
1629897204641,-0.628361,0.192211,0.729804
1629897204651,-0.630008,0.19337,0.731756
1629897204660,-0.62952,0.190747,0.733098
1629897204670,-0.62769,0.186477,0.731329
1629897204680,-0.626226,0.183671,0.730048
1629897204689,-0.626104,0.18544,0.732
1629897204699,-0.625738,0.187941,0.733586
1629897204708,-0.626104,0.188795,0.734684
1629897204718,-0.626165,0.189161,0.7351719999999999
1629897204728,-0.625982,0.189161,0.73444
1629897204737,-0.625677,0.188368,0.732183
1629897204747,-0.625616,0.186782,0.730658
1629897204756,-0.624945,0.186233,0.730719
1629897204766,-0.625372,0.185562,0.7302919999999999
1629897204776,-0.624884,0.185501,0.7302919999999999
1629897204785,-0.62586,0.185928,0.7315119999999999
1629897204795,-0.626287,0.186782,0.732366
1629897204804,-0.626592,0.18873399999999999,0.732976
1629897204814,-0.627812,0.189466,0.734806
1629897204824,-0.629093,0.18971,0.734989
1629897204833,-0.630008,0.189222,0.734379
1629897204843,-0.630862,0.18995399999999998,0.733464
1629897204852,-0.63013,0.188673,0.733464
1629897204862,-0.630191,0.18903899999999998,0.734196
1629897204872,-0.630069,0.18903899999999998,0.735538
1629897204881,-0.629581,0.188368,0.73505
1629897204891,-0.628239,0.187575,0.735233
1629897204900,-0.627934,0.187392,0.734928
1629897204910,-0.626165,0.187453,0.733586
1629897204920,-0.62647,0.18971,0.73383
1629897204929,-0.627507,0.190015,0.735111
1629897204939,-0.627202,0.190137,0.733464
1629897204948,-0.627019,0.187636,0.731146
1629897204958,-0.626653,0.187941,0.729438
1629897204968,-0.626897,0.188246,0.728828
1629897204977,-0.627629,0.19032,0.730048
1629897204987,-0.629276,0.19178399999999998,0.731634
1629897204996,-0.629154,0.193614,0.733098
1629897205006,-0.629459,0.194163,0.733708
1629897205016,-0.629398,0.19337,0.733464
1629897205025,-0.628727,0.19215,0.732549
1629897205035,-0.628239,0.191296,0.731146
1629897205044,-0.627934,0.19086899999999998,0.730841
1629897205054,-0.626836,0.19056399999999998,0.7290719999999999
1629897205064,-0.627812,0.191235,0.727791
1629897205073,-0.627995,0.192516,0.728889
1629897205083,-0.627263,0.193004,0.7287669999999999
1629897205092,-0.627568,0.192516,0.7287669999999999
1629897205102,-0.626836,0.193248,0.729255
1629897205112,-0.626836,0.192516,0.7287669999999999
1629897205121,-0.626165,0.19178399999999998,0.7290719999999999
1629897205131,-0.62647,0.190198,0.729316
1629897205140,-0.627446,0.189466,0.729804
1629897205150,-0.626531,0.188917,0.7296819999999999
1629897205160,-0.627202,0.188307,0.730048
1629897205169,-0.627751,0.188856,0.730231
1629897205179,-0.629642,0.189283,0.7305969999999999
1629897205188,-0.62952,0.190442,0.7321219999999999
1629897205198,-0.631228,0.191662,0.73322
1629897205208,-0.630374,0.192577,0.733586
1629897205217,-0.631533,0.192699,0.732305
1629897205227,-0.63135,0.192455,0.732
1629897205236,-0.631228,0.192943,0.73139
1629897205246,-0.630374,0.19337,0.730109
1629897205256,-0.630374,0.193004,0.7293769999999999
1629897205265,-0.630008,0.193065,0.730048
1629897205275,-0.63013,0.192699,0.729499
1629897205284,-0.629093,0.192455,0.729926
1629897205294,-0.6283,0.191845,0.730963
1629897205304,-0.627629,0.190381,0.7318169999999999
1629897205313,-0.626653,0.189222,0.733769
1629897205323,-0.628422,0.188368,0.735111
1629897205332,-0.626165,0.187026,0.735904
1629897205342,-0.627202,0.18727,0.734989
1629897205352,-0.62586,0.186965,0.735416
1629897205361,-0.625433,0.188673,0.734684
1629897205371,-0.626897,0.188795,0.7342569999999999
1629897205380,-0.627324,0.188673,0.733403
1629897205390,-0.626226,0.188795,0.731695
1629897205400,-0.627202,0.190076,0.732183
1629897205409,-0.626836,0.190503,0.731695
1629897205419,-0.625921,0.192272,0.72956
1629897205428,-0.627019,0.194346,0.7290719999999999
1629897205438,-0.629032,0.19580999999999998,0.731573
1629897205448,-0.628239,0.194529,0.7302919999999999
1629897205457,-0.627263,0.18995399999999998,0.7272419999999999
1629897205467,-0.625799,0.187392,0.726632
1629897205476,-0.62586,0.18873399999999999,0.72834
1629897205486,-0.625982,0.189283,0.7315119999999999
1629897205496,-0.625189,0.19025899999999998,0.733708
1629897205505,-0.625494,0.191052,0.735111
1629897205515,-0.625921,0.190686,0.7351719999999999
1629897205524,-0.625616,0.19032,0.733525
1629897205534,-0.626531,0.190198,0.732244
1629897205544,-0.626104,0.18842899999999999,0.7305969999999999
1629897205553,-0.626104,0.188368,0.730048
1629897205563,-0.627507,0.18934399999999998,0.730231
1629897205572,-0.627507,0.189161,0.729194
1629897205582,-0.628361,0.190686,0.731024
1629897205592,-0.6283,0.19215,0.7321219999999999
1629897205601,-0.629032,0.191845,0.733159
1629897205611,-0.629703,0.191296,0.732976
1629897205620,-0.629276,0.190747,0.73261
1629897205630,-0.629642,0.190442,0.732305
1629897205640,-0.629764,0.189466,0.732671
1629897205649,-0.628727,0.190076,0.732488
1629897205659,-0.630313,0.19147899999999998,0.733708
1629897205668,-0.629642,0.189832,0.734684
1629897205678,-0.630008,0.189832,0.7351719999999999
1629897205688,-0.628544,0.188856,0.734745
1629897205697,-0.628361,0.187941,0.735111
1629897205707,-0.627324,0.187209,0.734074
1629897205716,-0.627324,0.190442,0.733586
1629897205726,-0.627995,0.191906,0.7348669999999999
1629897205736,-0.627873,0.193248,0.734135
1629897205745,-0.627934,0.18995399999999998,0.72956
1629897205755,-0.627202,0.189222,0.727364
1629897205764,-0.627629,0.190808,0.726998
1629897205774,-0.6283,0.19276,0.729255
1629897205784,-0.629032,0.193309,0.731756
1629897205793,-0.628361,0.194224,0.733098
1629897205803,-0.628422,0.193858,0.734013
1629897205812,-0.629154,0.193858,0.733464
1629897205822,-0.628056,0.193248,0.734013
1629897205832,-0.627751,0.192333,0.732244
1629897205841,-0.627141,0.190198,0.730536
1629897205851,-0.626531,0.19032,0.730353
1629897205860,-0.62708,0.190991,0.729316
1629897205870,-0.626165,0.191967,0.728584
1629897205880,-0.626653,0.192943,0.729255
1629897205889,-0.627263,0.193492,0.7296819999999999
1629897205899,-0.626836,0.194163,0.729438
1629897205908,-0.626226,0.192272,0.730475
1629897205918,-0.626592,0.192821,0.731451
1629897205928,-0.626958,0.191967,0.730719
1629897205937,-0.627141,0.191662,0.731329
1629897205947,-0.626409,0.190442,0.7309019999999999
1629897205956,-0.626409,0.190137,0.7312069999999999
1629897205966,-0.62647,0.191052,0.731878
1629897205976,-0.627263,0.191418,0.732305
1629897205985,-0.627141,0.191357,0.7327319999999999
1629897205995,-0.627934,0.192333,0.732061
1629897206004,-0.627934,0.192821,0.732549
1629897206014,-0.627934,0.191662,0.732915
1629897206024,-0.62769,0.192028,0.732854
1629897206033,-0.627324,0.191418,0.731756
1629897206043,-0.626714,0.19215,0.7321219999999999
1629897206052,-0.62708,0.192394,0.731329
1629897206062,-0.627019,0.193736,0.732183
1629897206072,-0.626897,0.19397999999999999,0.732549
1629897206081,-0.627385,0.194102,0.732915
1629897206091,-0.627568,0.193248,0.7318169999999999
1629897206100,-0.627629,0.193492,0.732244
1629897206110,-0.627934,0.193797,0.733098
1629897206120,-0.62769,0.194163,0.7327319999999999
1629897206129,-0.626653,0.192943,0.733403
1629897206139,-0.626775,0.191601,0.733525
1629897206148,-0.625555,0.190686,0.7339519999999999
1629897206158,-0.625494,0.189771,0.734135
1629897206168,-0.625006,0.190015,0.734501
1629897206177,-0.624884,0.18971,0.7345619999999999
1629897206187,-0.626226,0.19025899999999998,0.734623
1629897206196,-0.62525,0.191235,0.734501
1629897206206,-0.625616,0.190381,0.734806
1629897206216,-0.625677,0.191845,0.73322
1629897206225,-0.627446,0.19276,0.734074
1629897206235,-0.626409,0.192028,0.731756
1629897206244,-0.625555,0.193004,0.731146
1629897206254,-0.626775,0.193553,0.732061
1629897206264,-0.627141,0.19428499999999999,0.73078
1629897206273,-0.626897,0.196054,0.7281569999999999
1629897206283,-0.628422,0.197884,0.730109
1629897206292,-0.628727,0.198311,0.732488
1629897206302,-0.6283,0.195383,0.730536
1629897206312,-0.62708,0.190686,0.726632
1629897206321,-0.625921,0.190503,0.7278519999999999
1629897206331,-0.626226,0.190747,0.730109
1629897206340,-0.626226,0.19178399999999998,0.732366
1629897206350,-0.626653,0.191906,0.734928
1629897206360,-0.626287,0.192272,0.735721
1629897206369,-0.626287,0.19154,0.7354769999999999
1629897206379,-0.626165,0.191235,0.73383
1629897206388,-0.624823,0.18934399999999998,0.732488
1629897206398,-0.625616,0.188673,0.731146
1629897206408,-0.625372,0.188978,0.730414
1629897206417,-0.62647,0.18964899999999998,0.72956
1629897206427,-0.626836,0.191967,0.730719
1629897206436,-0.627995,0.192577,0.73078
1629897206446,-0.628483,0.193858,0.730414
1629897206456,-0.627934,0.193553,0.730414
1629897206465,-0.628727,0.193553,0.730414
1629897206475,-0.629032,0.192455,0.731573
1629897206484,-0.628483,0.192455,0.73078
1629897206494,-0.628605,0.192028,0.73139
1629897206504,-0.629276,0.19056399999999998,0.731939
1629897206513,-0.628544,0.190442,0.733281
1629897206523,-0.628422,0.190381,0.733586
1629897206532,-0.628971,0.190137,0.7333419999999999
1629897206542,-0.62769,0.189222,0.735111
1629897206552,-0.626897,0.18934399999999998,0.7354769999999999
1629897206561,-0.626653,0.18788,0.733708
1629897206571,-0.627019,0.190442,0.732793
1629897206580,-0.628666,0.191601,0.731878
1629897206590,-0.628727,0.192516,0.7309019999999999
1629897206600,-0.628605,0.19367499999999999,0.7293769999999999
1629897206609,-0.628727,0.192333,0.726693
1629897206619,-0.629032,0.192821,0.728218
1629897206628,-0.628727,0.193126,0.728401
1629897206638,-0.63013,0.193248,0.7299869999999999
1629897206648,-0.630191,0.19428499999999999,0.731085
1629897206657,-0.629886,0.194834,0.731634
1629897206667,-0.631106,0.19458999999999999,0.731939
1629897206676,-0.63013,0.194773,0.730841
1629897206686,-0.630435,0.194468,0.730719
1629897206696,-0.630008,0.19489499999999998,0.730109
1629897206705,-0.628971,0.193309,0.730048
1629897206715,-0.629276,0.193736,0.727974
1629897206724,-0.628605,0.193431,0.7278519999999999
1629897206734,-0.628239,0.193431,0.727791
1629897206744,-0.628605,0.194224,0.727974
1629897206753,-0.628849,0.194956,0.728218
1629897206763,-0.628483,0.195017,0.727669
1629897206772,-0.628544,0.193614,0.7290719999999999
1629897206782,-0.628361,0.194834,0.729133
1629897206792,-0.628117,0.194102,0.729255
1629897206801,-0.627202,0.192882,0.729865
1629897206811,-0.627995,0.193126,0.730109
1629897206820,-0.628239,0.193614,0.730109
1629897206830,-0.628056,0.193309,0.731268
1629897206840,-0.6283,0.193492,0.731268
1629897206849,-0.628971,0.194041,0.731268
1629897206859,-0.628117,0.194712,0.731085
1629897206868,-0.628361,0.195139,0.7315119999999999
1629897206878,-0.628666,0.195322,0.7312069999999999
1629897206888,-0.627568,0.19519999999999998,0.729865
1629897206897,-0.627568,0.196298,0.729499
1629897206907,-0.628483,0.196237,0.7293769999999999
1629897206916,-0.627385,0.195444,0.729255
1629897206926,-0.6283,0.195749,0.73078
1629897206936,-0.627568,0.19580999999999998,0.731268
1629897206945,-0.627446,0.195627,0.7312069999999999
1629897206955,-0.627141,0.195871,0.731573
1629897206964,-0.62708,0.194834,0.732854
1629897206974,-0.626836,0.194529,0.732976
1629897206984,-0.627507,0.194346,0.7324269999999999
1629897206993,-0.627446,0.194224,0.733159
1629897207003,-0.627263,0.195017,0.73383
1629897207012,-0.626653,0.194163,0.73383
1629897207022,-0.625372,0.19367499999999999,0.7330369999999999
1629897207032,-0.625372,0.193004,0.731329
1629897207041,-0.625616,0.193187,0.731085
1629897207051,-0.62464,0.193431,0.732366
1629897207060,-0.62525,0.193797,0.732
1629897207070,-0.625982,0.194468,0.7315119999999999
1629897207080,-0.625921,0.194956,0.7321219999999999
1629897207089,-0.626409,0.195444,0.7318169999999999
1629897207099,-0.626348,0.195444,0.730719
1629897207108,-0.627385,0.197213,0.730536
1629897207118,-0.627324,0.196298,0.7293769999999999
1629897207128,-0.626592,0.19672499999999998,0.729316
1629897207137,-0.62708,0.196176,0.73139
1629897207147,-0.627202,0.198494,0.729621
1629897207156,-0.627385,0.198616,0.72773
1629897207166,-0.628117,0.2013,0.7284619999999999
1629897207176,-0.629032,0.201605,0.7305969999999999
1629897207185,-0.628361,0.199104,0.7290719999999999
1629897207195,-0.62647,0.194529,0.726876
1629897207204,-0.626226,0.19337,0.72651
1629897207214,-0.626592,0.192821,0.730109
1629897207224,-0.626287,0.19367499999999999,0.733159
1629897207233,-0.625433,0.193614,0.7345619999999999
1629897207243,-0.626104,0.193858,0.7363919999999999
1629897207252,-0.626836,0.193309,0.736453
1629897207262,-0.625982,0.192272,0.735416
1629897207272,-0.625616,0.191723,0.7333419999999999
1629897207281,-0.624579,0.191113,0.7315119999999999
1629897207291,-0.624701,0.19032,0.730353
1629897207300,-0.626043,0.19147899999999998,0.730231
1629897207310,-0.62647,0.193736,0.7302919999999999
1629897207320,-0.627812,0.196176,0.730231
1629897207329,-0.628239,0.197457,0.7299869999999999
1629897207339,-0.628483,0.197823,0.7302919999999999
1629897207348,-0.628178,0.196847,0.731268
1629897207358,-0.628178,0.196786,0.7302919999999999
1629897207368,-0.628788,0.19550499999999998,0.73139
1629897207377,-0.628788,0.195078,0.73261
1629897207387,-0.627629,0.194529,0.732671
1629897207396,-0.628117,0.19397999999999999,0.73383
1629897207406,-0.62769,0.193797,0.733708
1629897207416,-0.627568,0.193919,0.7351719999999999
1629897207425,-0.62708,0.192516,0.735416
1629897207435,-0.62647,0.191418,0.734501
1629897207444,-0.624762,0.191357,0.733159
1629897207454,-0.625189,0.194773,0.732
1629897207464,-0.626104,0.195139,0.73139
1629897207473,-0.62586,0.19672499999999998,0.730109
1629897207483,-0.626226,0.195932,0.728523
1629897207492,-0.627141,0.196359,0.7278519999999999
1629897207502,-0.626897,0.19611499999999998,0.728401
1629897207512,-0.625677,0.196786,0.7287669999999999
1629897207521,-0.626958,0.197457,0.730414
1629897207531,-0.627446,0.19733499999999998,0.732305
1629897207540,-0.628178,0.198433,0.732305
1629897207550,-0.627934,0.198067,0.732488
1629897207560,-0.627507,0.197396,0.73322
1629897207569,-0.627568,0.197152,0.733098
1629897207579,-0.626714,0.197091,0.7327319999999999
1629897207588,-0.625921,0.19580999999999998,0.73261
1629897207598,-0.625555,0.194712,0.7315119999999999
1629897207608,-0.625555,0.195322,0.730658
1629897207617,-0.625616,0.195383,0.729316
1629897207627,-0.625494,0.195871,0.729316
1629897207636,-0.625616,0.19672499999999998,0.729255
1629897207646,-0.625555,0.19702999999999998,0.729621
1629897207656,-0.625494,0.197152,0.731146
1629897207665,-0.62525,0.197091,0.7309019999999999
1629897207675,-0.625616,0.19611499999999998,0.731146
1629897207684,-0.625982,0.195749,0.7321219999999999
1629897207694,-0.626714,0.19550499999999998,0.732549
1629897207704,-0.626043,0.195139,0.732305
1629897207713,-0.626714,0.194468,0.732549
1629897207723,-0.626775,0.19519999999999998,0.732366
1629897207732,-0.627202,0.19672499999999998,0.732244
1629897207742,-0.627019,0.197396,0.731329
1629897207752,-0.627629,0.198006,0.73139
1629897207761,-0.627324,0.198372,0.731329
1629897207771,-0.627019,0.198555,0.730475
1629897207780,-0.627995,0.198738,0.73017
1629897207790,-0.626836,0.198799,0.730475
1629897207800,-0.626714,0.198128,0.7299869999999999
1629897207809,-0.626653,0.19763999999999998,0.730719
1629897207819,-0.625616,0.198128,0.731268
1629897207828,-0.625738,0.196908,0.732488
1629897207838,-0.624762,0.19672499999999998,0.732305
1629897207848,-0.625067,0.196664,0.732854
1629897207857,-0.625006,0.19550499999999998,0.733525
1629897207867,-0.624884,0.195017,0.733464
1629897207876,-0.624884,0.195078,0.733281
1629897207886,-0.625189,0.195993,0.734013
1629897207896,-0.624823,0.196298,0.733891
1629897207905,-0.624335,0.19611499999999998,0.7327319999999999
1629897207915,-0.62403,0.19611499999999998,0.732793
1629897207924,-0.623725,0.19550499999999998,0.7315119999999999
1629897207934,-0.62342,0.196176,0.732244
1629897207944,-0.624396,0.195017,0.7312069999999999
1629897207953,-0.624213,0.195139,0.731878
1629897207963,-0.624274,0.196359,0.732488
1629897207972,-0.625982,0.196359,0.73322
1629897207982,-0.625128,0.195932,0.732915
1629897207992,-0.625372,0.196481,0.733464
1629897208001,-0.626409,0.196054,0.732915
1629897208011,-0.62586,0.196298,0.731268
1629897208020,-0.62586,0.196786,0.730719
1629897208030,-0.62647,0.197274,0.732854
1629897208040,-0.626714,0.198006,0.7318169999999999
1629897208049,-0.626165,0.19983599999999999,0.729011
1629897208059,-0.627324,0.201178,0.727913
1629897208068,-0.628849,0.202764,0.730353
1629897208078,-0.628422,0.200812,0.732244
1629897208088,-0.626287,0.197213,0.7281569999999999
1629897208097,-0.625921,0.193553,0.727303
1629897208107,-0.625128,0.194224,0.729499
1629897208116,-0.625616,0.19458999999999999,0.732
1629897208126,-0.625189,0.194651,0.734501
1629897208136,-0.625433,0.19519999999999998,0.736148
1629897208145,-0.625311,0.19489499999999998,0.736514
1629897208155,-0.625311,0.194224,0.735416
1629897208164,-0.625128,0.193736,0.734013
1629897208174,-0.625372,0.191845,0.731695
1629897208184,-0.62464,0.192943,0.729621
1629897208193,-0.625372,0.193309,0.7296819999999999
1629897208203,-0.626165,0.194956,0.7296819999999999
1629897208212,-0.626958,0.197762,0.729804
1629897208222,-0.628056,0.20014099999999999,0.729499
1629897208232,-0.627507,0.200019,0.729194
1629897208241,-0.627202,0.200507,0.7290719999999999
1629897208251,-0.627873,0.199226,0.7293769999999999
1629897208260,-0.628117,0.198189,0.730536
1629897208270,-0.628483,0.196786,0.7302919999999999
1629897208280,-0.628666,0.195749,0.732183
1629897208289,-0.628178,0.195566,0.732244
1629897208299,-0.628788,0.195444,0.733464
1629897208308,-0.628056,0.19550499999999998,0.73444
1629897208318,-0.626592,0.19458999999999999,0.734196
1629897208328,-0.625799,0.192821,0.734745
1629897208337,-0.624213,0.195078,0.733098
1629897208347,-0.625738,0.19672499999999998,0.731756
1629897208356,-0.626531,0.196664,0.73139
1629897208366,-0.626165,0.198006,0.729804
1629897208376,-0.625738,0.196847,0.72651
1629897208385,-0.626043,0.19733499999999998,0.725046
1629897208395,-0.626653,0.198372,0.727059
1629897208404,-0.626714,0.199165,0.727913
1629897208414,-0.627934,0.199104,0.730231
1629897208424,-0.628056,0.199348,0.7315119999999999
1629897208433,-0.628727,0.19947,0.732244
1629897208443,-0.628544,0.199348,0.732915
1629897208452,-0.628483,0.198433,0.732793
1629897208462,-0.6283,0.197152,0.732366
1629897208472,-0.627812,0.196786,0.731756
1629897208481,-0.62708,0.19611499999999998,0.731024
1629897208491,-0.626958,0.196664,0.730048
1629897208500,-0.626348,0.197274,0.730048
1629897208510,-0.62647,0.198921,0.72895
1629897208520,-0.625494,0.198616,0.728645
1629897208529,-0.625982,0.19886,0.727974
1629897208539,-0.624823,0.198311,0.727669
1629897208548,-0.624335,0.19794499999999998,0.729255
1629897208558,-0.625006,0.196908,0.731573
1629897208568,-0.625372,0.195749,0.731573
1629897208577,-0.624396,0.19702999999999998,0.732183
1629897208587,-0.624823,0.195444,0.7333419999999999
1629897208596,-0.625494,0.195078,0.733098
1629897208606,-0.625921,0.19367499999999999,0.73322
1629897208616,-0.626104,0.194163,0.7321219999999999
1629897208625,-0.625982,0.195139,0.732183
1629897208635,-0.627629,0.195627,0.7327319999999999
1629897208644,-0.627629,0.197274,0.732793
1629897208654,-0.627812,0.197762,0.731878
1629897208664,-0.627812,0.198189,0.732
1629897208673,-0.627568,0.198921,0.7312069999999999
1629897208683,-0.627263,0.198616,0.731573
1629897208692,-0.627446,0.198372,0.730536
1629897208702,-0.626653,0.198006,0.730475
1629897208712,-0.625738,0.196237,0.7299869999999999
1629897208721,-0.625982,0.196542,0.731085
1629897208731,-0.626531,0.19611499999999998,0.731329
1629897208740,-0.625921,0.196054,0.7324269999999999
1629897208750,-0.625982,0.197213,0.73322
1629897208760,-0.62586,0.195932,0.7333419999999999
1629897208769,-0.62525,0.195993,0.732549
1629897208779,-0.625494,0.195688,0.731451
1629897208788,-0.625128,0.19519999999999998,0.732305
1629897208798,-0.625128,0.19611499999999998,0.732183
1629897208808,-0.625372,0.197091,0.731878
1629897208817,-0.624945,0.19672499999999998,0.7312069999999999
1629897208827,-0.624518,0.196176,0.7302919999999999
1629897208836,-0.624518,0.196359,0.7302919999999999
1629897208846,-0.625128,0.195627,0.730353
1629897208856,-0.625799,0.195627,0.7302919999999999
1629897208865,-0.626287,0.195627,0.731451
1629897208875,-0.62586,0.196054,0.7315119999999999
1629897208884,-0.626226,0.196176,0.7327319999999999
1629897208894,-0.62708,0.197518,0.7321219999999999
1629897208904,-0.627934,0.197396,0.7327319999999999
1629897208913,-0.627995,0.19611499999999998,0.7312069999999999
1629897208923,-0.626897,0.196664,0.730475
1629897208932,-0.627568,0.196664,0.730536
1629897208942,-0.626958,0.198067,0.7299869999999999
1629897208952,-0.626775,0.198555,0.727791
1629897208961,-0.627629,0.200995,0.727669
1629897208971,-0.629459,0.20313,0.7318169999999999
1629897208980,-0.629337,0.200568,0.7327319999999999
1629897208990,-0.628056,0.196908,0.7296819999999999
1629897209000,-0.627141,0.193065,0.728035
1629897209009,-0.625372,0.193309,0.730109
1629897209019,-0.625677,0.19458999999999999,0.732671
1629897209028,-0.626043,0.194468,0.734196
1629897209038,-0.625738,0.195383,0.7357819999999999
1629897209048,-0.62525,0.195871,0.73566
1629897209057,-0.625433,0.19489499999999998,0.735416
1629897209067,-0.624762,0.193126,0.733708
1629897209076,-0.624274,0.19215,0.732
1629897209086,-0.623237,0.19147899999999998,0.730353
1629897209096,-0.623481,0.191906,0.729865
1629897209105,-0.623908,0.192638,0.730658
1629897209115,-0.62525,0.193614,0.732244
1629897209124,-0.626409,0.195566,0.732549
1629897209134,-0.626958,0.196359,0.7327319999999999
1629897209144,-0.625982,0.196603,0.73261
1629897209153,-0.626226,0.19519999999999998,0.73261
1629897209163,-0.626958,0.194956,0.732549
1629897209172,-0.626775,0.193614,0.73261
1629897209182,-0.627507,0.194041,0.73322
1629897209192,-0.627507,0.194163,0.733891
1629897209201,-0.627507,0.194651,0.734684
1629897209211,-0.627629,0.19397999999999999,0.735355
1629897209220,-0.62647,0.193248,0.7370019999999999
1629897209230,-0.625799,0.191906,0.7348669999999999
1629897209240,-0.624152,0.194041,0.733159
1629897209249,-0.625616,0.195566,0.734135
1629897209259,-0.626348,0.19611499999999998,0.733586
1629897209268,-0.625555,0.19428499999999999,0.7305969999999999
1629897209278,-0.625433,0.193431,0.727181
1629897209288,-0.625128,0.194407,0.726815
1629897209297,-0.625433,0.19519999999999998,0.72895
1629897209307,-0.625677,0.195688,0.73078
1629897209316,-0.626226,0.197213,0.733464
1629897209326,-0.626653,0.197457,0.734684
1629897209336,-0.627202,0.196908,0.735294
1629897209345,-0.627019,0.195688,0.7351719999999999
1629897209355,-0.626409,0.194834,0.733464
1629897209364,-0.626287,0.193309,0.732061
1629897209374,-0.625616,0.193004,0.7305969999999999
1629897209384,-0.626043,0.192882,0.730475
1629897209393,-0.626043,0.193919,0.72956
1629897209403,-0.626043,0.194712,0.729194
1629897209412,-0.626592,0.195627,0.729316
1629897209422,-0.626287,0.194712,0.729621
1629897209432,-0.625616,0.19428499999999999,0.7305969999999999
1629897209441,-0.626653,0.193126,0.731268
1629897209451,-0.62586,0.193187,0.731146
1629897209460,-0.626104,0.192821,0.732366
1629897209470,-0.626409,0.191296,0.731573
1629897209480,-0.626348,0.191662,0.731329
1629897209489,-0.626348,0.190991,0.731573
1629897209499,-0.628056,0.191235,0.731695
1629897209508,-0.627019,0.191052,0.732488
1629897209518,-0.628056,0.191052,0.732183
1629897209528,-0.628361,0.19178399999999998,0.7327319999999999
1629897209537,-0.628544,0.192882,0.732671
1629897209547,-0.628666,0.193065,0.732305
1629897209556,-0.629032,0.19367499999999999,0.732549
1629897209566,-0.628666,0.19337,0.7321219999999999
1629897209576,-0.627995,0.19458999999999999,0.7315119999999999
1629897209585,-0.627873,0.193736,0.7309019999999999
1629897209595,-0.628788,0.194041,0.731695
1629897209604,-0.628178,0.193614,0.7315119999999999
1629897209614,-0.628178,0.194102,0.731939
1629897209624,-0.626958,0.192882,0.731085
1629897209633,-0.627202,0.192882,0.731756
1629897209643,-0.625677,0.192272,0.732366
1629897209652,-0.625494,0.191357,0.733098
1629897209662,-0.624518,0.191723,0.7348669999999999
1629897209672,-0.624457,0.190686,0.734806
1629897209681,-0.624518,0.18971,0.735538
1629897209691,-0.625311,0.189832,0.735416
1629897209700,-0.624762,0.188673,0.73627
1629897209710,-0.624762,0.189466,0.7351719999999999
1629897209720,-0.623664,0.189466,0.734318
1629897209729,-0.62342,0.190625,0.733281
1629897209739,-0.624823,0.191662,0.733891
1629897209748,-0.626226,0.193187,0.7330369999999999
1629897209758,-0.62586,0.192333,0.7324269999999999
1629897209768,-0.625616,0.191906,0.7296819999999999
1629897209777,-0.624457,0.193187,0.730231
1629897209787,-0.625067,0.19367499999999999,0.7305969999999999
1629897209796,-0.62464,0.19519999999999998,0.730231
1629897209806,-0.625372,0.19641999999999998,0.730658
1629897209816,-0.6283,0.198006,0.7327319999999999
1629897209825,-0.627629,0.195627,0.733891
1629897209835,-0.62769,0.192211,0.732244
1629897209844,-0.625067,0.188185,0.7305969999999999
1629897209854,-0.624823,0.188978,0.732915
1629897209864,-0.625189,0.191052,0.734501
1629897209873,-0.624335,0.192516,0.7348669999999999
1629897209883,-0.62525,0.194224,0.735599
1629897209892,-0.625372,0.19337,0.734623
1629897209902,-0.624884,0.193614,0.733708
1629897209912,-0.624823,0.19215,0.732915
1629897209921,-0.624335,0.191052,0.732549
1629897209931,-0.624884,0.190137,0.732244
1629897209940,-0.624335,0.188856,0.7321219999999999
1629897209950,-0.624274,0.188978,0.732488
1629897209960,-0.624091,0.190015,0.73261
1629897209969,-0.62525,0.192211,0.732854
1629897209979,-0.62525,0.193309,0.73444
1629897209988,-0.62586,0.193919,0.734013
1629897209998,-0.626897,0.192943,0.734074
1629897210008,-0.626958,0.193736,0.7342569999999999
1629897210017,-0.627934,0.192028,0.734196
1629897210027,-0.62647,0.191845,0.734928
1629897210036,-0.62708,0.191906,0.734684
1629897210046,-0.626897,0.19117399999999998,0.735294
1629897210056,-0.626592,0.190991,0.735843
1629897210065,-0.625799,0.189588,0.73566
1629897210075,-0.623542,0.189588,0.733708
1629897210084,-0.624701,0.192272,0.7321219999999999
1629897210094,-0.625616,0.193004,0.734684
1629897210104,-0.626226,0.19337,0.734135
1629897210113,-0.624884,0.190808,0.730414
1629897210123,-0.625067,0.19056399999999998,0.7290719999999999
1629897210132,-0.626104,0.19154,0.728401
1629897210142,-0.626409,0.192577,0.73017
1629897210152,-0.626592,0.193248,0.731451
1629897210161,-0.627873,0.194041,0.733586
1629897210171,-0.627934,0.195688,0.733708
1629897210180,-0.626836,0.194834,0.73383
1629897210190,-0.626958,0.194712,0.734318
1629897210200,-0.627751,0.193004,0.732488
1629897210209,-0.627202,0.191357,0.731939
1629897210219,-0.626958,0.19093,0.7302919999999999
1629897210228,-0.627507,0.191662,0.730658
1629897210238,-0.62769,0.19154,0.73078
1629897210248,-0.62647,0.191906,0.730719
1629897210257,-0.627446,0.192455,0.729865
1629897210267,-0.627324,0.19215,0.730963
1629897210276,-0.626897,0.191906,0.730841
1629897210286,-0.626958,0.190991,0.7312069999999999
1629897210296,-0.62708,0.189588,0.7309019999999999
1629897210305,-0.626836,0.189466,0.731878
1629897210315,-0.626409,0.187636,0.732061
1629897210324,-0.627019,0.188246,0.732183
1629897210334,-0.626775,0.18781899999999999,0.732305
1629897210344,-0.62769,0.188551,0.7330369999999999
1629897210353,-0.628178,0.18971,0.7330369999999999
1629897210363,-0.628361,0.190015,0.7327319999999999
1629897210372,-0.628666,0.191235,0.7330369999999999
1629897210382,-0.629642,0.192272,0.732976
1629897210392,-0.629337,0.192272,0.7315119999999999
1629897210401,-0.629764,0.192455,0.731634
1629897210411,-0.629398,0.193065,0.73139
1629897210420,-0.628971,0.192821,0.730414
1629897210430,-0.628544,0.192516,0.729011
1629897210440,-0.627751,0.192699,0.730109
1629897210449,-0.627141,0.191967,0.730475
1629897210459,-0.626653,0.191235,0.7312069999999999
1629897210468,-0.625921,0.19086899999999998,0.7312069999999999
1629897210478,-0.625738,0.188978,0.7324269999999999
1629897210488,-0.626043,0.188856,0.733708
1629897210497,-0.625982,0.18788,0.734684
1629897210507,-0.626226,0.187087,0.736026
1629897210516,-0.625555,0.186965,0.7357819999999999
1629897210526,-0.625006,0.186538,0.7351719999999999
1629897210536,-0.625189,0.188063,0.734318
1629897210545,-0.625921,0.189527,0.733525
1629897210555,-0.627629,0.19025899999999998,0.733586
1629897210564,-0.627446,0.190076,0.731756
1629897210574,-0.626348,0.190808,0.7293769999999999
1629897210584,-0.627873,0.19215,0.729499
1629897210593,-0.627812,0.193614,0.7290719999999999
1629897210603,-0.627446,0.19458999999999999,0.7278519999999999
1629897210612,-0.628544,0.197457,0.728035
1629897210622,-0.630496,0.199775,0.731085
1629897210632,-0.630435,0.196664,0.731451
1629897210641,-0.62891,0.192028,0.727913
1629897210651,-0.628239,0.189466,0.726632
1629897210660,-0.627263,0.18995399999999998,0.729499
1629897210670,-0.627324,0.191662,0.732305
1629897210680,-0.627629,0.192577,0.7339519999999999
1629897210689,-0.626958,0.192638,0.7339519999999999
1629897210699,-0.627751,0.192516,0.733708
1629897210708,-0.627873,0.191906,0.732366
1629897210718,-0.627385,0.19147899999999998,0.730475
1629897210728,-0.62769,0.18995399999999998,0.72895
1629897210737,-0.627934,0.190442,0.7290719999999999
1629897210747,-0.628178,0.190625,0.7281569999999999
1629897210756,-0.628605,0.191662,0.7290719999999999
1629897210766,-0.628727,0.193126,0.728706
1629897210776,-0.629093,0.194102,0.7296819999999999
1629897210785,-0.629581,0.19489499999999998,0.729926
1629897210795,-0.630069,0.194834,0.7299869999999999
1629897210804,-0.63013,0.194773,0.729926
1629897210814,-0.630313,0.19397999999999999,0.7302919999999999
1629897210824,-0.630984,0.194529,0.73078
1629897210833,-0.63074,0.193736,0.731451
1629897210843,-0.630008,0.193492,0.731573
1629897210852,-0.62952,0.194224,0.732244
1629897210862,-0.629154,0.192699,0.7321219999999999
1629897210872,-0.629337,0.192638,0.732976
1629897210881,-0.627446,0.191113,0.7330369999999999
1629897210891,-0.626165,0.192638,0.730963
1629897210900,-0.627385,0.195383,0.7315119999999999
1629897210910,-0.627995,0.195871,0.733281
1629897210920,-0.628422,0.195383,0.731695
1629897210929,-0.627934,0.19276,0.726876
1629897210939,-0.626836,0.193492,0.725351
1629897210948,-0.627507,0.195627,0.7259
1629897210958,-0.628849,0.19641999999999998,0.728279
1629897210968,-0.629398,0.198189,0.730414
1629897210977,-0.62891,0.198555,0.73139
1629897210987,-0.629154,0.199165,0.732
1629897210996,-0.629093,0.19794499999999998,0.732366
1629897211006,-0.627507,0.195444,0.73139
1629897211016,-0.627141,0.194834,0.7315119999999999
1629897211025,-0.626531,0.19367499999999999,0.7296819999999999
1629897211035,-0.625555,0.194163,0.729011
1629897211044,-0.62647,0.194712,0.729255
1629897211054,-0.626592,0.195017,0.728828
1629897211064,-0.626958,0.195932,0.728645
1629897211073,-0.626592,0.196542,0.7290719999999999
1629897211083,-0.626592,0.195322,0.729926
1629897211092,-0.626409,0.194834,0.731329
1629897211102,-0.625372,0.19489499999999998,0.730719
1629897211112,-0.626226,0.194224,0.73078
1629897211121,-0.625616,0.193492,0.7309019999999999
1629897211131,-0.625555,0.192699,0.7302919999999999
1629897211140,-0.626775,0.193248,0.731085
1629897211150,-0.626653,0.193309,0.7318169999999999
1629897211160,-0.627446,0.194041,0.731085
1629897211169,-0.626897,0.195322,0.732183
1629897211179,-0.627751,0.195444,0.7333419999999999
1629897211188,-0.627202,0.195322,0.7327319999999999
1629897211198,-0.626714,0.195322,0.731634
1629897211208,-0.626836,0.195017,0.731146
1629897211217,-0.625982,0.194712,0.730963
1629897211227,-0.62708,0.195261,0.731085
1629897211236,-0.627263,0.19641999999999998,0.7318169999999999
1629897211246,-0.626165,0.196481,0.7318169999999999
1629897211256,-0.626775,0.195871,0.731756
1629897211265,-0.626897,0.19641999999999998,0.731451
1629897211275,-0.627324,0.196359,0.731451
1629897211284,-0.627446,0.196786,0.731146
1629897211294,-0.625982,0.19550499999999998,0.73261
1629897211304,-0.625189,0.194041,0.732549
1629897211313,-0.624152,0.19367499999999999,0.733464
1629897211323,-0.624091,0.192577,0.732976
1629897211332,-0.62403,0.192272,0.733525
1629897211342,-0.624945,0.191662,0.734135
1629897211352,-0.624945,0.19215,0.734623
1629897211361,-0.624701,0.191845,0.734196
1629897211371,-0.625433,0.193431,0.734501
1629897211380,-0.625738,0.194468,0.732793
1629897211390,-0.626836,0.195261,0.732244
1629897211400,-0.626836,0.194956,0.731085
1629897211409,-0.625677,0.195261,0.72956
1629897211419,-0.62708,0.197396,0.730841
1629897211428,-0.627568,0.198311,0.729865
1629897211438,-0.626836,0.199287,0.726998
1629897211448,-0.628056,0.20105599999999998,0.727913
1629897211457,-0.629093,0.202032,0.7305969999999999
1629897211467,-0.628788,0.198677,0.730353
1629897211476,-0.627141,0.193797,0.727059
1629897211486,-0.626653,0.192272,0.726815
1629897211496,-0.627263,0.192882,0.7293769999999999
1629897211505,-0.626836,0.195017,0.732244
1629897211515,-0.626653,0.194712,0.734623
1629897211524,-0.626958,0.194773,0.736758
1629897211534,-0.626653,0.193858,0.735721
1629897211544,-0.626836,0.193004,0.735294
1629897211553,-0.626226,0.192394,0.732854
1629897211563,-0.626348,0.192272,0.730414
1629897211572,-0.62708,0.192638,0.7290719999999999
1629897211582,-0.626409,0.19337,0.72834
1629897211592,-0.627263,0.194529,0.728279
1629897211601,-0.62769,0.19702999999999998,0.728889
1629897211611,-0.627995,0.19733499999999998,0.728706
1629897211620,-0.627995,0.197823,0.730048
1629897211630,-0.628056,0.197762,0.730048
1629897211640,-0.627873,0.196847,0.73017
1629897211649,-0.628178,0.19611499999999998,0.730475
1629897211659,-0.628422,0.195688,0.730658
1629897211668,-0.628483,0.195322,0.731878
1629897211678,-0.627934,0.194834,0.732061
1629897211688,-0.627324,0.194529,0.732549
1629897211697,-0.627507,0.19489499999999998,0.73383
1629897211707,-0.627324,0.19397999999999999,0.733769
1629897211716,-0.626775,0.193431,0.7348669999999999
1629897211726,-0.626531,0.192028,0.733891
1629897211736,-0.625128,0.193187,0.7321219999999999
1629897211745,-0.62647,0.195871,0.732671
1629897211755,-0.626104,0.19763999999999998,0.7318169999999999
1629897211764,-0.626226,0.196664,0.729438
1629897211774,-0.626226,0.195932,0.72712
1629897211784,-0.626775,0.196603,0.72712
1629897211793,-0.626104,0.19763999999999998,0.728218
1629897211803,-0.627141,0.198433,0.730048
1629897211812,-0.627324,0.19983599999999999,0.731329
1629897211822,-0.628117,0.199653,0.732488
1629897211832,-0.628605,0.199653,0.732488
1629897211841,-0.628971,0.198372,0.731939
1629897211851,-0.626958,0.198433,0.731634
1629897211860,-0.626775,0.19763999999999998,0.730841
1629897211870,-0.626592,0.196908,0.729804
1629897211880,-0.626165,0.197396,0.729255
1629897211889,-0.625433,0.197274,0.728889
1629897211899,-0.625189,0.197396,0.7287669999999999
1629897211908,-0.625494,0.197762,0.7287669999999999
1629897211918,-0.626226,0.198372,0.728828
1629897211928,-0.626226,0.197518,0.728645
1629897211937,-0.625616,0.196969,0.72956
1629897211947,-0.625555,0.197457,0.730658
1629897211956,-0.625616,0.19702999999999998,0.7309019999999999
1629897211966,-0.625799,0.195932,0.731756
1629897211976,-0.626348,0.19611499999999998,0.7318169999999999
1629897211985,-0.626531,0.195932,0.732244
1629897211995,-0.626104,0.195627,0.732
1629897212004,-0.626897,0.195871,0.73139
1629897212014,-0.626897,0.196481,0.732183
1629897212024,-0.627385,0.197884,0.731939
1629897212033,-0.628056,0.19825,0.731573
1629897212043,-0.627202,0.19825,0.730841
1629897212052,-0.626836,0.199104,0.7315119999999999
1629897212062,-0.626714,0.199043,0.730231
1629897212072,-0.62586,0.198799,0.728889
1629897212081,-0.626836,0.198677,0.7293769999999999
1629897212091,-0.626409,0.19794499999999998,0.730475
1629897212100,-0.626348,0.198128,0.73078
1629897212110,-0.626592,0.197823,0.731695
1629897212120,-0.626226,0.198189,0.731878
1629897212129,-0.626043,0.19611499999999998,0.7321219999999999
1629897212139,-0.625677,0.19611499999999998,0.732305
1629897212148,-0.62586,0.196054,0.732305
1629897212158,-0.625372,0.196847,0.733159
1629897212168,-0.625677,0.196237,0.733464
1629897212177,-0.624762,0.195383,0.732854
1629897212187,-0.624457,0.194407,0.7321219999999999
1629897212196,-0.624884,0.194224,0.731573
1629897212206,-0.624579,0.19550499999999998,0.731329
1629897212216,-0.625372,0.19550499999999998,0.731329
1629897212225,-0.625555,0.196054,0.731878
1629897212235,-0.625006,0.197213,0.7321219999999999
1629897212244,-0.626531,0.197701,0.730963
1629897212254,-0.626775,0.198311,0.7312069999999999
1629897212264,-0.626897,0.198372,0.73078
1629897212273,-0.626958,0.197701,0.729499
1629897212283,-0.626775,0.198128,0.729438
1629897212292,-0.626226,0.199043,0.73078
1629897212302,-0.626653,0.199592,0.729621
1629897212312,-0.626958,0.20044599999999999,0.7269369999999999
1629897212321,-0.62769,0.202642,0.72834
1629897212331,-0.628544,0.20313,0.730414
1629897212340,-0.627934,0.199531,0.7296819999999999
1629897212350,-0.626775,0.196786,0.726754
1629897212360,-0.626653,0.19397999999999999,0.726754
1629897212369,-0.627446,0.195932,0.729011
1629897212379,-0.626958,0.195078,0.731878
1629897212388,-0.626714,0.195932,0.733891
1629897212398,-0.626958,0.19580999999999998,0.735843
1629897212408,-0.62647,0.195749,0.735294
1629897212417,-0.626592,0.194834,0.733586
1629897212427,-0.625677,0.19397999999999999,0.732793
1629897212436,-0.626287,0.19337,0.7309019999999999
1629897212446,-0.62586,0.193065,0.729438
1629897212456,-0.626165,0.194468,0.72895
1629897212465,-0.627202,0.196054,0.729011
1629897212475,-0.626958,0.198555,0.7296819999999999
1629897212484,-0.627934,0.199714,0.730719
1629897212494,-0.628361,0.199348,0.729865
1629897212504,-0.6283,0.199714,0.729011
1629897212513,-0.628483,0.19825,0.730048
1629897212523,-0.628361,0.198128,0.730963
1629897212532,-0.628727,0.19641999999999998,0.73139
1629897212542,-0.628605,0.196054,0.730963
1629897212552,-0.627934,0.196054,0.732305
1629897212561,-0.628117,0.196603,0.73322
1629897212571,-0.628666,0.196481,0.733403
1629897212580,-0.627202,0.19519999999999998,0.7339519999999999
1629897212590,-0.626531,0.194712,0.733769
1629897212600,-0.625494,0.194651,0.73261
1629897212609,-0.625372,0.195749,0.731085
1629897212619,-0.626714,0.197884,0.7305969999999999
1629897212628,-0.627141,0.198982,0.729316
1629897212638,-0.626409,0.198799,0.726754
1629897212648,-0.627507,0.198921,0.726571
1629897212657,-0.62769,0.200019,0.726693
1629897212667,-0.627812,0.198921,0.726632
1629897212676,-0.627446,0.199592,0.7284619999999999
1629897212686,-0.628239,0.20008,0.731268
1629897212696,-0.628483,0.200995,0.731024
1629897212705,-0.629459,0.200812,0.732
1629897212715,-0.627995,0.199287,0.731756
1629897212724,-0.6283,0.198494,0.73078
1629897212734,-0.628422,0.199043,0.730963
1629897212744,-0.627324,0.199043,0.7299869999999999
1629897212753,-0.626958,0.198494,0.729804
1629897212763,-0.627202,0.199165,0.727913
1629897212772,-0.627934,0.19947,0.72834
1629897212782,-0.627507,0.199348,0.728584
1629897212792,-0.627385,0.199531,0.72834
1629897212801,-0.626348,0.20014099999999999,0.7278519999999999
1629897212811,-0.627446,0.199348,0.729316
1629897212820,-0.626775,0.199409,0.729255
1629897212830,-0.626226,0.199348,0.730414
1629897212840,-0.626714,0.198433,0.730963
1629897212849,-0.627019,0.197152,0.7309019999999999
1629897212859,-0.626409,0.197762,0.7305969999999999
1629897212868,-0.626897,0.198128,0.730963
1629897212878,-0.626714,0.198128,0.731329
1629897212888,-0.62769,0.198128,0.731451
1629897212897,-0.627568,0.19947,0.73139
1629897212907,-0.627202,0.199897,0.73078
1629897212916,-0.627812,0.20014099999999999,0.730109
1629897212926,-0.62769,0.200873,0.729621
1629897212936,-0.626897,0.201483,0.7281569999999999
1629897212945,-0.627141,0.20136099999999998,0.728889
1629897212955,-0.626958,0.199958,0.729255
1629897212964,-0.626958,0.199958,0.729499
1629897212974,-0.625738,0.20044599999999999,0.7302919999999999
1629897212984,-0.626348,0.199531,0.731024
1629897212993,-0.626592,0.199287,0.731268
1629897213003,-0.626348,0.198982,0.731756
1629897213012,-0.625799,0.19825,0.731024
1629897213022,-0.626226,0.198677,0.732
1629897213032,-0.625982,0.198555,0.731756
1629897213041,-0.625006,0.197884,0.732976
1629897213051,-0.624884,0.197579,0.732061
1629897213060,-0.624457,0.197396,0.731756
1629897213070,-0.624579,0.196603,0.7309019999999999
1629897213080,-0.624884,0.197396,0.730353
1629897213089,-0.62464,0.19733499999999998,0.731695
1629897213099,-0.624945,0.198189,0.731939
1629897213108,-0.62525,0.197884,0.732671
1629897213118,-0.62586,0.199287,0.731695
1629897213128,-0.625616,0.199592,0.732
1629897213137,-0.627263,0.199714,0.730414
1629897213147,-0.62769,0.199409,0.7296819999999999
1629897213156,-0.626958,0.199409,0.729804
1629897213166,-0.626958,0.20075099999999999,0.7315119999999999
1629897213176,-0.627202,0.2013,0.730536
1629897213185,-0.627019,0.201483,0.727181
1629897213195,-0.62708,0.203618,0.72773
1629897213204,-0.628178,0.205021,0.730841
1629897213214,-0.627812,0.20252,0.729926
1629897213224,-0.626714,0.198067,0.726693
1629897213233,-0.625677,0.196054,0.726327
1629897213243,-0.626348,0.196481,0.728706
1629897213252,-0.625677,0.197274,0.731878
1629897213262,-0.62586,0.197884,0.733403
1629897213272,-0.626165,0.198494,0.734623
1629897213281,-0.625067,0.198311,0.735233
1629897213291,-0.626287,0.197762,0.73383
1629897213300,-0.625616,0.196054,0.731634
1629897213310,-0.625433,0.195627,0.729926
1629897213320,-0.624884,0.195322,0.728279
1629897213329,-0.625616,0.197457,0.728218
1629897213339,-0.626226,0.199226,0.728096
1629897213348,-0.626775,0.201117,0.727364
1629897213358,-0.627324,0.202154,0.727791
1629897213368,-0.627141,0.203618,0.727059
1629897213377,-0.628483,0.203374,0.727974
1629897213387,-0.628422,0.202032,0.72895
1629897213396,-0.628605,0.200812,0.728889
1629897213406,-0.628605,0.20044599999999999,0.730841
1629897213416,-0.628178,0.199287,0.731085
1629897213425,-0.628056,0.198433,0.7330369999999999
1629897213435,-0.627934,0.19763999999999998,0.733769
1629897213444,-0.627568,0.198128,0.733769
1629897213454,-0.627141,0.197396,0.733769
1629897213464,-0.62586,0.19672499999999998,0.733769
1629897213473,-0.624884,0.197518,0.731756
1629897213483,-0.625677,0.199653,0.7315119999999999
1629897213492,-0.626897,0.20044599999999999,0.7305969999999999
1629897213502,-0.625738,0.20166599999999998,0.727974
1629897213512,-0.626409,0.200202,0.725168
1629897213521,-0.625921,0.20105599999999998,0.725351
1629897213531,-0.626775,0.200324,0.726327
1629897213540,-0.626897,0.2013,0.728218
1629897213550,-0.62708,0.201422,0.7290719999999999
1629897213560,-0.628483,0.202764,0.731268
1629897213569,-0.628605,0.202642,0.7321219999999999
1629897213579,-0.629093,0.202703,0.732
1629897213588,-0.628544,0.201422,0.730963
1629897213598,-0.628178,0.200263,0.73139
1629897213608,-0.627202,0.201117,0.7305969999999999
1629897213617,-0.626287,0.199775,0.7302919999999999
1629897213627,-0.625555,0.199348,0.730475
1629897213636,-0.625982,0.200202,0.72956
1629897213646,-0.625372,0.199714,0.728584
1629897213656,-0.62525,0.20136099999999998,0.728584
1629897213665,-0.625372,0.200995,0.7278519999999999
1629897213675,-0.624945,0.200385,0.7287669999999999
1629897213684,-0.625799,0.199409,0.729316
1629897213694,-0.624762,0.199226,0.730353
1629897213704,-0.625372,0.198494,0.7312069999999999
1629897213713,-0.625616,0.198189,0.732305
1629897213723,-0.625555,0.196542,0.73322
1629897213732,-0.625799,0.19763999999999998,0.733586
1629897213742,-0.626531,0.198189,0.732854
1629897213752,-0.626104,0.198738,0.7321219999999999
1629897213761,-0.626348,0.199287,0.732
1629897213771,-0.625616,0.200019,0.732305
1629897213780,-0.626958,0.200812,0.731024
1629897213790,-0.626226,0.20044599999999999,0.731024
1629897213800,-0.626836,0.200568,0.73078
1629897213809,-0.626592,0.200934,0.731451
1629897213819,-0.626836,0.200202,0.7312069999999999
1629897213828,-0.625067,0.20069,0.730841
1629897213838,-0.624945,0.20044599999999999,0.7315119999999999
1629897213848,-0.624823,0.20069,0.7315119999999999
1629897213857,-0.62586,0.199104,0.73322
1629897213867,-0.625189,0.20008,0.73322
1629897213876,-0.625494,0.198616,0.732549
1629897213886,-0.624518,0.199043,0.732183
1629897213896,-0.625067,0.198189,0.732549
1629897213905,-0.624884,0.198921,0.733281
1629897213915,-0.622932,0.198189,0.732915
1629897213924,-0.623786,0.19947,0.732366
1629897213934,-0.623359,0.199043,0.731573
1629897213944,-0.623847,0.198616,0.731085
1629897213953,-0.623176,0.198616,0.731329
1629897213963,-0.624213,0.198921,0.731878
1629897213972,-0.624518,0.198738,0.7321219999999999
1629897213982,-0.624701,0.199592,0.731329
1629897213992,-0.624335,0.200263,0.7312069999999999
1629897214001,-0.625067,0.200202,0.7315119999999999
1629897214011,-0.626043,0.2013,0.731573
1629897214020,-0.625677,0.199653,0.730353
1629897214030,-0.625616,0.19983599999999999,0.7299869999999999
1629897214040,-0.626287,0.200385,0.729804
1629897214049,-0.62586,0.201239,0.73017
1629897214059,-0.625189,0.203008,0.727303
1629897214068,-0.627141,0.205509,0.728645
1629897214078,-0.62891,0.206973,0.731146
1629897214088,-0.62769,0.203984,0.730536
1629897214097,-0.627019,0.198494,0.727669
1629897214107,-0.62647,0.19763999999999998,0.726571
1629897214116,-0.625738,0.19886,0.729133
1629897214126,-0.625616,0.198799,0.732305
1629897214136,-0.624884,0.199348,0.733464
1629897214145,-0.625128,0.199897,0.734074
1629897214155,-0.625799,0.199958,0.7351719999999999
1629897214164,-0.624335,0.19886,0.7339519999999999
1629897214174,-0.624152,0.19763999999999998,0.7321219999999999
1629897214184,-0.623969,0.19611499999999998,0.729743
1629897214193,-0.623115,0.194712,0.729316
1629897214203,-0.623603,0.195444,0.729255
1629897214212,-0.624335,0.197152,0.730536
1629897214222,-0.625067,0.198677,0.731573
1629897214232,-0.624884,0.199226,0.7324269999999999
1629897214241,-0.625616,0.200019,0.731634
1629897214251,-0.625738,0.199165,0.732244
1629897214260,-0.626653,0.198128,0.731634
1629897214270,-0.626592,0.198494,0.732488
1629897214280,-0.627141,0.198128,0.731451
1629897214289,-0.626043,0.19763999999999998,0.732061
1629897214299,-0.627446,0.198006,0.7336469999999999
1629897214308,-0.627385,0.197396,0.7345619999999999
1629897214318,-0.626592,0.196908,0.734684
1629897214328,-0.625799,0.195566,0.7354769999999999
1629897214337,-0.624701,0.195322,0.733708
1629897214347,-0.625067,0.198616,0.7327319999999999
1629897214356,-0.626165,0.19886,0.733281
1629897214366,-0.626653,0.198738,0.732244
1629897214376,-0.625067,0.19763999999999998,0.7284619999999999
1629897214385,-0.624396,0.197152,0.726449
1629897214395,-0.624518,0.198067,0.726266
1629897214404,-0.625616,0.199226,0.728645
1629897214414,-0.626348,0.201178,0.7309019999999999
1629897214424,-0.627446,0.200629,0.733098
1629897214433,-0.626653,0.201239,0.733403
1629897214443,-0.627202,0.201117,0.733464
1629897214452,-0.626165,0.199897,0.732488
1629897214462,-0.62586,0.19947,0.731146
1629897214472,-0.625311,0.198006,0.728645
1629897214481,-0.626043,0.197823,0.728584
1629897214491,-0.625921,0.198738,0.7287669999999999
1629897214500,-0.625555,0.198738,0.729316
1629897214510,-0.626348,0.19983599999999999,0.7290719999999999
1629897214520,-0.625921,0.199714,0.7290719999999999
1629897214529,-0.626958,0.199165,0.72956
1629897214539,-0.625982,0.198677,0.729255
1629897214548,-0.626714,0.197884,0.729804
1629897214558,-0.62708,0.196786,0.730353
1629897214568,-0.626348,0.196969,0.730963
1629897214577,-0.626653,0.196664,0.730841
1629897214587,-0.626897,0.196908,0.730536
1629897214596,-0.627263,0.196298,0.730414
1629897214606,-0.6283,0.195932,0.7296819999999999
1629897214616,-0.627995,0.19641999999999998,0.729743
1629897214625,-0.628178,0.197091,0.728889
1629897214635,-0.628361,0.197396,0.7290719999999999
1629897214644,-0.629825,0.197457,0.72956
1629897214654,-0.629215,0.19886,0.730353
1629897214664,-0.629703,0.199043,0.729621
1629897214673,-0.629764,0.199714,0.729194
1629897214683,-0.630618,0.200019,0.728706
1629897214692,-0.630618,0.200019,0.7281569999999999
1629897214702,-0.630435,0.200019,0.7272419999999999
1629897214712,-0.630069,0.200507,0.728035
1629897214721,-0.62952,0.199897,0.72773
1629897214731,-0.628605,0.199409,0.727791
1629897214740,-0.629154,0.199409,0.728889
1629897214750,-0.6283,0.197701,0.730475
1629897214760,-0.627263,0.196969,0.7305969999999999
1629897214769,-0.628239,0.196847,0.731695
1629897214779,-0.628483,0.195688,0.731451
1629897214788,-0.627995,0.19519999999999998,0.731878
1629897214798,-0.628178,0.194102,0.731695
1629897214808,-0.626958,0.194834,0.731634
1629897214817,-0.626836,0.19489499999999998,0.731573
1629897214827,-0.627507,0.196359,0.730841
1629897214836,-0.627812,0.195749,0.729499
1629897214846,-0.626836,0.194773,0.727364
1629897214856,-0.626836,0.195932,0.726693
1629897214865,-0.626348,0.196603,0.728279
1629897214875,-0.62647,0.198311,0.728584
1629897214884,-0.62769,0.200263,0.727974
1629897214894,-0.628788,0.201483,0.72956
1629897214904,-0.631167,0.20136099999999998,0.731085
1629897214913,-0.630618,0.19763999999999998,0.73078
1629897214923,-0.628178,0.19337,0.728584
1629897214932,-0.627202,0.191845,0.72834
1629897214942,-0.626592,0.193431,0.731146
1629897214952,-0.626714,0.195383,0.731878
1629897214961,-0.627629,0.196298,0.732793
1629897214971,-0.62708,0.197518,0.732
1629897214980,-0.626775,0.196664,0.7305969999999999
1629897214990,-0.626714,0.195078,0.729255
1629897215000,-0.626836,0.194834,0.728889
1629897215009,-0.626714,0.19367499999999999,0.727486
1629897215019,-0.626348,0.193187,0.72773
1629897215028,-0.625982,0.192089,0.728889
1629897215038,-0.626348,0.192516,0.7293769999999999
1629897215048,-0.626287,0.194834,0.730048
1629897215057,-0.6283,0.195993,0.730475
1629897215067,-0.627995,0.195078,0.7296819999999999
1629897215076,-0.629032,0.195078,0.7305969999999999
1629897215086,-0.629947,0.195627,0.729743
1629897215096,-0.630862,0.196054,0.72956
1629897215105,-0.6317159999999999,0.196054,0.730048
1629897215115,-0.630557,0.195261,0.731573
1629897215124,-0.630313,0.19519999999999998,0.731634
1629897215134,-0.629825,0.193919,0.732915
1629897215144,-0.629764,0.192577,0.733525
1629897215153,-0.627568,0.192333,0.731756
1629897215163,-0.628239,0.19489499999999998,0.729438
1629897215172,-0.629459,0.195749,0.7309019999999999
1629897215182,-0.629642,0.196664,0.731085
1629897215192,-0.629825,0.193858,0.729011
1629897215201,-0.629703,0.193309,0.727303
1629897215211,-0.629703,0.194163,0.726632
1629897215220,-0.63013,0.194346,0.726754
1629897215230,-0.630252,0.19611499999999998,0.727974
1629897215240,-0.630801,0.19672499999999998,0.729804
1629897215249,-0.630313,0.19825,0.7312069999999999
1629897215259,-0.630862,0.19733499999999998,0.731451
1629897215268,-0.631777,0.196603,0.7315119999999999
1629897215278,-0.631167,0.195322,0.7302919999999999
1629897215288,-0.629642,0.19428499999999999,0.728889
1629897215297,-0.629703,0.193919,0.728096
1629897215307,-0.629825,0.19367499999999999,0.72651
1629897215316,-0.63013,0.194346,0.726022
1629897215326,-0.630618,0.194651,0.726449
1629897215336,-0.630191,0.195688,0.726022
1629897215345,-0.629764,0.195322,0.726632
1629897215355,-0.630252,0.19519999999999998,0.726815
1629897215364,-0.63013,0.194163,0.726876
1629897215374,-0.629764,0.193126,0.727303
1629897215384,-0.629032,0.192211,0.72712
1629897215393,-0.629703,0.191296,0.7272419999999999
1629897215403,-0.629581,0.191052,0.727608
1629897215412,-0.630496,0.19117399999999998,0.727913
1629897215422,-0.63013,0.191235,0.7278519999999999
1629897215432,-0.630252,0.191906,0.727486
1629897215441,-0.631289,0.191967,0.728828
1629897215451,-0.630984,0.192943,0.728889
1629897215460,-0.631899,0.193004,0.7290719999999999
1629897215470,-0.6317159999999999,0.192943,0.728279
1629897215480,-0.631899,0.19367499999999999,0.728218
1629897215489,-0.632143,0.193187,0.7278519999999999
1629897215499,-0.630679,0.193492,0.727608
1629897215508,-0.630557,0.19337,0.727791
1629897215518,-0.629398,0.193858,0.7275469999999999
1629897215528,-0.628971,0.192699,0.728035
1629897215537,-0.629154,0.19178399999999998,0.729499
1629897215547,-0.630069,0.190991,0.731573
1629897215556,-0.62891,0.19056399999999998,0.732854
1629897215566,-0.628971,0.189588,0.733708
1629897215576,-0.628544,0.189527,0.733525
1629897215585,-0.627995,0.1891,0.7321219999999999
1629897215595,-0.628727,0.189527,0.732061
1629897215604,-0.630557,0.190625,0.73261
1629897215614,-0.628178,0.189527,0.730231
1629897215624,-0.626958,0.190442,0.7296819999999999
1629897215633,-0.628666,0.191418,0.731085
1629897215643,-0.629215,0.19337,0.731024
1629897215652,-0.62891,0.194102,0.728706
1629897215662,-0.631106,0.19702999999999998,0.729255
1629897215672,-0.6329359999999999,0.198128,0.7302919999999999
1629897215681,-0.631777,0.19519999999999998,0.729438
1629897215691,-0.630862,0.190442,0.72651
1629897215700,-0.629459,0.189771,0.7272419999999999
1629897215710,-0.628483,0.191723,0.7293769999999999
1629897215720,-0.628666,0.193004,0.7312069999999999
1629897215729,-0.629093,0.19489499999999998,0.7318169999999999
1629897215739,-0.629642,0.19489499999999998,0.731146
1629897215748,-0.62891,0.195017,0.729011
1629897215758,-0.628178,0.19428499999999999,0.727913
1629897215768,-0.628666,0.193126,0.726388
1629897215777,-0.6283,0.192638,0.724863
1629897215787,-0.628605,0.192272,0.725107
1629897215796,-0.629154,0.192577,0.7259
1629897215806,-0.628422,0.194102,0.726388
1629897215816,-0.628727,0.195993,0.728035
1629897215825,-0.630313,0.196786,0.72773
1629897215835,-0.631533,0.196786,0.727974
1629897215844,-0.630862,0.196359,0.727486
1629897215854,-0.63257,0.196664,0.7275469999999999
1629897215864,-0.632997,0.197091,0.728828
1629897215873,-0.6329359999999999,0.196786,0.7293769999999999
1629897215883,-0.631533,0.19641999999999998,0.729438
1629897215892,-0.631899,0.196237,0.7290719999999999
1629897215902,-0.63135,0.195688,0.729926
1629897215912,-0.630618,0.194834,0.730109
1629897215921,-0.629886,0.193858,0.729926
1629897215931,-0.628483,0.192577,0.728645
1629897215940,-0.628361,0.194834,0.726754
1629897215950,-0.628422,0.196542,0.7284619999999999
1629897215960,-0.629825,0.197762,0.730048
1629897215969,-0.629886,0.197701,0.726998
1629897215979,-0.629398,0.194468,0.724131
1629897215988,-0.630069,0.195993,0.723399
1629897215998,-0.631289,0.196847,0.72407
1629897216008,-0.631594,0.199287,0.727059
1629897216017,-0.6332409999999999,0.200019,0.728279
1629897216027,-0.633302,0.200385,0.73017
1629897216036,-0.633424,0.19886,0.731024
1629897216046,-0.6329359999999999,0.198494,0.729926
1629897216056,-0.631777,0.196908,0.729011
1629897216065,-0.63196,0.196847,0.726754
1629897216075,-0.631899,0.19580999999999998,0.725229
1629897216084,-0.630679,0.19580999999999998,0.724802
1629897216094,-0.631106,0.196054,0.724314
1629897216104,-0.63074,0.197152,0.724558
1629897216113,-0.6317159999999999,0.197823,0.724802
1629897216123,-0.631472,0.197274,0.725412
1629897216132,-0.630923,0.196298,0.725717
1629897216142,-0.631228,0.196359,0.726266
1629897216152,-0.63074,0.195688,0.726876
1629897216161,-0.630496,0.194346,0.725778
1629897216171,-0.630984,0.193797,0.726754
1629897216180,-0.631411,0.193736,0.725717
1629897216190,-0.631533,0.194529,0.726083
1629897216200,-0.631594,0.19458999999999999,0.726144
1629897216209,-0.632753,0.195688,0.7259
1629897216219,-0.633058,0.197213,0.726876
1629897216228,-0.633058,0.19702999999999998,0.727425
1629897216238,-0.632143,0.19702999999999998,0.727364
1629897216248,-0.632143,0.197091,0.726632
1629897216257,-0.6323259999999999,0.196298,0.724924
1629897216267,-0.631777,0.196786,0.724192
1629897216276,-0.6323259999999999,0.197884,0.725168
1629897216286,-0.631289,0.198128,0.725473
1629897216296,-0.6317159999999999,0.197762,0.725595
1629897216305,-0.631472,0.197579,0.725534
1629897216315,-0.631167,0.196054,0.726083
1629897216324,-0.630862,0.195444,0.726998
1629897216334,-0.63074,0.194651,0.7278519999999999
1629897216344,-0.630191,0.194651,0.729499
1629897216353,-0.631106,0.193736,0.730353
1629897216363,-0.630252,0.193797,0.729804
1629897216372,-0.630923,0.193492,0.729926
1629897216382,-0.631289,0.193858,0.72895
1629897216392,-0.632082,0.194346,0.729316
1629897216401,-0.631106,0.193248,0.728279
1629897216411,-0.63074,0.194041,0.727303
1629897216420,-0.6317159999999999,0.195261,0.727608
1629897216430,-0.631228,0.195993,0.72712
1629897216440,-0.630801,0.198006,0.724558
1629897216449,-0.631167,0.200568,0.72407
1629897216459,-0.633729,0.202459,0.7269369999999999
1629897216468,-0.633302,0.200934,0.72651
1629897216478,-0.63135,0.196359,0.722362
1629897216488,-0.631045,0.19367499999999999,0.720898
1629897216497,-0.63013,0.195383,0.723094
1629897216507,-0.630679,0.19550499999999998,0.7278519999999999
1629897216516,-0.630557,0.196054,0.7302919999999999
1629897216526,-0.631167,0.196603,0.7299869999999999
1629897216536,-0.63013,0.196481,0.731146
1629897216545,-0.63013,0.195566,0.730048
1629897216555,-0.629825,0.195749,0.72773
1629897216564,-0.629154,0.19489499999999998,0.726388
1629897216574,-0.629947,0.195383,0.723826
1629897216584,-0.631411,0.195322,0.723887
1629897216593,-0.631838,0.197457,0.724436
1629897216603,-0.631472,0.198067,0.724375
1629897216612,-0.631289,0.199104,0.724924
1629897216622,-0.6320209999999999,0.19886,0.726022
1629897216632,-0.632448,0.200019,0.7259
1629897216641,-0.632814,0.199226,0.725534
1629897216651,-0.633668,0.19825,0.72651
1629897216660,-0.632204,0.19763999999999998,0.725778
1629897216670,-0.632692,0.197823,0.726632
1629897216680,-0.631777,0.19794499999999998,0.72712
1629897216689,-0.632204,0.198067,0.727974
1629897216699,-0.63196,0.197884,0.72834
1629897216708,-0.631777,0.19702999999999998,0.728645
1629897216718,-0.63135,0.19702999999999998,0.730231
1629897216728,-0.630313,0.195139,0.7296819999999999
1629897216737,-0.628849,0.195993,0.727974
1629897216747,-0.629825,0.198189,0.728401
1629897216756,-0.630862,0.199592,0.727913
1629897216766,-0.630496,0.199348,0.726632
1629897216776,-0.629886,0.197274,0.723277
1629897216785,-0.631106,0.19794499999999998,0.723094
1629897216795,-0.631106,0.199165,0.724436
1629897216804,-0.63135,0.200629,0.725534
1629897216814,-0.631777,0.20014099999999999,0.727486
1629897216824,-0.632814,0.200934,0.728523
1629897216833,-0.632509,0.200995,0.729499
1629897216843,-0.631777,0.200812,0.729438
1629897216852,-0.630313,0.199653,0.728645
1629897216862,-0.631228,0.199165,0.7269369999999999
1629897216872,-0.630923,0.198616,0.725778
1629897216881,-0.630862,0.19886,0.725351
1629897216891,-0.631655,0.199165,0.725107
1629897216900,-0.631472,0.19983599999999999,0.724375
1629897216910,-0.630313,0.199592,0.724314
1629897216920,-0.629703,0.199287,0.724497
1629897216929,-0.630191,0.198921,0.72468
1629897216939,-0.629886,0.198738,0.724741
1629897216948,-0.629703,0.198128,0.725656
1629897216958,-0.629398,0.197701,0.726022
1629897216968,-0.628788,0.19733499999999998,0.726266
1629897216977,-0.629093,0.196969,0.72651
1629897216987,-0.629703,0.197396,0.727059
1629897216996,-0.630618,0.196847,0.727913
1629897217006,-0.63074,0.19672499999999998,0.7278519999999999
1629897217016,-0.631228,0.197457,0.728035
1629897217025,-0.63074,0.196847,0.727669
1629897217035,-0.63135,0.197884,0.727608
1629897217044,-0.631167,0.19763999999999998,0.726449
1629897217054,-0.630496,0.197884,0.7259
1629897217064,-0.630557,0.198189,0.726327
1629897217073,-0.630496,0.19886,0.726144
1629897217083,-0.630984,0.197701,0.726388
1629897217092,-0.630984,0.199226,0.72712
1629897217102,-0.631228,0.19825,0.7269369999999999
1629897217112,-0.630496,0.198921,0.72712
1629897217121,-0.631655,0.198433,0.7272419999999999
1629897217131,-0.631228,0.19794499999999998,0.728096
1629897217140,-0.630984,0.196542,0.728218
1629897217150,-0.629032,0.195993,0.728279
1629897217160,-0.629154,0.195139,0.7278519999999999
1629897217169,-0.629642,0.194529,0.72895
1629897217179,-0.629398,0.194956,0.7302919999999999
1629897217188,-0.629947,0.194163,0.7302919999999999
1629897217198,-0.630252,0.194712,0.730414
1629897217208,-0.629703,0.195261,0.7302919999999999
1629897217217,-0.629825,0.195749,0.72895
1629897217227,-0.630252,0.196847,0.727425
1629897217236,-0.631289,0.197518,0.7272419999999999
1629897217246,-0.631167,0.196969,0.725717
1629897217256,-0.631533,0.19825,0.72651
1629897217265,-0.632143,0.198921,0.727059
1629897217275,-0.6320209999999999,0.199775,0.724985
1629897217284,-0.631777,0.201178,0.721996
1629897217294,-0.632814,0.20288599999999998,0.72407
