timestamp,ax,ay,az
1629897910417,-0.6332409999999999,-0.40516199999999997,-0.654835
1629897910427,-0.632143,-0.407114,-0.6557499999999999
1629897910437,-0.632753,-0.409737,-0.656909
1629897910446,-0.633119,-0.41114,-0.6569699999999999
1629897910456,-0.6317159999999999,-0.411018,-0.654591
1629897910465,-0.630984,-0.409737,-0.652822
1629897910475,-0.63318,-0.410164,-0.65331
1629897910485,-0.6326309999999999,-0.411445,-0.656238
1629897910494,-0.633363,-0.409798,-0.661179
1629897910504,-0.634278,-0.40748,-0.664473
1629897910513,-0.634827,-0.404796,-0.664229
1629897910523,-0.635132,-0.40363699999999997,-0.660264
1629897910533,-0.632875,-0.402783,-0.656482
1629897910542,-0.631106,-0.401929,-0.653554
1629897910552,-0.630435,-0.40241699999999997,-0.651907
1629897910561,-0.630069,-0.401685,-0.653066
1629897910571,-0.631106,-0.401624,-0.654164
1629897910581,-0.631167,-0.40058699999999997,-0.656116
1629897910590,-0.631045,-0.40077,-0.655384
1629897910600,-0.631594,-0.402295,-0.656482
1629897910609,-0.63196,-0.40363699999999997,-0.656604
1629897910619,-0.632082,-0.40504,-0.6563599999999999
1629897910629,-0.632509,-0.406443,-0.655811
1629897910638,-0.632814,-0.407663,-0.655262
1629897910648,-0.633485,-0.405894,-0.6554449999999999
1629897910657,-0.634522,-0.407419,-0.654591
1629897910667,-0.634705,-0.407358,-0.655262
1629897910677,-0.634949,-0.40577199999999997,-0.654164
1629897910686,-0.635498,-0.405101,-0.654591
1629897910696,-0.637389,-0.404674,-0.654286
1629897910705,-0.6375109999999999,-0.404796,-0.65331
1629897910715,-0.637938,-0.403576,-0.653554
1629897192372,-0.741516,-0.119194,-0.6557499999999999
1629897192381,-0.7412719999999999,-0.11834,-0.6554449999999999
1629897192391,-0.740601,-0.118157,-0.654164
1629897192400,-0.741638,-0.116876,-0.653615
1629897192410,-0.7409669999999999,-0.117181,-0.653066
1629897192420,-0.740601,-0.116632,-0.653005
1629897192429,-0.74054,-0.116876,-0.653432
1629897192439,-0.741516,-0.116815,-0.65392
1629897192448,-0.742126,-0.116754,-0.654225
1629897192458,-0.742736,-0.11730299999999999,-0.653554
1629897192468,-0.742065,-0.117364,-0.653676
1629897192477,-0.741699,-0.11712,-0.652944
1629897192487,-0.741638,-0.11651,-0.652761
1629897192496,-0.7427969999999999,-0.11486299999999999,-0.652578
1629897192506,-0.742736,-0.114985,-0.65453
1629897192516,-0.7431019999999999,-0.116022,-0.654591
1629897192525,-0.74359,-0.11712,-0.653859
1629897192535,-0.742675,-0.116266,-0.653493
1629897192544,-0.740418,-0.114924,-0.650504
1629897192554,-0.7418819999999999,-0.114314,-0.648003
1629897192564,-0.743163,-0.115961,-0.649711
1629897192573,-0.743346,-0.117181,-0.653859
1629897192583,-0.743895,-0.117181,-0.660447
1629897192592,-0.745115,-0.117913,-0.6621549999999999
1629897192602,-0.744444,-0.117852,-0.660264
1629897192612,-0.742126,-0.117486,-0.6557499999999999
1629897192621,-0.739991,-0.117364,-0.651297
1629897192631,-0.739686,-0.118889,-0.64965
1629897192640,-0.739564,-0.11834,-0.649406
1629897192650,-0.739381,-0.115656,-0.650199
1629897192660,-0.738588,-0.116022,-0.651968
1629897192669,-0.739076,-0.114009,-0.654896
1629897192679,-0.739808,-0.114253,-0.65514
1629897192688,-0.7391369999999999,-0.11669299999999999,-0.656299
1629897192698,-0.740174,-0.11773,-0.656238
1629897192708,-0.7400519999999999,-0.119865,-0.654774
1629897192717,-0.740906,-0.120414,-0.653432
1629897192727,-0.7403569999999999,-0.120292,-0.653371
1629897192736,-0.740906,-0.120841,-0.654042
1629897192746,-0.741821,-0.119438,-0.654713
1629897192756,-0.741821,-0.11840099999999999,-0.655262
1629897192765,-0.742065,-0.116876,-0.655506
1629897192775,-0.743834,-0.115412,-0.655201
1629897192784,-0.743285,-0.115046,-0.655262
1629897192794,-0.743346,-0.115595,-0.654042
1629897192804,-0.743163,-0.116205,-0.653371
1629897192813,-0.741028,-0.11608299999999999,-0.653127
1629897192823,-0.741455,-0.115351,-0.649894
1629897192832,-0.74298,-0.114436,-0.65026
1629897192842,-0.742004,-0.116205,-0.651724
1629897192852,-0.742736,-0.114985,-0.654713
1629897192861,-0.743224,-0.114192,-0.657946
1629897192871,-0.744139,-0.114802,-0.658068
1629897192880,-0.743712,-0.114985,-0.655506
1629897192890,-0.7434069999999999,-0.11669299999999999,-0.653554
1629897192900,-0.743224,-0.116876,-0.651114
1629897192909,-0.743163,-0.11651,-0.650809
1629897192919,-0.743163,-0.116266,-0.651602
1629897192928,-0.744078,-0.115046,-0.651907
1629897192938,-0.743346,-0.114558,-0.652456
1629897192948,-0.74359,-0.113826,-0.654042
1629897192957,-0.74359,-0.114436,-0.6554449999999999
1629897192967,-0.742553,-0.117974,-0.654225
1629897192976,-0.7434069999999999,-0.119377,-0.655811
1629897192986,-0.744505,-0.118889,-0.657336
1629897192996,-0.743163,-0.119072,-0.657153
1629897193005,-0.745542,-0.120353,-0.655689
1629897193015,-0.745969,-0.123891,-0.6569699999999999
1629897193024,-0.743773,-0.133956,-0.654957
1629897193034,-0.748409,-0.148413,-0.657519
1629897193044,-0.751642,-0.149938,-0.671122
1629897193053,-0.751825,-0.143594,-0.672037
1629897193063,-0.752252,-0.132919,-0.665754
1629897193072,-0.753594,-0.117242,-0.667889
1629897193082,-0.750788,-0.113826,-0.668316
1629897193092,-0.748775,-0.115534,-0.663192
1629897193101,-0.746518,-0.119194,-0.662704
1629897193111,-0.751215,-0.111508,-0.6661199999999999
1629897193120,-0.745603,-0.112484,-0.662521
1629897193130,-0.74542,-0.10431,-0.659776
1629897193140,-0.744749,-0.099674,-0.659349
1629897193149,-0.742736,-0.094184,-0.659044
1629897193159,-0.740784,-0.086986,-0.655384
1629897193168,-0.7394419999999999,-0.077348,-0.652273
1629897193178,-0.73871,-0.069174,-0.648308
1629897193188,-0.734318,-0.065209,-0.644892
1629897193197,-0.7330369999999999,-0.057096,-0.643062
1629897193207,-0.731573,-0.045994,-0.6423909999999999
1629897193216,-0.732793,-0.030195,-0.64294
1629897193226,-0.734928,-0.014823,-0.640805
1629897193236,-0.736514,0.0015249999999999999,-0.638792
1629897193245,-0.738466,0.01525,-0.635742
1629897193255,-0.739015,0.029768,-0.633607
1629897193264,-0.739686,0.042273,-0.631777
1629897193274,-0.741638,0.052277,-0.630496
1629897193284,-0.743346,0.06222,-0.629825
1629897193293,-0.745115,0.071675,-0.631045
1629897193303,-0.745542,0.07972699999999999,-0.633058
1629897193312,-0.74603,0.08588799999999999,-0.631289
1629897193322,-0.74603,0.095221,-0.63013
1629897193332,-0.745786,0.105591,-0.627812
1629897193341,-0.746945,0.114192,-0.626348
1629897193351,-0.752069,0.121878,-0.630252
1629897193360,-0.755485,0.128588,-0.635803
1629897193370,-0.757803,0.133285,-0.6442209999999999
1629897193380,-0.7585959999999999,0.135359,-0.646844
1629897193389,-0.757925,0.13602999999999998,-0.64477
1629897193399,-0.7561559999999999,0.140117,-0.6436109999999999
1629897193408,-0.7555459999999999,0.146095,-0.640439
1629897193418,-0.7552409999999999,0.151402,-0.640134
1629897193428,-0.755058,0.159271,-0.64172
1629897193437,-0.753594,0.167201,-0.645502
1629897193447,-0.75213,0.177144,-0.646356
1629897193456,-0.750056,0.18422,-0.64599
1629897193466,-0.74847,0.187575,-0.6454409999999999
1629897193476,-0.747738,0.187636,-0.643672
1629897193485,-0.746701,0.185745,-0.6436109999999999
1629897193495,-0.7442,0.18501299999999998,-0.645929
1629897193504,-0.744749,0.18531799999999998,-0.645502
1629897193514,-0.744749,0.184891,-0.647027
1629897193524,-0.7431019999999999,0.184525,-0.650382
1629897193533,-0.742309,0.182634,-0.651541
1629897193543,-0.740479,0.180621,-0.65087
1629897193552,-0.738771,0.178486,-0.64904
1629897193562,-0.737734,0.176351,-0.648308
1629897193572,-0.737795,0.17385,-0.647881
1629897193581,-0.7366969999999999,0.169519,-0.649528
1629897193591,-0.73505,0.166957,-0.653188
1629897193600,-0.733708,0.16500499999999999,-0.653249
1629897193610,-0.734379,0.164029,-0.65331
1629897193620,-0.734928,0.160552,-0.654713
1629897193629,-0.735233,0.155977,-0.6554449999999999
1629897193639,-0.734928,0.150243,-0.657214
1629897193648,-0.7336469999999999,0.145607,-0.657336
1629897193658,-0.7324269999999999,0.142862,-0.657519
1629897193668,-0.73078,0.137982,-0.657641
1629897193677,-0.72712,0.132553,-0.657214
1629897193687,-0.724802,0.12925899999999999,-0.65514
1629897193696,-0.722179,0.125965,-0.654591
1629897193706,-0.719312,0.121573,-0.655506
1629897193716,-0.71736,0.11809599999999999,-0.656299
1629897193725,-0.718641,0.112057,-0.659044
1629897193735,-0.7178479999999999,0.106445,-0.662338
1629897193744,-0.717116,0.10126,-0.663863
1629897193754,-0.718336,0.09589199999999999,-0.666852
1629897193764,-0.719312,0.091927,-0.669902
1629897193773,-0.719617,0.08649799999999999,-0.670878
1629897193783,-0.717787,0.08052,-0.671915
1629897193792,-0.716567,0.075518,-0.670756
1629897193802,-0.71675,0.071431,-0.672464
1629897193812,-0.716872,0.06588,-0.673501
1629897193821,-0.719922,0.06039,-0.676002
1629897193831,-0.722972,0.054412,-0.68198
1629897193840,-0.725351,0.050813,-0.68686
1629897193850,-0.725229,0.046848,-0.691435
1629897193860,-0.724375,0.041968,-0.692106
1629897193869,-0.724802,0.034892,-0.692533
1629897193879,-0.725473,0.023485,-0.69357
1629897193888,-0.72285,0.008601,-0.691313
1629897193898,-0.722728,-0.0032329999999999998,-0.68991
1629897193908,-0.721691,-0.011956,-0.687531
1629897193917,-0.721081,-0.019032,-0.687653
1629897193927,-0.720654,-0.025863999999999998,-0.686433
1629897193936,-0.719861,-0.030439,-0.6832
1629897193946,-0.718946,-0.031842,-0.679052
1629897193956,-0.7120529999999999,-0.033794,-0.671854
1629897193965,-0.714859,-0.036966,-0.667706
1629897193975,-0.716201,-0.041174999999999996,-0.669353
1629897193984,-0.71797,-0.046726,-0.670756
1629897193994,-0.719556,-0.054778,-0.670878
1629897194004,-0.720288,-0.06039,-0.671366
1629897194013,-0.720776,-0.069296,-0.671915
1629897194023,-0.721813,-0.078812,-0.673928
1629897194032,-0.722911,-0.08851099999999999,-0.676368
1629897194042,-0.728096,-0.09558699999999999,-0.679357
1629897194052,-0.7321219999999999,-0.10083299999999999,-0.683566
1629897194061,-0.73444,-0.103578,-0.6861889999999999
1629897194071,-0.73688,-0.107421,-0.685457
1629897194080,-0.7370019999999999,-0.11053199999999999,-0.686372
1629897194090,-0.735538,-0.11406999999999999,-0.685396
1629897194100,-0.735111,-0.116022,-0.6834439999999999
1629897194109,-0.732,-0.11834,-0.6816139999999999
1629897194119,-0.733098,-0.122732,-0.68137
1629897194128,-0.734989,-0.12834399999999999,-0.683078
1629897194138,-0.732,-0.133346,-0.681797
1629897194148,-0.731451,-0.137067,-0.677588
1629897194157,-0.733769,-0.13969,-0.677283
1629897194167,-0.731329,-0.142923,-0.67588
1629897194176,-0.726571,-0.143655,-0.672037
1629897194186,-0.722179,-0.14213,-0.668438
1629897194196,-0.719312,-0.140605,-0.6667299999999999
1629897194205,-0.7172379999999999,-0.141459,-0.665449
1629897194215,-0.715896,-0.141703,-0.662826
1629897194224,-0.715286,-0.141032,-0.661362
1629897194234,-0.7137,-0.14005599999999999,-0.658556
1629897194244,-0.712175,-0.13847,-0.654347
1629897194253,-0.712541,-0.137982,-0.651785
1629897194263,-0.713944,-0.137555,-0.651541
1629897194272,-0.714371,-0.138043,-0.652517
1629897194282,-0.7175429999999999,-0.139263,-0.654652
1629897194292,-0.71919,-0.140239,-0.656848
1629897194301,-0.72224,-0.14219099999999998,-0.659593
1629897194311,-0.724375,-0.145119,-0.661362
1629897194320,-0.724863,-0.146705,-0.662216
1629897194330,-0.7259,-0.148718,-0.6624599999999999
1629897194340,-0.726022,-0.150975,-0.663436
1629897194349,-0.726388,-0.152744,-0.662277
1629897194359,-0.72773,-0.15420799999999998,-0.6630699999999999
1629897194368,-0.728828,-0.154574,-0.663558
1629897194378,-0.7296819999999999,-0.15311,-0.663802
1629897194388,-0.7321219999999999,-0.149877,-0.662948
1629897194397,-0.734623,-0.14579,-0.6645949999999999
1629897194407,-0.735904,-0.144204,-0.662887
1629897194416,-0.738283,-0.142618,-0.661423
1629897194426,-0.7379169999999999,-0.138836,-0.658922
1629897194436,-0.737978,-0.13511499999999999,-0.656482
1629897194445,-0.7394419999999999,-0.132004,-0.6575799999999999
1629897194455,-0.744322,-0.12895399999999999,-0.661301
1629897194464,-0.749263,-0.126941,-0.665388
1629897194474,-0.74908,-0.125477,-0.6691699999999999
1629897194484,-0.749873,-0.125416,-0.667462
1629897194493,-0.748409,-0.124745,-0.664473
1629897194503,-0.745969,-0.124074,-0.662033
1629897194512,-0.743041,-0.123281,-0.658129
1629897194522,-0.739991,-0.121817,-0.654774
1629897194532,-0.7381,-0.119438,-0.651419
1629897194541,-0.737673,-0.116754,-0.650199
1629897194551,-0.739198,-0.115656,-0.651114
1629897194560,-0.739259,-0.115534,-0.651846
1629897194570,-0.738344,-0.114802,-0.650382
1629897194580,-0.737551,-0.112789,-0.649284
1629897194589,-0.736941,-0.110898,-0.648979
1629897194599,-0.73566,-0.10992199999999999,-0.647698
1629897194608,-0.734745,-0.10931199999999999,-0.648857
1629897194618,-0.7348669999999999,-0.11041,-0.647881
1629897194628,-0.735904,-0.111386,-0.648796
1629897194637,-0.73688,-0.112179,-0.650016
1629897194647,-0.736453,-0.111447,-0.65209
1629897194656,-0.737856,-0.110044,-0.653493
1629897194666,-0.7388319999999999,-0.10919,-0.653737
1629897194676,-0.739259,-0.108153,-0.65514
1629897194685,-0.740296,-0.108092,-0.6563599999999999
1629897194695,-0.740418,-0.108641,-0.656116
1629897194704,-0.740906,-0.108458,-0.657031
1629897194714,-0.742553,-0.108397,-0.656909
1629897194724,-0.7442,-0.107787,-0.656848
1629897194733,-0.7434069999999999,-0.109556,-0.6569699999999999
1629897194743,-0.743712,-0.109983,-0.658922
1629897194752,-0.744139,-0.110166,-0.6594099999999999
1629897194762,-0.743956,-0.11102,-0.6603249999999999
1629897194772,-0.743529,-0.109983,-0.660508
1629897194781,-0.7442,-0.11114199999999999,-0.659959
1629897194791,-0.744505,-0.111752,-0.658556
1629897194800,-0.744688,-0.112911,-0.6587999999999999
1629897194810,-0.743834,-0.113399,-0.658617
1629897194820,-0.744139,-0.11376499999999999,-0.659532
1629897194829,-0.74298,-0.11516799999999999,-0.660508
1629897194839,-0.743163,-0.115534,-0.659898
1629897194848,-0.743285,-0.115534,-0.659471
1629897194858,-0.741943,-0.115412,-0.6584949999999999
1629897194868,-0.741516,-0.11608299999999999,-0.657031
1629897194877,-0.740906,-0.114314,-0.657336
1629897194887,-0.7412719999999999,-0.11254499999999999,-0.656848
1629897194896,-0.741089,-0.108946,-0.659532
1629897194906,-0.7388319999999999,-0.106506,-0.661057
1629897194916,-0.73871,-0.104493,-0.660569
1629897194925,-0.737856,-0.10248,-0.659837
1629897194935,-0.7363919999999999,-0.099979,-0.657702
1629897194944,-0.737978,-0.096746,-0.654957
1629897194954,-0.740906,-0.096258,-0.657214
1629897194964,-0.741455,-0.096685,-0.661606
1629897194973,-0.741455,-0.096197,-0.666974
1629897194983,-0.739808,-0.096563,-0.670878
1629897194992,-0.7382219999999999,-0.094916,-0.670329
1629897195002,-0.737246,-0.094611,-0.666486
1629897195012,-0.735111,-0.092293,-0.662521
1629897195021,-0.73322,-0.09333,-0.661789
1629897195031,-0.733525,-0.093208,-0.661972
1629897195040,-0.7327319999999999,-0.091866,-0.661789
1629897195050,-0.732305,-0.090524,-0.661362
1629897195060,-0.732305,-0.088694,-0.662094
1629897195069,-0.7327319999999999,-0.087962,-0.663924
1629897195079,-0.733098,-0.08845,-0.665449
1629897195088,-0.7336469999999999,-0.088877,-0.667279
1629897195098,-0.733159,-0.08784,-0.666181
1629897195108,-0.73322,-0.088267,-0.6648999999999999
1629897195117,-0.734501,-0.088694,-0.665083
1629897195127,-0.733708,-0.087413,-0.663436
1629897195136,-0.735843,-0.085766,-0.6636799999999999
1629897195146,-0.736148,-0.084058,-0.663863
1629897195156,-0.73749,-0.083326,-0.6636799999999999
1629897195165,-0.738466,-0.082716,-0.665388
1629897195175,-0.739625,-0.081679,-0.664778
1629897195184,-0.74176,-0.082106,-0.664473
1629897195194,-0.741028,-0.082472,-0.664839
1629897195204,-0.740174,-0.081496,-0.665693
1629897195213,-0.7418819999999999,-0.080764,-0.6612399999999999
1629897195223,-0.741516,-0.08052,-0.659044
1629897195232,-0.741516,-0.082411,-0.659593
1629897195242,-0.741028,-0.08204499999999999,-0.662094
1629897195252,-0.74054,-0.083021,-0.663863
1629897195261,-0.74176,-0.081557,-0.662582
1629897195271,-0.742614,-0.082838,-0.661423
1629897195280,-0.741638,-0.084302,-0.660752
1629897195290,-0.741394,-0.085522,-0.658922
1629897195300,-0.741699,-0.087352,-0.658129
1629897195309,-0.7418819999999999,-0.088084,-0.655994
1629897195319,-0.741028,-0.088084,-0.657153
1629897195328,-0.740418,-0.088572,-0.6587999999999999
1629897195338,-0.740418,-0.08851099999999999,-0.659776
1629897195348,-0.740784,-0.090158,-0.661118
1629897195357,-0.740296,-0.090036,-0.661789
1629897195367,-0.739015,-0.08973099999999999,-0.661362
1629897195376,-0.738771,-0.088694,-0.661179
1629897195386,-0.738893,-0.08723,-0.6609349999999999
1629897195396,-0.738588,-0.086071,-0.660081
1629897195405,-0.737978,-0.084851,-0.659776
1629897195415,-0.7376119999999999,-0.083997,-0.6587999999999999
1629897195424,-0.737978,-0.083448,-0.658678
1629897195434,-0.738344,-0.082777,-0.660508
1629897195444,-0.738039,-0.082167,-0.662094
1629897195453,-0.7388319999999999,-0.082289,-0.661484
1629897195463,-0.7391369999999999,-0.081923,-0.660569
1629897195472,-0.737856,-0.082167,-0.660752
1629897195482,-0.738588,-0.082838,-0.660569
1629897195492,-0.738344,-0.083997,-0.660386
1629897195501,-0.739869,-0.08558299999999999,-0.659044
1629897195511,-0.739625,-0.087291,-0.658678
1629897195520,-0.739076,-0.088084,-0.658739
1629897195530,-0.739686,-0.088023,-0.659654
1629897195540,-0.738893,-0.08820599999999999,-0.6603249999999999
1629897195549,-0.739015,-0.08790099999999999,-0.662277
1629897195559,-0.739381,-0.090524,-0.662216
1629897195568,-0.740296,-0.090097,-0.661057
1629897195578,-0.738649,-0.091317,-0.660264
1629897195588,-0.740174,-0.090463,-0.660447
1629897195597,-0.740113,-0.089304,-0.6600199999999999
1629897195607,-0.7403569999999999,-0.08845,-0.660996
1629897195616,-0.740906,-0.085949,-0.659532
1629897195626,-0.742919,-0.08497299999999999,-0.659837
1629897195636,-0.742065,-0.084119,-0.661789
1629897195645,-0.741821,-0.084668,-0.660203
1629897195655,-0.7418819999999999,-0.083997,-0.658922
1629897195664,-0.740723,-0.08497299999999999,-0.658312
1629897195674,-0.740174,-0.085827,-0.656543
1629897195684,-0.742126,-0.08418,-0.655018
1629897195693,-0.743529,-0.084119,-0.658861
1629897195703,-0.744566,-0.08601,-0.663802
1629897195712,-0.743285,-0.08723,-0.668072
1629897195722,-0.742004,-0.08912099999999999,-0.667889
1629897195732,-0.741028,-0.089548,-0.664412
1629897195741,-0.739869,-0.091012,-0.659532
1629897195751,-0.736819,-0.091927,-0.6572749999999999
1629897195760,-0.735233,-0.092415,-0.655811
1629897195770,-0.73566,-0.09235399999999999,-0.654652
1629897195780,-0.735294,-0.092293,-0.656116
1629897195789,-0.735111,-0.09113399999999999,-0.658556
1629897195799,-0.736331,-0.09113399999999999,-0.659532
1629897195808,-0.7363919999999999,-0.09174399999999999,-0.661118
1629897195818,-0.736209,-0.091927,-0.663131
1629897195828,-0.736148,-0.093086,-0.662399
1629897195837,-0.736941,-0.093452,-0.661972
1629897195847,-0.7376119999999999,-0.093391,-0.660569
1629897195856,-0.738954,-0.093147,-0.661423
1629897195866,-0.739381,-0.092171,-0.662643
1629897195876,-0.73993,-0.092232,-0.662582
1629897195885,-0.739808,-0.090646,-0.662887
1629897195895,-0.74054,-0.089792,-0.663253
1629897195904,-0.740235,-0.089487,-0.663009
1629897195914,-0.739564,-0.090036,-0.6615449999999999
1629897195924,-0.738771,-0.089609,-0.6624599999999999
1629897195933,-0.738405,-0.090524,-0.662033
1629897195943,-0.737856,-0.090036,-0.661667
1629897195952,-0.73505,-0.089792,-0.658373
1629897195962,-0.737429,-0.08973099999999999,-0.655201
1629897195972,-0.738161,-0.092415,-0.656238
1629897195981,-0.738954,-0.092232,-0.659837
1629897195991,-0.739808,-0.092598,-0.6642899999999999
1629897196000,-0.740784,-0.09211,-0.664839
1629897196010,-0.740296,-0.091927,-0.664168
1629897196020,-0.740784,-0.09333,-0.661484
1629897196029,-0.74054,-0.093818,-0.659532
1629897196039,-0.740479,-0.094184,-0.6581899999999999
1629897196048,-0.740906,-0.094245,-0.657092
1629897196058,-0.740296,-0.09174399999999999,-0.657824
1629897196068,-0.740906,-0.09028,-0.6581899999999999
1629897196077,-0.740906,-0.089243,-0.658861
1629897196087,-0.7406619999999999,-0.088694,-0.6606299999999999
1629897196096,-0.7412719999999999,-0.087718,-0.6609349999999999
1629897196106,-0.741455,-0.087657,-0.660813
1629897196116,-0.741211,-0.08649799999999999,-0.6597149999999999
1629897196125,-0.741455,-0.086864,-0.659166
1629897196135,-0.741455,-0.087779,-0.659044
1629897196144,-0.7418819999999999,-0.08790099999999999,-0.658129
1629897196154,-0.742431,-0.08845,-0.6575799999999999
1629897196164,-0.741211,-0.08784,-0.657824
1629897196173,-0.740906,-0.088023,-0.6584949999999999
1629897196183,-0.740296,-0.087718,-0.658861
1629897196192,-0.741638,-0.086315,-0.659044
1629897196202,-0.739869,-0.086559,-0.6587999999999999
1629897196212,-0.740479,-0.085827,-0.6572749999999999
1629897196221,-0.74054,-0.087596,-0.656848
1629897196231,-0.740235,-0.087718,-0.655811
1629897196240,-0.740845,-0.08845,-0.656177
1629897196250,-0.74115,-0.089853,-0.656482
1629897196260,-0.740296,-0.090463,-0.657458
1629897196269,-0.7403569999999999,-0.090402,-0.658129
1629897196279,-0.740784,-0.091256,-0.658251
1629897196288,-0.7412719999999999,-0.091927,-0.6581899999999999
1629897196298,-0.741028,-0.092964,-0.658007
1629897196308,-0.742431,-0.094428,-0.658129
1629897196317,-0.7421869999999999,-0.095526,-0.656726
1629897196327,-0.7424919999999999,-0.09577,-0.6572749999999999
1629897196336,-0.742248,-0.096014,-0.657702
1629897196346,-0.742126,-0.094916,-0.656116
1629897196356,-0.742614,-0.09333,-0.656238
1629897196365,-0.743956,-0.0915,-0.655811
1629897196375,-0.743956,-0.090768,-0.6581899999999999
1629897196384,-0.743224,-0.091805,-0.6566649999999999
1629897196394,-0.7442,-0.09113399999999999,-0.656116
1629897196404,-0.743224,-0.09089,-0.656299
1629897196413,-0.743285,-0.088877,-0.655384
1629897196423,-0.745542,-0.08820599999999999,-0.653066
1629897196432,-0.746884,-0.089304,-0.654225
1629897196442,-0.747921,-0.090036,-0.659654
1629897196452,-0.746884,-0.090036,-0.663619
1629897196461,-0.747189,-0.089243,-0.664168
1629897196471,-0.745969,-0.090341,-0.660447
1629897196480,-0.7442,-0.09174399999999999,-0.6557499999999999
1629897196490,-0.743834,-0.092171,-0.653676
1629897196500,-0.7427969999999999,-0.092903,-0.653127
1629897196509,-0.7409669999999999,-0.092293,-0.653005
1629897196519,-0.7412719999999999,-0.090463,-0.652578
1629897196528,-0.741089,-0.089975,-0.653737
1629897196538,-0.7400519999999999,-0.089365,-0.655689
1629897196548,-0.741028,-0.089548,-0.656543
1629897196557,-0.740784,-0.090829,-0.656787
1629897196567,-0.739991,-0.091866,-0.655628
1629897196576,-0.741211,-0.092232,-0.6554449999999999
1629897196586,-0.740174,-0.093208,-0.6560549999999999
1629897196596,-0.739991,-0.093452,-0.656116
1629897196605,-0.7397469999999999,-0.09436699999999999,-0.657092
1629897196615,-0.741455,-0.095831,-0.657336
1629897196624,-0.740845,-0.09467199999999999,-0.657946
1629897196634,-0.7412719999999999,-0.09467199999999999,-0.658739
1629897196644,-0.7418819999999999,-0.094123,-0.658922
1629897196653,-0.74176,-0.093574,-0.657458
1629897196663,-0.7434069999999999,-0.09272,-0.657214
1629897196672,-0.742553,-0.093452,-0.657458
1629897196682,-0.742004,-0.09235399999999999,-0.6572749999999999
1629897196692,-0.743529,-0.092537,-0.6575799999999999
1629897196701,-0.7418819999999999,-0.091866,-0.656726
1629897196711,-0.7431019999999999,-0.090097,-0.652761
1629897196720,-0.7442,-0.088755,-0.65453
1629897196730,-0.743224,-0.089304,-0.656177
1629897196740,-0.743895,-0.088572,-0.660447
1629897196749,-0.745359,-0.08784,-0.6603249999999999
1629897196759,-0.744505,-0.08881599999999999,-0.658678
1629897196768,-0.74481,-0.090036,-0.657397
1629897196778,-0.745359,-0.090585,-0.655262
1629897196788,-0.744993,-0.091805,-0.655506
1629897196797,-0.744261,-0.09113399999999999,-0.65514
1629897196807,-0.744505,-0.091317,-0.653798
1629897196816,-0.744078,-0.090402,-0.653981
1629897196826,-0.743224,-0.089548,-0.654774
1629897196836,-0.743895,-0.088389,-0.654042
1629897196845,-0.7434069999999999,-0.087718,-0.654957
1629897196855,-0.744688,-0.086986,-0.655994
1629897196864,-0.745054,-0.08649799999999999,-0.654225
1629897196874,-0.744749,-0.08601,-0.65453
1629897196884,-0.744505,-0.08601,-0.655689
1629897196893,-0.744993,-0.085766,-0.653859
1629897196903,-0.744566,-0.087047,-0.653676
1629897196912,-0.743834,-0.087352,-0.654591
1629897196922,-0.745359,-0.087474,-0.65453
1629897196932,-0.744078,-0.088389,-0.654774
1629897196941,-0.744993,-0.088755,-0.654896
1629897196951,-0.745115,-0.08820599999999999,-0.654957
1629897196960,-0.744017,-0.08820599999999999,-0.654774
1629897196970,-0.743468,-0.086925,-0.653493
1629897196980,-0.743468,-0.087779,-0.654042
1629897196989,-0.743346,-0.088938,-0.6527
1629897196999,-0.7431019999999999,-0.090463,-0.654347
1629897197008,-0.743468,-0.090768,-0.654835
1629897197018,-0.743163,-0.092293,-0.655933
1629897197028,-0.743346,-0.09272,-0.656543
1629897197037,-0.743346,-0.094245,-0.656848
1629897197047,-0.74359,-0.095099,-0.6569699999999999
1629897197056,-0.743529,-0.094245,-0.6560549999999999
1629897197066,-0.744017,-0.093574,-0.655933
1629897197076,-0.743834,-0.09394,-0.655689
1629897197085,-0.7434069999999999,-0.093879,-0.655628
1629897197095,-0.744749,-0.093696,-0.654896
1629897197104,-0.744627,-0.093086,-0.654835
1629897197114,-0.744261,-0.09265899999999999,-0.656299
1629897197124,-0.745176,-0.09204899999999999,-0.656299
1629897197133,-0.744871,-0.091927,-0.65514
1629897197143,-0.744688,-0.090829,-0.654591
1629897197152,-0.74603,-0.08973099999999999,-0.65453
1629897197162,-0.744688,-0.08967,-0.654347
1629897197172,-0.744932,-0.091256,-0.653554
1629897197181,-0.745725,-0.092415,-0.654347
1629897197191,-0.744139,-0.09235399999999999,-0.653859
1629897197200,-0.743712,-0.091073,-0.652334
1629897197210,-0.74542,-0.091256,-0.650565
1629897197220,-0.746213,-0.092476,-0.652334
1629897197229,-0.746945,-0.092964,-0.656116
1629897197239,-0.746945,-0.091866,-0.660447
1629897197248,-0.74725,-0.091073,-0.660508
1629897197258,-0.746396,-0.091012,-0.657397
1629897197268,-0.745115,-0.090341,-0.653554
1629897197277,-0.744566,-0.090158,-0.651175
1629897197287,-0.743529,-0.089487,-0.649162
1629897197296,-0.74359,-0.088023,-0.649528
1629897197306,-0.743834,-0.087169,-0.651236
1629897197316,-0.744017,-0.086376,-0.652761
1629897197325,-0.742736,-0.08558299999999999,-0.652944
1629897197335,-0.744078,-0.086132,-0.654713
1629897197344,-0.744139,-0.088145,-0.653493
1629897197354,-0.7442,-0.089365,-0.651724
1629897197364,-0.744566,-0.090036,-0.650565
1629897197373,-0.745054,-0.091622,-0.651114
1629897197383,-0.74481,-0.092537,-0.652517
1629897197392,-0.745298,-0.092476,-0.652822
1629897197402,-0.74664,-0.092476,-0.654408
1629897197412,-0.745847,-0.091195,-0.655201
1629897197421,-0.747006,-0.09113399999999999,-0.655384
1629897197431,-0.747738,-0.089365,-0.654896
1629897197440,-0.747799,-0.088938,-0.653859
1629897197450,-0.747433,-0.088267,-0.653493
1629897197460,-0.74725,-0.087352,-0.65331
1629897197469,-0.747677,-0.087657,-0.652517
1629897197479,-0.747494,-0.087474,-0.653188
1629897197488,-0.745359,-0.087352,-0.653066
1629897197498,-0.746518,-0.085217,-0.65087
1629897197508,-0.747616,-0.083021,-0.650687
1629897197517,-0.747311,-0.083814,-0.650626
1629897197527,-0.747372,-0.085156,-0.651785
1629897197536,-0.74725,-0.084851,-0.652822
1629897197546,-0.748043,-0.085522,-0.654164
1629897197556,-0.748653,-0.085461,-0.653981
1629897197565,-0.748836,-0.085522,-0.653798
1629897197575,-0.74847,-0.087291,-0.652578
1629897197584,-0.74847,-0.086864,-0.651358
1629897197594,-0.747128,-0.086681,-0.650809
1629897197604,-0.747677,-0.08479,-0.649772
1629897197613,-0.747494,-0.083814,-0.649467
1629897197623,-0.747616,-0.083753,-0.649528
1629897197632,-0.746884,-0.082777,-0.649833
1629897197642,-0.748104,-0.082716,-0.650504
1629897197652,-0.747799,-0.08326499999999999,-0.650748
1629897197661,-0.748409,-0.083082,-0.650138
1629897197671,-0.748958,-0.083021,-0.650626
1629897197680,-0.750178,-0.083204,-0.649833
1629897197690,-0.748897,-0.083509,-0.649467
1629897197700,-0.749507,-0.08527799999999999,-0.649406
1629897197709,-0.748775,-0.084851,-0.649406
1629897197719,-0.748958,-0.08479,-0.648918
1629897197728,-0.748775,-0.085217,-0.648552
1629897197738,-0.749751,-0.08601,-0.649345
1629897197748,-0.749873,-0.086071,-0.649894
1629897197757,-0.74908,-0.08649799999999999,-0.650016
1629897197767,-0.749385,-0.08784,-0.649772
1629897197776,-0.749446,-0.089975,-0.650443
1629897197786,-0.749019,-0.091256,-0.650382
1629897197796,-0.750117,-0.09143899999999999,-0.650321
1629897197805,-0.749324,-0.091988,-0.649772
1629897197815,-0.748165,-0.092293,-0.649528
1629897197824,-0.748348,-0.093696,-0.650016
1629897197834,-0.749202,-0.09467199999999999,-0.650016
1629897197844,-0.74908,-0.09467199999999999,-0.650443
1629897197853,-0.749202,-0.094428,-0.650382
1629897197863,-0.749629,-0.09406199999999999,-0.650626
1629897197872,-0.750056,-0.093025,-0.650443
1629897197882,-0.74908,-0.092903,-0.649772
1629897197892,-0.748226,-0.092598,-0.649406
1629897197901,-0.74908,-0.09174399999999999,-0.650138
1629897197911,-0.748836,-0.0915,-0.65026
1629897197920,-0.747982,-0.091378,-0.650016
1629897197930,-0.750117,-0.091805,-0.650504
1629897197940,-0.749324,-0.092293,-0.650138
1629897197949,-0.749446,-0.092232,-0.649711
1629897197959,-0.748531,-0.091195,-0.64965
1629897197968,-0.749507,-0.090585,-0.648369
1629897197978,-0.750483,-0.08881599999999999,-0.649162
1629897197988,-0.748958,-0.088267,-0.649162
1629897197997,-0.747738,-0.09028,-0.64843
1629897198007,-0.749324,-0.091378,-0.647637
1629897198016,-0.748043,-0.092232,-0.648796
1629897198026,-0.746823,-0.091012,-0.648003
1629897198036,-0.747494,-0.089487,-0.646295
1629897198045,-0.749812,-0.08942599999999999,-0.646966
1629897198055,-0.750422,-0.090036,-0.648918
1629897198064,-0.750422,-0.091927,-0.654103
1629897198074,-0.751093,-0.089914,-0.6569699999999999
1629897198084,-0.750483,-0.088938,-0.655628
1629897198093,-0.750178,-0.088633,-0.653127
1629897198103,-0.749019,-0.08790099999999999,-0.649711
1629897198112,-0.747433,-0.088633,-0.646539
1629897198122,-0.746396,-0.08851099999999999,-0.645685
1629897198132,-0.746213,-0.086925,-0.646295
1629897198141,-0.74725,-0.08649799999999999,-0.647515
1629897198151,-0.746274,-0.0854,-0.650382
1629897198160,-0.746945,-0.086254,-0.652456
1629897198170,-0.746396,-0.087413,-0.652273
1629897198180,-0.746884,-0.089548,-0.65209
1629897198189,-0.745542,-0.090463,-0.651419
1629897198199,-0.746274,-0.0915,-0.649467
1629897198208,-0.745969,-0.092293,-0.650138
1629897198218,-0.746396,-0.093208,-0.651846
1629897198228,-0.746457,-0.093147,-0.652517
1629897198237,-0.746945,-0.091988,-0.653676
1629897198247,-0.747006,-0.091561,-0.653432
1629897198256,-0.747677,-0.090646,-0.653554
1629897198266,-0.747799,-0.08973099999999999,-0.652883
1629897198276,-0.747677,-0.088328,-0.6527
1629897198285,-0.747555,-0.088145,-0.652334
1629897198295,-0.747738,-0.08784,-0.651114
1629897198304,-0.747494,-0.089304,-0.651358
1629897198314,-0.745908,-0.088938,-0.65209
1629897198324,-0.74664,-0.087535,-0.649955
1629897198333,-0.74786,-0.08662,-0.650504
1629897198343,-0.747311,-0.08784,-0.650382
1629897198352,-0.748226,-0.08851099999999999,-0.651175
1629897198362,-0.74786,-0.088755,-0.651358
1629897198372,-0.748043,-0.089975,-0.652639
1629897198381,-0.747921,-0.09089,-0.652822
1629897198391,-0.748287,-0.091317,-0.652334
1629897198400,-0.74847,-0.090768,-0.650321
1629897198410,-0.747982,-0.090402,-0.64965
1629897198420,-0.747677,-0.089548,-0.64965
1629897198429,-0.747555,-0.087596,-0.648308
1629897198439,-0.747372,-0.087535,-0.648796
1629897198448,-0.746579,-0.087474,-0.648796
1629897198458,-0.747128,-0.087962,-0.649589
1629897198468,-0.747494,-0.087718,-0.649589
1629897198477,-0.74725,-0.088084,-0.649162
1629897198487,-0.748287,-0.089792,-0.650382
1629897198496,-0.748043,-0.08967,-0.65026
1629897198506,-0.748104,-0.08912099999999999,-0.650138
1629897198516,-0.748897,-0.089548,-0.648796
1629897198525,-0.748043,-0.090158,-0.649345
1629897198535,-0.747494,-0.08967,-0.649833
1629897198544,-0.746884,-0.088877,-0.649284
1629897198554,-0.747555,-0.08912099999999999,-0.650321
1629897198564,-0.747189,-0.088389,-0.649772
1629897198573,-0.748287,-0.088572,-0.649894
1629897198583,-0.748348,-0.08906,-0.649955
1629897198592,-0.747982,-0.088877,-0.64965
1629897198602,-0.748714,-0.089182,-0.65026
1629897198612,-0.747555,-0.090524,-0.648186
1629897198621,-0.747372,-0.090768,-0.647942
1629897198631,-0.747433,-0.09235399999999999,-0.648308
1629897198640,-0.748348,-0.094184,-0.649467
1629897198650,-0.749446,-0.094733,-0.65087
1629897198660,-0.750361,-0.095343,-0.650809
1629897198669,-0.751642,-0.096136,-0.65087
1629897198679,-0.750788,-0.09516,-0.651419
1629897198688,-0.751703,-0.094184,-0.65087
1629897198698,-0.751093,-0.094184,-0.649467
1629897198708,-0.7503,-0.093269,-0.64843
1629897198717,-0.751154,-0.091378,-0.648613
1629897198727,-0.751032,-0.090768,-0.647149
1629897198736,-0.750422,-0.08912099999999999,-0.647271
1629897198746,-0.750849,-0.08942599999999999,-0.647027
1629897198756,-0.75091,-0.08912099999999999,-0.64782
1629897198765,-0.75091,-0.088633,-0.647149
1629897198775,-0.75152,-0.089365,-0.648552
1629897198784,-0.751398,-0.089243,-0.648064
1629897198794,-0.752008,-0.08912099999999999,-0.64782
1629897198804,-0.7512759999999999,-0.088572,-0.648125
1629897198813,-0.751764,-0.087291,-0.646417
1629897198823,-0.752618,-0.08588799999999999,-0.646051
1629897198832,-0.751947,-0.086742,-0.646966
1629897198842,-0.751093,-0.088145,-0.646844
1629897198852,-0.751764,-0.089182,-0.646478
1629897198861,-0.750483,-0.090097,-0.647454
1629897198871,-0.74969,-0.088572,-0.646295
1629897198880,-0.750422,-0.088633,-0.64416
1629897198890,-0.751154,-0.089548,-0.643184
1629897198900,-0.751764,-0.091195,-0.646356
1629897198909,-0.751703,-0.09211,-0.651053
1629897198919,-0.752374,-0.091927,-0.655689
1629897198928,-0.751825,-0.092537,-0.655628
1629897198938,-0.751093,-0.092293,-0.65148
1629897198948,-0.749873,-0.092964,-0.64843
1629897198957,-0.747738,-0.093696,-0.64538
1629897198967,-0.74786,-0.09467199999999999,-0.644343
1629897198976,-0.746701,-0.093818,-0.643977
1629897198986,-0.746823,-0.092171,-0.645319
1629897198996,-0.746823,-0.091073,-0.648735
1629897199005,-0.748165,-0.091012,-0.649467
1629897199015,-0.748165,-0.093086,-0.650626
1629897199024,-0.748165,-0.094306,-0.649101
1629897199034,-0.74786,-0.096624,-0.648552
1629897199044,-0.747311,-0.097051,-0.648369
1629897199053,-0.748165,-0.099125,-0.648735
1629897199063,-0.748287,-0.100162,-0.649406
1629897199072,-0.74847,-0.099125,-0.650138
1629897199082,-0.749568,-0.098027,-0.650321
1629897199092,-0.750178,-0.096563,-0.650504
1629897199101,-0.750544,-0.09516,-0.651114
1629897199111,-0.75152,-0.09455,-0.650077
1629897199120,-0.750788,-0.094306,-0.648674
1629897199130,-0.751154,-0.09436699999999999,-0.648064
1629897199140,-0.751337,-0.094611,-0.647454
1629897199149,-0.750361,-0.093879,-0.648491
1629897199159,-0.748958,-0.093818,-0.64599
1629897199168,-0.751703,-0.09143899999999999,-0.643977
1629897199178,-0.75091,-0.092293,-0.645197
1629897199188,-0.750788,-0.092293,-0.646661
1629897199197,-0.750788,-0.091378,-0.649589
1629897199207,-0.750849,-0.09113399999999999,-0.649162
1629897199216,-0.75152,-0.09265899999999999,-0.647576
1629897199226,-0.752069,-0.093635,-0.645563
1629897199236,-0.752679,-0.094855,-0.644892
1629897199245,-0.751459,-0.094611,-0.644404
1629897199255,-0.752008,-0.094184,-0.645258
1629897199264,-0.752252,-0.093208,-0.644709
1629897199274,-0.750788,-0.09204899999999999,-0.6454409999999999
1629897199284,-0.75213,-0.090951,-0.646661
1629897199293,-0.7518859999999999,-0.090158,-0.64782
1629897199303,-0.751215,-0.090402,-0.646905
1629897199312,-0.750849,-0.08967,-0.646051
1629897199322,-0.752252,-0.090402,-0.646295
1629897199332,-0.751398,-0.091866,-0.6451359999999999
1629897199341,-0.751398,-0.09204899999999999,-0.645014
1629897199351,-0.7518859999999999,-0.09211,-0.645624
1629897199360,-0.75213,-0.091988,-0.645807
1629897199370,-0.7518859999999999,-0.091683,-0.645685
1629897199380,-0.7531059999999999,-0.091012,-0.647332
1629897199389,-0.753594,-0.090402,-0.647332
1629897199399,-0.7528009999999999,-0.089609,-0.648247
1629897199408,-0.7528009999999999,-0.089548,-0.647332
1629897199418,-0.7524959999999999,-0.088755,-0.647881
1629897199428,-0.7524959999999999,-0.08967,-0.646844
1629897199437,-0.75213,-0.089304,-0.645258
1629897199447,-0.752008,-0.090341,-0.6448309999999999
1629897199456,-0.752313,-0.091561,-0.645075
1629897199466,-0.752435,-0.09272,-0.6448309999999999
1629897199476,-0.752557,-0.093086,-0.646051
1629897199485,-0.7518859999999999,-0.094489,-0.646295
1629897199495,-0.751398,-0.09455,-0.647515
1629897199504,-0.75152,-0.094123,-0.647576
1629897199514,-0.751398,-0.094855,-0.645014
1629897199524,-0.749934,-0.094306,-0.644099
1629897199533,-0.7506659999999999,-0.094733,-0.643428
1629897199543,-0.751154,-0.094306,-0.643794
1629897199552,-0.750849,-0.094794,-0.644465
1629897199562,-0.7521909999999999,-0.09589199999999999,-0.6454409999999999
1629897199572,-0.7521909999999999,-0.096197,-0.645868
1629897199581,-0.7521909999999999,-0.09589199999999999,-0.646722
1629897199591,-0.752252,-0.095038,-0.646661
1629897199600,-0.75152,-0.093818,-0.646295
1629897199610,-0.752618,-0.092598,-0.64599
1629897199620,-0.75274,-0.091622,-0.6451359999999999
1629897199629,-0.7534109999999999,-0.091073,-0.647393
1629897199639,-0.752008,-0.09143899999999999,-0.64843
1629897199648,-0.752435,-0.092781,-0.6448309999999999
1629897199658,-0.751642,-0.093086,-0.6448309999999999
1629897199668,-0.751154,-0.094428,-0.643794
1629897199677,-0.751337,-0.093269,-0.642452
1629897199687,-0.7521909999999999,-0.094245,-0.640988
1629897199696,-0.754448,-0.093818,-0.6448309999999999
1629897199706,-0.7552409999999999,-0.09528199999999999,-0.651114
1629897199716,-0.754448,-0.09589199999999999,-0.656116
1629897199725,-0.754387,-0.097539,-0.656421
1629897199735,-0.753289,-0.098637,-0.651968
1629897199744,-0.7509709999999999,-0.099064,-0.647332
1629897199754,-0.749873,-0.098332,-0.64416
1629897199764,-0.748531,-0.099186,-0.6423909999999999
1629897199773,-0.747555,-0.099308,-0.64233
1629897199783,-0.747372,-0.09790499999999999,-0.6423909999999999
1629897199792,-0.746396,-0.096502,-0.644953
1629897199802,-0.747555,-0.096441,-0.647149
1629897199812,-0.746457,-0.098393,-0.648125
1629897199821,-0.746396,-0.099064,-0.648552
1629897199831,-0.747616,-0.099247,-0.648796
1629897199840,-0.747128,-0.100162,-0.648308
1629897199850,-0.747067,-0.099613,-0.647393
1629897199860,-0.747616,-0.100284,-0.64721
1629897199869,-0.747494,-0.100711,-0.648125
1629897199879,-0.748348,-0.09991799999999999,-0.648796
1629897199888,-0.750117,-0.099552,-0.649894
1629897199898,-0.750361,-0.09759999999999999,-0.649894
1629897199908,-0.750483,-0.09729499999999999,-0.650016
1629897199917,-0.750788,-0.097417,-0.650199
1629897199927,-0.75091,-0.097417,-0.649406
1629897199936,-0.749568,-0.099308,-0.649955
1629897199946,-0.747128,-0.098149,-0.649406
1629897199956,-0.747616,-0.09698999999999999,-0.6439159999999999
1629897199965,-0.749202,-0.09467199999999999,-0.645014
1629897199975,-0.749812,-0.09698999999999999,-0.646112
1629897199984,-0.749873,-0.096136,-0.649528
1629897199994,-0.750483,-0.09455,-0.65209
1629897200004,-0.750849,-0.094428,-0.651358
1629897200013,-0.751032,-0.094306,-0.650016
1629897200023,-0.749934,-0.095526,-0.648979
1629897200032,-0.749812,-0.096075,-0.646417
1629897200042,-0.749934,-0.095953,-0.645075
1629897200052,-0.75091,-0.095709,-0.645319
1629897200061,-0.7503,-0.093513,-0.6466
1629897200071,-0.751154,-0.093208,-0.648186
1629897200080,-0.750727,-0.092476,-0.64843
1629897200090,-0.751703,-0.091866,-0.649284
1629897200100,-0.7512759999999999,-0.091622,-0.64904
1629897200109,-0.751947,-0.09113399999999999,-0.649345
1629897200119,-0.751093,-0.090768,-0.647698
1629897200128,-0.7506659999999999,-0.09089,-0.6466
1629897200138,-0.7509709999999999,-0.091866,-0.646234
1629897200148,-0.750361,-0.09143899999999999,-0.646417
1629897200157,-0.749995,-0.091683,-0.646661
1629897200167,-0.750117,-0.091378,-0.646783
1629897200176,-0.750117,-0.091012,-0.647759
1629897200186,-0.7506659999999999,-0.090829,-0.648125
1629897200196,-0.74969,-0.090707,-0.647515
1629897200205,-0.750727,-0.090463,-0.647393
1629897200215,-0.749995,-0.090646,-0.646417
1629897200224,-0.74969,-0.09028,-0.645929
1629897200234,-0.750178,-0.093208,-0.645319
1629897200244,-0.749812,-0.093635,-0.646478
1629897200253,-0.749995,-0.09436699999999999,-0.646722
1629897200263,-0.749873,-0.095526,-0.647576
1629897200272,-0.749873,-0.096014,-0.64721
1629897200282,-0.7503,-0.09790499999999999,-0.647576
1629897200292,-0.751032,-0.097722,-0.647271
1629897200301,-0.75091,-0.098088,-0.646539
1629897200311,-0.751154,-0.099003,-0.646661
1629897200320,-0.751032,-0.099979,-0.646539
1629897200330,-0.75213,-0.099552,-0.646966
1629897200340,-0.75152,-0.100589,-0.648186
1629897200349,-0.751154,-0.100772,-0.647759
1629897200359,-0.751154,-0.099491,-0.647759
1629897200368,-0.752008,-0.098088,-0.647576
1629897200378,-0.751825,-0.096075,-0.646173
1629897200388,-0.75335,-0.09436699999999999,-0.64477
1629897200397,-0.752984,-0.093757,-0.646966
1629897200407,-0.751825,-0.094184,-0.646905
1629897200416,-0.752069,-0.094245,-0.645014
1629897200426,-0.752252,-0.095709,-0.6448309999999999
1629897200436,-0.749873,-0.094733,-0.644343
1629897200445,-0.750422,-0.094184,-0.641354
1629897200455,-0.753167,-0.094245,-0.641293
1629897200464,-0.75457,-0.096563,-0.645929
1629897200474,-0.754509,-0.096868,-0.652151
1629897200484,-0.754204,-0.097112,-0.655567
1629897200493,-0.75335,-0.09729499999999999,-0.653493
1629897200503,-0.7521909999999999,-0.098454,-0.64904
1629897200512,-0.750849,-0.098271,-0.644282
1629897200522,-0.748653,-0.098637,-0.642574
1629897200532,-0.748165,-0.098393,-0.640134
1629897200541,-0.747982,-0.096807,-0.641537
1629897200551,-0.747189,-0.095648,-0.642757
1629897200560,-0.746884,-0.09406199999999999,-0.643733
1629897200570,-0.748226,-0.09394,-0.645258
1629897200580,-0.748409,-0.09436699999999999,-0.647271
1629897200589,-0.74786,-0.095465,-0.646722
1629897200599,-0.748531,-0.09729499999999999,-0.646234
1629897200608,-0.749568,-0.097661,-0.645624
1629897200618,-0.749751,-0.098454,-0.645014
1629897200628,-0.750422,-0.099308,-0.646539
1629897200637,-0.75091,-0.09943,-0.6466
1629897200647,-0.7512759999999999,-0.097783,-0.648918
1629897200656,-0.752618,-0.097478,-0.648491
1629897200666,-0.752313,-0.096197,-0.647942
1629897200676,-0.752069,-0.09467199999999999,-0.647454
1629897200685,-0.752984,-0.094184,-0.647271
1629897200695,-0.7512759999999999,-0.094001,-0.647515
1629897200704,-0.752557,-0.094123,-0.646417
1629897200714,-0.752008,-0.094306,-0.64782
1629897200724,-0.750727,-0.093818,-0.645075
1629897200733,-0.751947,-0.093269,-0.641842
1629897200743,-0.752435,-0.09394,-0.6426959999999999
1629897200752,-0.7537159999999999,-0.095099,-0.6451359999999999
1629897200762,-0.753289,-0.093391,-0.649406
1629897200772,-0.753472,-0.091622,-0.651541
1629897200781,-0.754387,-0.091988,-0.650016
1629897200791,-0.7537159999999999,-0.091683,-0.647332
1629897200800,-0.75396,-0.092842,-0.64416
1629897200810,-0.7543259999999999,-0.093208,-0.642818
1629897200820,-0.75396,-0.093452,-0.642208
1629897200829,-0.753533,-0.093208,-0.64294
1629897200839,-0.752313,-0.092415,-0.644038
1629897200848,-0.752984,-0.092232,-0.64477
1629897200858,-0.752679,-0.091622,-0.644404
1629897200868,-0.7524959999999999,-0.09113399999999999,-0.645807
1629897200877,-0.752679,-0.09089,-0.644648
1629897200887,-0.753045,-0.090829,-0.644587
1629897200896,-0.753777,-0.0915,-0.643794
1629897200906,-0.753838,-0.09113399999999999,-0.643977
1629897200916,-0.75335,-0.091256,-0.643672
1629897200925,-0.752984,-0.0915,-0.643428
1629897200935,-0.7540209999999999,-0.09089,-0.643062
1629897200944,-0.7537159999999999,-0.090829,-0.644099
1629897200954,-0.752984,-0.089914,-0.6439159999999999
1629897200964,-0.753167,-0.08967,-0.6442209999999999
1629897200973,-0.754265,-0.08967,-0.645502
1629897200983,-0.754448,-0.09028,-0.6445259999999999
1629897200992,-0.75335,-0.08973099999999999,-0.643489
1629897201002,-0.7534109999999999,-0.090402,-0.642452
1629897201012,-0.7531059999999999,-0.092232,-0.642513
1629897201021,-0.7537159999999999,-0.092598,-0.643489
1629897201031,-0.752862,-0.09394,-0.643428
1629897201040,-0.75213,-0.09497699999999999,-0.643733
1629897201050,-0.75213,-0.096197,-0.6433059999999999
1629897201060,-0.752923,-0.097356,-0.643672
1629897201069,-0.752313,-0.098637,-0.644343
1629897201079,-0.753167,-0.097722,-0.6448309999999999
1629897201088,-0.7534109999999999,-0.09790499999999999,-0.644404
1629897201098,-0.752984,-0.097844,-0.644099
1629897201108,-0.752984,-0.097966,-0.643855
1629897201117,-0.753289,-0.097966,-0.6442209999999999
1629897201127,-0.75335,-0.098027,-0.645014
1629897201136,-0.752679,-0.096929,-0.64538
1629897201146,-0.752435,-0.097051,-0.64477
1629897201156,-0.7540209999999999,-0.096868,-0.64538
1629897201165,-0.753838,-0.097173,-0.643733
1629897201175,-0.75396,-0.09589199999999999,-0.6439159999999999
1629897201184,-0.7534109999999999,-0.094489,-0.644343
1629897201194,-0.752923,-0.09394,-0.64355
1629897201204,-0.754143,-0.092842,-0.6430009999999999
1629897201213,-0.753899,-0.092598,-0.6439159999999999
1629897201223,-0.754143,-0.09406199999999999,-0.644892
1629897201232,-0.754692,-0.095343,-0.642208
1629897201242,-0.75335,-0.096014,-0.642879
1629897201252,-0.752862,-0.095221,-0.64172
1629897201261,-0.75396,-0.09436699999999999,-0.639585
1629897201271,-0.754692,-0.095343,-0.639524
1629897201280,-0.754997,-0.096624,-0.643245
1629897201290,-0.755729,-0.096685,-0.649528
1629897201300,-0.7561559999999999,-0.095038,-0.651541
1629897201309,-0.756339,-0.093696,-0.64965
1629897201319,-0.754997,-0.095038,-0.6451359999999999
1629897201328,-0.753838,-0.094916,-0.6420859999999999
1629897201338,-0.752374,-0.096502,-0.640073
1629897201348,-0.752374,-0.096502,-0.639707
1629897201357,-0.75152,-0.09516,-0.640134
1629897201367,-0.751703,-0.093574,-0.641903
1629897201376,-0.751947,-0.093147,-0.642208
1629897201386,-0.751154,-0.093452,-0.6442209999999999
1629897201396,-0.751459,-0.09394,-0.644709
1629897201405,-0.751215,-0.095343,-0.64477
1629897201415,-0.75213,-0.097173,-0.64294
1629897201424,-0.752374,-0.098027,-0.641842
1629897201434,-0.7524959999999999,-0.099125,-0.642574
1629897201444,-0.751825,-0.100162,-0.643062
1629897201453,-0.75213,-0.100101,-0.645502
1629897201463,-0.752069,-0.099308,-0.64599
1629897201472,-0.752923,-0.098698,-0.647759
1629897201482,-0.7537159999999999,-0.097722,-0.646478
1629897201492,-0.752862,-0.096868,-0.645624
1629897201501,-0.753899,-0.095831,-0.644465
1629897201511,-0.753533,-0.09497699999999999,-0.643245
1629897201520,-0.752984,-0.09467199999999999,-0.644343
1629897201530,-0.7531059999999999,-0.095099,-0.644099
1629897201540,-0.751947,-0.09558699999999999,-0.645014
1629897201549,-0.752313,-0.092476,-0.6430009999999999
1629897201559,-0.75274,-0.090402,-0.642208
1629897201568,-0.752679,-0.09028,-0.643733
1629897201578,-0.753228,-0.090402,-0.645258
1629897201588,-0.754814,-0.091317,-0.645685
1629897201597,-0.75518,-0.091927,-0.644587
1629897201607,-0.755058,-0.091622,-0.644282
1629897201616,-0.754509,-0.092293,-0.644709
1629897201626,-0.755058,-0.092964,-0.644038
1629897201636,-0.754692,-0.092232,-0.641537
1629897201645,-0.754448,-0.091988,-0.6411709999999999
1629897201655,-0.754265,-0.091927,-0.641049
1629897201664,-0.754448,-0.091012,-0.6417809999999999
1629897201674,-0.754204,-0.090463,-0.641049
1629897201684,-0.755302,-0.089487,-0.641598
1629897201693,-0.75518,-0.089304,-0.642452
1629897201703,-0.754997,-0.089182,-0.642757
1629897201712,-0.754875,-0.089853,-0.642574
1629897201722,-0.755729,-0.089792,-0.6423909999999999
1629897201732,-0.755912,-0.08942599999999999,-0.641293
1629897201741,-0.756888,-0.09028,-0.641598
1629897201751,-0.757864,-0.090158,-0.641293
1629897201760,-0.756644,-0.089304,-0.640805
1629897201770,-0.756217,-0.090585,-0.64111
1629897201780,-0.757132,-0.090646,-0.641598
1629897201789,-0.75701,-0.089853,-0.6408659999999999
1629897201799,-0.758047,-0.09089,-0.6423909999999999
1629897201808,-0.756827,-0.090036,-0.641964
1629897201818,-0.756888,-0.090768,-0.6417809999999999
1629897201828,-0.757498,-0.091073,-0.6417809999999999
1629897201837,-0.756522,-0.091683,-0.641354
1629897201847,-0.756522,-0.091256,-0.6405
1629897201856,-0.7558509999999999,-0.092415,-0.6408659999999999
1629897201866,-0.756095,-0.093574,-0.6408659999999999
1629897201876,-0.755729,-0.095038,-0.6399509999999999
1629897201885,-0.756522,-0.09516,-0.6405
1629897201895,-0.7561559999999999,-0.095465,-0.6405
1629897201904,-0.756034,-0.095465,-0.6402559999999999
1629897201914,-0.756278,-0.09577,-0.64111
1629897201924,-0.756339,-0.095465,-0.640988
1629897201933,-0.757254,-0.094306,-0.641232
1629897201943,-0.757254,-0.093574,-0.641354
1629897201952,-0.756339,-0.093452,-0.640195
1629897201962,-0.757315,-0.092476,-0.639768
1629897201972,-0.756522,-0.091622,-0.639707
1629897201981,-0.756888,-0.09211,-0.640683
1629897201991,-0.756705,-0.092598,-0.641354
1629897202000,-0.756217,-0.093208,-0.6411709999999999
1629897202010,-0.756827,-0.093574,-0.6402559999999999
1629897202020,-0.756522,-0.093269,-0.6399509999999999
1629897202029,-0.75701,-0.09406199999999999,-0.63989
1629897202039,-0.756705,-0.092842,-0.639829
1629897202048,-0.756339,-0.09211,-0.637755
1629897202058,-0.7573759999999999,-0.09143899999999999,-0.6384259999999999
1629897202068,-0.7564609999999999,-0.092842,-0.638975
1629897202077,-0.75701,-0.094733,-0.63806
1629897202087,-0.756705,-0.095343,-0.638243
1629897202096,-0.755607,-0.094916,-0.638792
1629897202106,-0.756034,-0.093818,-0.637145
1629897202116,-0.757559,-0.093757,-0.63562
1629897202125,-0.759328,-0.094245,-0.6393409999999999
1629897202135,-0.759999,-0.095343,-0.643184
1629897202144,-0.760243,-0.094489,-0.647393
1629897202154,-0.76006,-0.09272,-0.646478
1629897202164,-0.7598159999999999,-0.092598,-0.644282
1629897202173,-0.758474,-0.092171,-0.639829
1629897202183,-0.758047,-0.092598,-0.636718
1629897202192,-0.756095,-0.09204899999999999,-0.636718
1629897202202,-0.755119,-0.090585,-0.635864
1629897202212,-0.755424,-0.09028,-0.636962
1629897202221,-0.754448,-0.090463,-0.638609
1629897202231,-0.754753,-0.091683,-0.640805
1629897202240,-0.754753,-0.09235399999999999,-0.641537
1629897202250,-0.754692,-0.093696,-0.641354
1629897202260,-0.755302,-0.095526,-0.640805
1629897202269,-0.754143,-0.096746,-0.640073
1629897202279,-0.754753,-0.097417,-0.6387309999999999
1629897202288,-0.7546309999999999,-0.09759999999999999,-0.6393409999999999
1629897202298,-0.7561559999999999,-0.097234,-0.641049
1629897202308,-0.7561559999999999,-0.097356,-0.641415
1629897202317,-0.755912,-0.09589199999999999,-0.642147
1629897202327,-0.756949,-0.095099,-0.642452
1629897202336,-0.7564,-0.094611,-0.642269
1629897202346,-0.756827,-0.092903,-0.6408659999999999
1629897202356,-0.756095,-0.091195,-0.640073
1629897202365,-0.756278,-0.091683,-0.63989
1629897202375,-0.756339,-0.091866,-0.639829
1629897202384,-0.7564,-0.091317,-0.640683
1629897202394,-0.755485,-0.090585,-0.638182
1629897202404,-0.757742,-0.089487,-0.638548
1629897202413,-0.75701,-0.089365,-0.638914
1629897202423,-0.757559,-0.090402,-0.6402559999999999
1629897202432,-0.757559,-0.09113399999999999,-0.6414759999999999
1629897202442,-0.757559,-0.091988,-0.6405609999999999
1629897202452,-0.7585959999999999,-0.09235399999999999,-0.641537
1629897202461,-0.75945,-0.094184,-0.640988
1629897202471,-0.759694,-0.093757,-0.639585
1629897202480,-0.758962,-0.093269,-0.639402
1629897202490,-0.7582909999999999,-0.093086,-0.638609
1629897202500,-0.758169,-0.091927,-0.638304
1629897202509,-0.7585959999999999,-0.091195,-0.6375109999999999
1629897202519,-0.7579859999999999,-0.09089,-0.638609
1629897202528,-0.758352,-0.090646,-0.637877
1629897202538,-0.758047,-0.09089,-0.6390359999999999
1629897202548,-0.7579859999999999,-0.092293,-0.639158
1629897202557,-0.7573759999999999,-0.09272,-0.6387309999999999
1629897202567,-0.757559,-0.092476,-0.638914
1629897202576,-0.757864,-0.092476,-0.638609
1629897202586,-0.7576809999999999,-0.092964,-0.638792
1629897202596,-0.758352,-0.092598,-0.637389
1629897202605,-0.7585959999999999,-0.092537,-0.637267
1629897202615,-0.758352,-0.091988,-0.637023
1629897202624,-0.757864,-0.0915,-0.6378159999999999
1629897202634,-0.7573759999999999,-0.091866,-0.638914
1629897202644,-0.757925,-0.091317,-0.638792
1629897202653,-0.75762,-0.090097,-0.639097
1629897202663,-0.7573759999999999,-0.090768,-0.6390359999999999
1629897202672,-0.758718,-0.09211,-0.639219
1629897202682,-0.757254,-0.09211,-0.638487
1629897202692,-0.75762,-0.09436699999999999,-0.638853
1629897202701,-0.757559,-0.094733,-0.637999
1629897202711,-0.758169,-0.095099,-0.637389
1629897202720,-0.758108,-0.09558699999999999,-0.637755
1629897202730,-0.7573759999999999,-0.09577,-0.6378159999999999
1629897202740,-0.758352,-0.095465,-0.637572
1629897202749,-0.7576809999999999,-0.09516,-0.637328
1629897202759,-0.758047,-0.095526,-0.637023
1629897202768,-0.75823,-0.094245,-0.637084
1629897202778,-0.75884,-0.09333,-0.6372059999999999
1629897202788,-0.758474,-0.09272,-0.636962
1629897202797,-0.759877,-0.092842,-0.637572
1629897202807,-0.760365,-0.091866,-0.637633
1629897202816,-0.760182,-0.091012,-0.636962
1629897202826,-0.760365,-0.09174399999999999,-0.636657
1629897202836,-0.7598159999999999,-0.091012,-0.636047
1629897202845,-0.760975,-0.0915,-0.6362909999999999
1629897202855,-0.761524,-0.093025,-0.6372059999999999
1629897202864,-0.761402,-0.092415,-0.637328
1629897202874,-0.761158,-0.093147,-0.637694
1629897202884,-0.761219,-0.093696,-0.637023
1629897202893,-0.761402,-0.093696,-0.637633
1629897202903,-0.759999,-0.093452,-0.636779
1629897202912,-0.761219,-0.092476,-0.635559
1629897202922,-0.7601209999999999,-0.090463,-0.6353759999999999
1629897202932,-0.761524,-0.088633,-0.635925
1629897202941,-0.760243,-0.090219,-0.635193
1629897202951,-0.76006,-0.09204899999999999,-0.63501
1629897202960,-0.760365,-0.09272,-0.635559
1629897202970,-0.758962,-0.09211,-0.635193
1629897202980,-0.758962,-0.091561,-0.632204
1629897202989,-0.760304,-0.091256,-0.6317159999999999
1629897202999,-0.7616459999999999,-0.093269,-0.633973
1629897203008,-0.762439,-0.09394,-0.637938
1629897203018,-0.762927,-0.093757,-0.642635
1629897203028,-0.762988,-0.092415,-0.643367
1629897203037,-0.762744,-0.09204899999999999,-0.64111
1629897203047,-0.761219,-0.091195,-0.636474
1629897203056,-0.760182,-0.091866,-0.6329359999999999
1629897203066,-0.759938,-0.091683,-0.631228
1629897203076,-0.7589009999999999,-0.091683,-0.631167
1629897203085,-0.757742,-0.090646,-0.632509
1629897203095,-0.758535,-0.090829,-0.6344609999999999
1629897203104,-0.75823,-0.090158,-0.6362909999999999
1629897203114,-0.758474,-0.091256,-0.637145
1629897203124,-0.7592059999999999,-0.093391,-0.6375109999999999
1629897203133,-0.75823,-0.09577,-0.6359859999999999
1629897203143,-0.758474,-0.09589199999999999,-0.634034
1629897203152,-0.757864,-0.096624,-0.6344
1629897203162,-0.758779,-0.097844,-0.6356809999999999
1629897203172,-0.759877,-0.097722,-0.635803
1629897203181,-0.760365,-0.097112,-0.6365959999999999
1629897203191,-0.760853,-0.095709,-0.63806
1629897203200,-0.760975,-0.094855,-0.638365
1629897203210,-0.7610359999999999,-0.092842,-0.6375109999999999
1629897203220,-0.760914,-0.091988,-0.63562
1629897203229,-0.761158,-0.09272,-0.635925
1629897203239,-0.760548,-0.092842,-0.635315
1629897203248,-0.761524,-0.093147,-0.6356809999999999
1629897203258,-0.759267,-0.092171,-0.63562
1629897203268,-0.761219,-0.09174399999999999,-0.632265
1629897203277,-0.761463,-0.091256,-0.632387
1629897203287,-0.761463,-0.092476,-0.6341559999999999
1629897203296,-0.76128,-0.09235399999999999,-0.636718
1629897203306,-0.761768,-0.09272,-0.638304
1629897203316,-0.7616459999999999,-0.09265899999999999,-0.6381209999999999
1629897203325,-0.762012,-0.093818,-0.636352
1629897203335,-0.762317,-0.094611,-0.636413
1629897203344,-0.762988,-0.094611,-0.63501
1629897203354,-0.762073,-0.092964,-0.633729
1629897203364,-0.762317,-0.091622,-0.6323259999999999
1629897203373,-0.762439,-0.090951,-0.6326309999999999
1629897203383,-0.7616459999999999,-0.089548,-0.633912
1629897203392,-0.761829,-0.090036,-0.634522
1629897203402,-0.761768,-0.090463,-0.633668
1629897203412,-0.761158,-0.091256,-0.634949
1629897203421,-0.7610359999999999,-0.091866,-0.635498
1629897203431,-0.7616459999999999,-0.09265899999999999,-0.635193
1629897203440,-0.761707,-0.093086,-0.6344609999999999
1629897203450,-0.762012,-0.093025,-0.634217
1629897203460,-0.762439,-0.092415,-0.633668
1629897203469,-0.76128,-0.09235399999999999,-0.63379
1629897203479,-0.761097,-0.09235399999999999,-0.633607
1629897203488,-0.7610359999999999,-0.091805,-0.633668
1629897203498,-0.760792,-0.090524,-0.6332409999999999
1629897203508,-0.76128,-0.09089,-0.6344
1629897203517,-0.761219,-0.090158,-0.633729
1629897203527,-0.7610359999999999,-0.090036,-0.632997
1629897203536,-0.7625,-0.089548,-0.63379
1629897203546,-0.76128,-0.089548,-0.633607
1629897203556,-0.761768,-0.091073,-0.633973
1629897203565,-0.76128,-0.091683,-0.6338509999999999
1629897203575,-0.761402,-0.092781,-0.63379
1629897203584,-0.761097,-0.094794,-0.633912
1629897203594,-0.762073,-0.094611,-0.633302
1629897203604,-0.759938,-0.095465,-0.634217
1629897203613,-0.7604259999999999,-0.095648,-0.633485
1629897203623,-0.760609,-0.096197,-0.633302
1629897203632,-0.762012,-0.09589199999999999,-0.6329359999999999
1629897203642,-0.7625,-0.09497699999999999,-0.633058
1629897203652,-0.762378,-0.09467199999999999,-0.632997
1629897203661,-0.762378,-0.093574,-0.6323259999999999
1629897203671,-0.7625609999999999,-0.093147,-0.634217
1629897203680,-0.763232,-0.09211,-0.634278
1629897203690,-0.761707,-0.093086,-0.633424
1629897203700,-0.762744,-0.092415,-0.632753
1629897203709,-0.762317,-0.09265899999999999,-0.632082
1629897203719,-0.762927,-0.093635,-0.632753
1629897203728,-0.7628659999999999,-0.093635,-0.632753
1629897203738,-0.762988,-0.094001,-0.633668
1629897203748,-0.763232,-0.094733,-0.632875
1629897203757,-0.7634759999999999,-0.09528199999999999,-0.6335459999999999
1629897203767,-0.763049,-0.09516,-0.634095
1629897203776,-0.763964,-0.094733,-0.633302
1629897203786,-0.7625609999999999,-0.093696,-0.632082
1629897203796,-0.763232,-0.093025,-0.631167
1629897203805,-0.765062,-0.09211,-0.632387
1629897203815,-0.7634759999999999,-0.09265899999999999,-0.634705
1629897203824,-0.762744,-0.092598,-0.633668
1629897203834,-0.762439,-0.093208,-0.631472
1629897203844,-0.760548,-0.093452,-0.630008
1629897203853,-0.760243,-0.092232,-0.627629
1629897203863,-0.7628659999999999,-0.092903,-0.625677
1629897203872,-0.766343,-0.094489,-0.628239
1629897203882,-0.766282,-0.09638,-0.635315
1629897203892,-0.76677,-0.096807,-0.639524
1629897203901,-0.766953,-0.096624,-0.639829
1629897203911,-0.765672,-0.09698999999999999,-0.636413
1629897203920,-0.76494,-0.097478,-0.63135
1629897203930,-0.763415,-0.098027,-0.628666
1629897203940,-0.762073,-0.096868,-0.626104
1629897203949,-0.762012,-0.095038,-0.62525
1629897203959,-0.762317,-0.09272,-0.627141
1629897203968,-0.763842,-0.092171,-0.628178
1629897203978,-0.763415,-0.091317,-0.630374
1629897203988,-0.762744,-0.092598,-0.63074
1629897203997,-0.76311,-0.093818,-0.631228
1629897204007,-0.764269,-0.094428,-0.630313
1629897204016,-0.764635,-0.09638,-0.629825
1629897204026,-0.764513,-0.097966,-0.628544
1629897204036,-0.7646959999999999,-0.097661,-0.62952
1629897204045,-0.765245,-0.098149,-0.63013
1629897204055,-0.7665259999999999,-0.097966,-0.631594
1629897204064,-0.766648,-0.096807,-0.631655
1629897204074,-0.767197,-0.096502,-0.631655
1629897204084,-0.766343,-0.096197,-0.63196
1629897204093,-0.766709,-0.09528199999999999,-0.631106
1629897204103,-0.767258,-0.095343,-0.630252
1629897204112,-0.76677,-0.09638,-0.630435
1629897204122,-0.76616,-0.096136,-0.630496
1629897204132,-0.763598,-0.095526,-0.626348
1629897204141,-0.765977,-0.094184,-0.624518
1629897204151,-0.765489,-0.09558699999999999,-0.625677
1629897204160,-0.76555,-0.096197,-0.628361
1629897204170,-0.765062,-0.095221,-0.632997
1629897204180,-0.766709,-0.09516,-0.6335459999999999
1629897204189,-0.766892,-0.09516,-0.632875
1629897204199,-0.766587,-0.097356,-0.629398
1629897204208,-0.766038,-0.098637,-0.627995
1629897204218,-0.766648,-0.099796,-0.627202
1629897204228,-0.766648,-0.099552,-0.626958
1629897204237,-0.766648,-0.098576,-0.626897
1629897204247,-0.7662209999999999,-0.097783,-0.6283
1629897204256,-0.7659159999999999,-0.095953,-0.629825
1629897204266,-0.766587,-0.09516,-0.629886
1629897204276,-0.766343,-0.09558699999999999,-0.630496
1629897204285,-0.76616,-0.095038,-0.630252
1629897204295,-0.766099,-0.09528199999999999,-0.630008
1629897204304,-0.7668309999999999,-0.095099,-0.629703
1629897204314,-0.765977,-0.095038,-0.629398
1629897204324,-0.76616,-0.094489,-0.628666
1629897204333,-0.76555,-0.094916,-0.628727
1629897204343,-0.765489,-0.094428,-0.62891
1629897204352,-0.764452,-0.093635,-0.629276
1629897204362,-0.764818,-0.09406199999999999,-0.629886
1629897204372,-0.764635,-0.093025,-0.630008
1629897204381,-0.764513,-0.092903,-0.630679
1629897204391,-0.7637809999999999,-0.092232,-0.630008
1629897204400,-0.763537,-0.094001,-0.629764
1629897204410,-0.7628659999999999,-0.094428,-0.62891
1629897204420,-0.763354,-0.09558699999999999,-0.629581
1629897204429,-0.7628659999999999,-0.096624,-0.629886
1629897204439,-0.762073,-0.097417,-0.629398
1629897204448,-0.762988,-0.098759,-0.630191
1629897204458,-0.762134,-0.100162,-0.631106
1629897204468,-0.762195,-0.10022299999999999,-0.63135
1629897204477,-0.761524,-0.101321,-0.631533
1629897204487,-0.762988,-0.10126,-0.631777
1629897204496,-0.761402,-0.101504,-0.631594
1629897204506,-0.761524,-0.10205299999999999,-0.631289
1629897204516,-0.761097,-0.10022299999999999,-0.63135
1629897204525,-0.762378,-0.100406,-0.631655
1629897204535,-0.762012,-0.100772,-0.631106
1629897204544,-0.762622,-0.10004,-0.631899
1629897204554,-0.763903,-0.100284,-0.631777
1629897204564,-0.764025,-0.099247,-0.632204
1629897204573,-0.764513,-0.09820999999999999,-0.6335459999999999
1629897204583,-0.764452,-0.097234,-0.632082
1629897204592,-0.764513,-0.095831,-0.631655
1629897204602,-0.765184,-0.09516,-0.630496
1629897204612,-0.76677,-0.09406199999999999,-0.631411
1629897204621,-0.764635,-0.095099,-0.63318
1629897204631,-0.7640859999999999,-0.094733,-0.631106
1629897204640,-0.763964,-0.097661,-0.630313
1629897204650,-0.7631709999999999,-0.097661,-0.628239
1629897204660,-0.763903,-0.09820999999999999,-0.627812
1629897204669,-0.765428,-0.09698999999999999,-0.627568
1629897204679,-0.768051,-0.096868,-0.630984
1629897204688,-0.768234,-0.099491,-0.636535
1629897204698,-0.767258,-0.10065,-0.640378
1629897204708,-0.765489,-0.100467,-0.638914
1629897204717,-0.765367,-0.099796,-0.633607
1629897204727,-0.764025,-0.10052799999999999,-0.62952
1629897204736,-0.762622,-0.10126,-0.627324
1629897204746,-0.762805,-0.099796,-0.626043
1629897204756,-0.7610359999999999,-0.09851499999999999,-0.624884
1629897204765,-0.760853,-0.097051,-0.626165
1629897204775,-0.76067,-0.096258,-0.628666
1629897204784,-0.7607309999999999,-0.096197,-0.630984
1629897204794,-0.761463,-0.096807,-0.631899
1629897204804,-0.76067,-0.098637,-0.6320209999999999
1629897204813,-0.7616459999999999,-0.099735,-0.630923
1629897204823,-0.762378,-0.101321,-0.632082
1629897204832,-0.76189,-0.10205299999999999,-0.629764
1629897204842,-0.763049,-0.10187,-0.630252
1629897204852,-0.76311,-0.101321,-0.631838
1629897204861,-0.763964,-0.101992,-0.6329359999999999
1629897204871,-0.764147,-0.100406,-0.6338509999999999
1629897204880,-0.7653059999999999,-0.099857,-0.633485
1629897204890,-0.765245,-0.099796,-0.633668
1629897204900,-0.764879,-0.099003,-0.632509
1629897204909,-0.7637809999999999,-0.098881,-0.631655
1629897204919,-0.764269,-0.099979,-0.6323259999999999
1629897204928,-0.762134,-0.099674,-0.631594
1629897204938,-0.7604259999999999,-0.10022299999999999,-0.627995
1629897204948,-0.763842,-0.09820999999999999,-0.626958
1629897204957,-0.76311,-0.098637,-0.628483
1629897204967,-0.764269,-0.098454,-0.631533
1629897204976,-0.764452,-0.097478,-0.634949
1629897204986,-0.765672,-0.096258,-0.634644
1629897204996,-0.7659159999999999,-0.095343,-0.633729
1629897205005,-0.766038,-0.095831,-0.631167
1629897205015,-0.7662209999999999,-0.096502,-0.630069
1629897205024,-0.76555,-0.096807,-0.627934
1629897205034,-0.765062,-0.097539,-0.627019
1629897205044,-0.766343,-0.096746,-0.627873
1629897205053,-0.7662209999999999,-0.09589199999999999,-0.630252
1629897205063,-0.766282,-0.096136,-0.6317159999999999
1629897205072,-0.7665259999999999,-0.095343,-0.631838
1629897205082,-0.7665259999999999,-0.094428,-0.631594
1629897205092,-0.765733,-0.093879,-0.632082
1629897205101,-0.766587,-0.093635,-0.630679
1629897205111,-0.7665259999999999,-0.093574,-0.629642
1629897205120,-0.765733,-0.094428,-0.628056
1629897205130,-0.7656109999999999,-0.094855,-0.628727
1629897205140,-0.76555,-0.093635,-0.629276
1629897205149,-0.765733,-0.094123,-0.628117
1629897205159,-0.765184,-0.093208,-0.62952
1629897205168,-0.764147,-0.092476,-0.629581
1629897205178,-0.76494,-0.09235399999999999,-0.630557
1629897205188,-0.7646959999999999,-0.091927,-0.630679
1629897205197,-0.764147,-0.092598,-0.629947
1629897205207,-0.763659,-0.092293,-0.630191
1629897205216,-0.763598,-0.093086,-0.628666
1629897205226,-0.764879,-0.095404,-0.628239
1629897205236,-0.7637809999999999,-0.096807,-0.628849
1629897205245,-0.763537,-0.097478,-0.628849
1629897205255,-0.763232,-0.099003,-0.630069
1629897205264,-0.763232,-0.099735,-0.631594
1629897205274,-0.76372,-0.101077,-0.631106
1629897205284,-0.763659,-0.101382,-0.630191
1629897205293,-0.762744,-0.101992,-0.630252
1629897205303,-0.763354,-0.101382,-0.630374
1629897205312,-0.763598,-0.10083299999999999,-0.629581
1629897205322,-0.76372,-0.10052799999999999,-0.629764
1629897205332,-0.764574,-0.099552,-0.630435
1629897205341,-0.764208,-0.099979,-0.630496
1629897205351,-0.764879,-0.099491,-0.629886
1629897205360,-0.764757,-0.098576,-0.629703
1629897205370,-0.7646959999999999,-0.09698999999999999,-0.630618
1629897205380,-0.764757,-0.096441,-0.629825
1629897205389,-0.765855,-0.095343,-0.629154
1629897205399,-0.767685,-0.093025,-0.629642
1629897205408,-0.7665259999999999,-0.09394,-0.630984
1629897205418,-0.7662209999999999,-0.09589199999999999,-0.629642
1629897205428,-0.766709,-0.09638,-0.629398
1629897205437,-0.765428,-0.097112,-0.6283
1629897205447,-0.764208,-0.097112,-0.626836
1629897205456,-0.767258,-0.096746,-0.62586
1629897205466,-0.768722,-0.098393,-0.627324
1629897205476,-0.768905,-0.09851499999999999,-0.632753
1629897205485,-0.768478,-0.09759999999999999,-0.637084
1629897205495,-0.768051,-0.097478,-0.6369009999999999
1629897205504,-0.767197,-0.098088,-0.632875
1629897205514,-0.765184,-0.098698,-0.629093
1629897205524,-0.764025,-0.099003,-0.626226
1629897205533,-0.762805,-0.098454,-0.62525
1629897205543,-0.7619509999999999,-0.096807,-0.624091
1629897205552,-0.7625,-0.09589199999999999,-0.62464
1629897205562,-0.762439,-0.094794,-0.627019
1629897205572,-0.763903,-0.09333,-0.629032
1629897205581,-0.762134,-0.09455,-0.63074
1629897205591,-0.763598,-0.096014,-0.631777
1629897205600,-0.7625,-0.097051,-0.630252
1629897205610,-0.762439,-0.098576,-0.629642
1629897205620,-0.7637809999999999,-0.099552,-0.628361
1629897205629,-0.763659,-0.100162,-0.629398
1629897205639,-0.764269,-0.10065,-0.630923
1629897205648,-0.763903,-0.100772,-0.631594
1629897205658,-0.76311,-0.098454,-0.63135
1629897205668,-0.763415,-0.098271,-0.632143
1629897205677,-0.763964,-0.097478,-0.631594
1629897205687,-0.76494,-0.09698999999999999,-0.630862
1629897205696,-0.764208,-0.097234,-0.631411
1629897205706,-0.763354,-0.09729499999999999,-0.629642
1629897205716,-0.76433,-0.097783,-0.630008
1629897205725,-0.763842,-0.097783,-0.631106
1629897205735,-0.762927,-0.097722,-0.629642
1629897205744,-0.7643909999999999,-0.096319,-0.626836
1629897205754,-0.765428,-0.09638,-0.627812
1629897205764,-0.76616,-0.097478,-0.629093
1629897205773,-0.766038,-0.09577,-0.6335459999999999
1629897205783,-0.7677459999999999,-0.094306,-0.634278
1629897205792,-0.768295,-0.094794,-0.632082
1629897205802,-0.768295,-0.096075,-0.630435
1629897205812,-0.767319,-0.09698999999999999,-0.628422
1629897205821,-0.767075,-0.097417,-0.6283
1629897205831,-0.76555,-0.097356,-0.627751
1629897205840,-0.765672,-0.097356,-0.627995
1629897205850,-0.76555,-0.096746,-0.628178
1629897205860,-0.766099,-0.094794,-0.628483
1629897205869,-0.766282,-0.09394,-0.628788
1629897205879,-0.7659159999999999,-0.094123,-0.628849
1629897205888,-0.765855,-0.093635,-0.629276
1629897205898,-0.765794,-0.09333,-0.628971
1629897205908,-0.765855,-0.094733,-0.627995
1629897205917,-0.766587,-0.095221,-0.627995
1629897205927,-0.766099,-0.09558699999999999,-0.627629
1629897205936,-0.766587,-0.096014,-0.627202
1629897205946,-0.7662209999999999,-0.096563,-0.627934
1629897205956,-0.765794,-0.096014,-0.628178
1629897205965,-0.765855,-0.096197,-0.62891
1629897205975,-0.766465,-0.095953,-0.628544
1629897205984,-0.766709,-0.094306,-0.628056
1629897205994,-0.766038,-0.094428,-0.628239
1629897206004,-0.766099,-0.094184,-0.627324
1629897206013,-0.765489,-0.095099,-0.627629
1629897206023,-0.766099,-0.09516,-0.627141
1629897206032,-0.765245,-0.096624,-0.627751
1629897206042,-0.766038,-0.097356,-0.6283
1629897206052,-0.7656109999999999,-0.098942,-0.628056
1629897206061,-0.765794,-0.09943,-0.627446
1629897206071,-0.764757,-0.100589,-0.628727
1629897206080,-0.7662209999999999,-0.10126,-0.628483
1629897206090,-0.766587,-0.101565,-0.627202
1629897206100,-0.766648,-0.100772,-0.627324
1629897206109,-0.766709,-0.10022299999999999,-0.628117
1629897206119,-0.768356,-0.09943,-0.62769
1629897206128,-0.767868,-0.098393,-0.627751
1629897206138,-0.769027,-0.097051,-0.626897
1629897206148,-0.767502,-0.097356,-0.627019
1629897206157,-0.768234,-0.096624,-0.626531
1629897206167,-0.76799,-0.097051,-0.627019
1629897206176,-0.766892,-0.09698999999999999,-0.62647
1629897206186,-0.767807,-0.096685,-0.627324
1629897206196,-0.767807,-0.097051,-0.627446
1629897206205,-0.767807,-0.096868,-0.628971
1629897206215,-0.76799,-0.098088,-0.627446
1629897206224,-0.76799,-0.097539,-0.626226
1629897206234,-0.7671359999999999,-0.097112,-0.626653
1629897206244,-0.76738,-0.095465,-0.626348
1629897206253,-0.767868,-0.09497699999999999,-0.626043
1629897206263,-0.767075,-0.095831,-0.626714
1629897206272,-0.767624,-0.09759999999999999,-0.62586
1629897206282,-0.768234,-0.097539,-0.626104
1629897206292,-0.766648,-0.097234,-0.625494
1629897206301,-0.76738,-0.096075,-0.622078
1629897206311,-0.768295,-0.096868,-0.622688
1629897206320,-0.769271,-0.098149,-0.626592
1629897206330,-0.76921,-0.098942,-0.632509
1629897206340,-0.770125,-0.097478,-0.634888
1629897206349,-0.77043,-0.095831,-0.6335459999999999
1629897206359,-0.769393,-0.095831,-0.630069
1629897206368,-0.767502,-0.096319,-0.626714
1629897206378,-0.766648,-0.096685,-0.623237
1629897206388,-0.766648,-0.096441,-0.622932
1629897206397,-0.7650009999999999,-0.094184,-0.623969
1629897206407,-0.764574,-0.09394,-0.625006
1629897206416,-0.765184,-0.093757,-0.626775
1629897206426,-0.76494,-0.094611,-0.628361
1629897206436,-0.764635,-0.09577,-0.62891
1629897206445,-0.764513,-0.096746,-0.629398
1629897206455,-0.764757,-0.098088,-0.6283
1629897206464,-0.765245,-0.099186,-0.626714
1629897206474,-0.7659159999999999,-0.099979,-0.62708
1629897206484,-0.76494,-0.100345,-0.628178
1629897206493,-0.765977,-0.10065,-0.62952
1629897206503,-0.765855,-0.099186,-0.630008
1629897206512,-0.76616,-0.098759,-0.630801
1629897206522,-0.766465,-0.09790499999999999,-0.63074
1629897206532,-0.7659159999999999,-0.097112,-0.630496
1629897206541,-0.766892,-0.096014,-0.629398
1629897206551,-0.7665259999999999,-0.095648,-0.628361
1629897206560,-0.765733,-0.09558699999999999,-0.629032
1629897206570,-0.766038,-0.096319,-0.629032
1629897206580,-0.765489,-0.096441,-0.629459
1629897206589,-0.763598,-0.096441,-0.629581
1629897206599,-0.765184,-0.09497699999999999,-0.627568
1629897206608,-0.766587,-0.093818,-0.627751
1629897206618,-0.765733,-0.094123,-0.628544
1629897206628,-0.766343,-0.09406199999999999,-0.630252
1629897206637,-0.7659159999999999,-0.094733,-0.63074
1629897206647,-0.7671359999999999,-0.095038,-0.630679
1629897206656,-0.7665259999999999,-0.094916,-0.630984
1629897206666,-0.766282,-0.09638,-0.630008
1629897206676,-0.766404,-0.095831,-0.629032
1629897206685,-0.765733,-0.095343,-0.627629
1629897206695,-0.76555,-0.094489,-0.626714
1629897206704,-0.766038,-0.09406199999999999,-0.627385
1629897206714,-0.7656109999999999,-0.09333,-0.62769
1629897206724,-0.765367,-0.092842,-0.626714
1629897206733,-0.766282,-0.092964,-0.627324
1629897206743,-0.765672,-0.092903,-0.627568
1629897206752,-0.766587,-0.092903,-0.628422
1629897206762,-0.7665259999999999,-0.09265899999999999,-0.628178
1629897206772,-0.7671359999999999,-0.093147,-0.628666
1629897206781,-0.76616,-0.093574,-0.628117
1629897206791,-0.76677,-0.093513,-0.627568
1629897206800,-0.7668309999999999,-0.093574,-0.627568
1629897206810,-0.767624,-0.092842,-0.627019
1629897206820,-0.767075,-0.093147,-0.626958
1629897206829,-0.7686,-0.092476,-0.626226
1629897206839,-0.767868,-0.092781,-0.627446
1629897206848,-0.768112,-0.09143899999999999,-0.626287
1629897206858,-0.767624,-0.091012,-0.626714
1629897206868,-0.768234,-0.091561,-0.62769
1629897206877,-0.768295,-0.092781,-0.625982
1629897206887,-0.768051,-0.093635,-0.626226
1629897206896,-0.7677459999999999,-0.094855,-0.62647
1629897206906,-0.767929,-0.095404,-0.626592
1629897206916,-0.768539,-0.096502,-0.626531
1629897206925,-0.76738,-0.096807,-0.625982
1629897206935,-0.767929,-0.097722,-0.626226
1629897206944,-0.768173,-0.098393,-0.626104
1629897206954,-0.768112,-0.097783,-0.625677
1629897206964,-0.768905,-0.097417,-0.625677
1629897206973,-0.769271,-0.097173,-0.625921
1629897206983,-0.76921,-0.096685,-0.625494
1629897206992,-0.769759,-0.095709,-0.625738
1629897207002,-0.76982,-0.094916,-0.626165
1629897207012,-0.769759,-0.094245,-0.626226
1629897207021,-0.769515,-0.093696,-0.626409
1629897207031,-0.770186,-0.094794,-0.625555
1629897207040,-0.770247,-0.09467199999999999,-0.625433
1629897207050,-0.769942,-0.09455,-0.624884
1629897207060,-0.768722,-0.095099,-0.625799
1629897207069,-0.769759,-0.095526,-0.625982
1629897207079,-0.769393,-0.09558699999999999,-0.625494
1629897207088,-0.769393,-0.095648,-0.625677
1629897207098,-0.768844,-0.095709,-0.624823
1629897207108,-0.768661,-0.096136,-0.625677
1629897207117,-0.769393,-0.095465,-0.622871
1629897207127,-0.769515,-0.093086,-0.623237
1629897207136,-0.769698,-0.091622,-0.623359
1629897207146,-0.768173,-0.09333,-0.624091
1629897207156,-0.768783,-0.094855,-0.622261
1629897207165,-0.768234,-0.096258,-0.623054
1629897207175,-0.768173,-0.095404,-0.622993
1629897207184,-0.767502,-0.09528199999999999,-0.62159
1629897207194,-0.770003,-0.09558699999999999,-0.621712
1629897207204,-0.770613,-0.097112,-0.623725
1629897207213,-0.772016,-0.09698999999999999,-0.628056
1629897207223,-0.772443,-0.096624,-0.632448
1629897207232,-0.773297,-0.09577,-0.6317159999999999
1629897207242,-0.771284,-0.094306,-0.628666
1629897207252,-0.771223,-0.095038,-0.625311
1629897207261,-0.76921,-0.094916,-0.623542
1629897207271,-0.768722,-0.093635,-0.620858
1629897207280,-0.767624,-0.093879,-0.621163
1629897207290,-0.767868,-0.09265899999999999,-0.622932
1629897207300,-0.767563,-0.092537,-0.624518
1629897207309,-0.766648,-0.094306,-0.626592
1629897207319,-0.76738,-0.094916,-0.627385
1629897207328,-0.767319,-0.096624,-0.62708
1629897207338,-0.76738,-0.09820999999999999,-0.625433
1629897207348,-0.766953,-0.099308,-0.62464
1629897207357,-0.767197,-0.10083299999999999,-0.624335
1629897207367,-0.767868,-0.10126,-0.625128
1629897207376,-0.767624,-0.10083299999999999,-0.625921
1629897207386,-0.768356,-0.10022299999999999,-0.626714
1629897207396,-0.768905,-0.099186,-0.627751
1629897207405,-0.769515,-0.096746,-0.628056
1629897207415,-0.769576,-0.096197,-0.62769
1629897207424,-0.768844,-0.09455,-0.626714
1629897207434,-0.768844,-0.09436699999999999,-0.626348
1629897207444,-0.768356,-0.09394,-0.625982
1629897207453,-0.768722,-0.09467199999999999,-0.62525
1629897207463,-0.767624,-0.094489,-0.625494
1629897207472,-0.7668309999999999,-0.094245,-0.624945
1629897207482,-0.768783,-0.093635,-0.623176
1629897207492,-0.768112,-0.092964,-0.624335
1629897207501,-0.768478,-0.09394,-0.625311
1629897207511,-0.768844,-0.09394,-0.626531
1629897207520,-0.770125,-0.09467199999999999,-0.625982
1629897207530,-0.769576,-0.096136,-0.627629
1629897207540,-0.769515,-0.096807,-0.62708
1629897207549,-0.77043,-0.096258,-0.626958
1629897207559,-0.76982,-0.09577,-0.625006
1629897207568,-0.770308,-0.094733,-0.623542
1629897207578,-0.769576,-0.09467199999999999,-0.624152
1629897207588,-0.769332,-0.093757,-0.624213
1629897207597,-0.769759,-0.093818,-0.624152
1629897207607,-0.768844,-0.094245,-0.62403
1629897207616,-0.769149,-0.094123,-0.624884
1629897207626,-0.769271,-0.095099,-0.62464
1629897207636,-0.769332,-0.095343,-0.625006
1629897207645,-0.770064,-0.095343,-0.624762
1629897207655,-0.77043,-0.094916,-0.624762
1629897207664,-0.76982,-0.09394,-0.624884
1629897207674,-0.769149,-0.094245,-0.624762
1629897207684,-0.76982,-0.09406199999999999,-0.624579
1629897207693,-0.770064,-0.094123,-0.623908
1629897207703,-0.769271,-0.093208,-0.623847
1629897207712,-0.769515,-0.092964,-0.624762
1629897207722,-0.770186,-0.093818,-0.623725
1629897207732,-0.769759,-0.093818,-0.624701
1629897207741,-0.769454,-0.093208,-0.624274
1629897207751,-0.770125,-0.092842,-0.62464
1629897207760,-0.770125,-0.09455,-0.624274
1629897207770,-0.769332,-0.095648,-0.623786
1629897207780,-0.769393,-0.09638,-0.623725
1629897207789,-0.769149,-0.097478,-0.623847
1629897207799,-0.769454,-0.09820999999999999,-0.624213
1629897207808,-0.770003,-0.097844,-0.625311
1629897207818,-0.769515,-0.098393,-0.624335
1629897207828,-0.769393,-0.098637,-0.623847
1629897207837,-0.770125,-0.097722,-0.623054
1629897207847,-0.769637,-0.097661,-0.623054
1629897207856,-0.770186,-0.096441,-0.622322
1629897207866,-0.769881,-0.09589199999999999,-0.622688
1629897207876,-0.770796,-0.095343,-0.623298
1629897207885,-0.770918,-0.094916,-0.623176
1629897207895,-0.771345,-0.093818,-0.623908
1629897207904,-0.772077,-0.09467199999999999,-0.623786
1629897207914,-0.772687,-0.09436699999999999,-0.623786
1629897207924,-0.772077,-0.094733,-0.623237
1629897207933,-0.770613,-0.094794,-0.623298
1629897207943,-0.771101,-0.095648,-0.623359
1629897207952,-0.771894,-0.096014,-0.62342
1629897207962,-0.77104,-0.096075,-0.624518
1629897207972,-0.770796,-0.095526,-0.624823
1629897207981,-0.77043,-0.097112,-0.624457
1629897207991,-0.771528,-0.09638,-0.624335
1629897208000,-0.769942,-0.09698999999999999,-0.623847
1629897208010,-0.769637,-0.096441,-0.623359
1629897208020,-0.769759,-0.09528199999999999,-0.622261
1629897208029,-0.76982,-0.093879,-0.62159
1629897208039,-0.769637,-0.095099,-0.6222
1629897208048,-0.76921,-0.096624,-0.621834
1629897208058,-0.770491,-0.097173,-0.622444
1629897208068,-0.768722,-0.097234,-0.622444
1629897208077,-0.768417,-0.096197,-0.62098
1629897208087,-0.770308,-0.095953,-0.620065
1629897208096,-0.771406,-0.096868,-0.621224
1629897208106,-0.77165,-0.098454,-0.625494
1629897208116,-0.772931,-0.097722,-0.629825
1629897208125,-0.772931,-0.096685,-0.632448
1629897208135,-0.773114,-0.096197,-0.629093
1629897208144,-0.771833,-0.095953,-0.624884
1629897208154,-0.769576,-0.09497699999999999,-0.622566
1629897208164,-0.769576,-0.094794,-0.620858
1629897208173,-0.768356,-0.09394,-0.620431
1629897208183,-0.767319,-0.092171,-0.620919
1629897208192,-0.768051,-0.091988,-0.6214069999999999
1629897208202,-0.768051,-0.091256,-0.624823
1629897208212,-0.768539,-0.093147,-0.625555
1629897208221,-0.768112,-0.09516,-0.625738
1629897208231,-0.767685,-0.097234,-0.624823
1629897208240,-0.768234,-0.099186,-0.623664
1629897208250,-0.7677459999999999,-0.099003,-0.622566
1629897208260,-0.768478,-0.100162,-0.623359
1629897208269,-0.769027,-0.099735,-0.624457
1629897208279,-0.769027,-0.097661,-0.624823
1629897208288,-0.770247,-0.096807,-0.626958
1629897208298,-0.770064,-0.095648,-0.627507
1629897208308,-0.769942,-0.094306,-0.626836
1629897208317,-0.769942,-0.093879,-0.625616
1629897208327,-0.769454,-0.092415,-0.624579
1629897208336,-0.770125,-0.092964,-0.624518
1629897208346,-0.769759,-0.092964,-0.624884
1629897208356,-0.768112,-0.093696,-0.625067
1629897208365,-0.768234,-0.09211,-0.622749
1629897208375,-0.77043,-0.091866,-0.621285
1629897208384,-0.769393,-0.093025,-0.623359
1629897208394,-0.770308,-0.093452,-0.625799
1629897208404,-0.770735,-0.09333,-0.627751
1629897208413,-0.771528,-0.092842,-0.627873
1629897208423,-0.771528,-0.093025,-0.627324
1629897208432,-0.770735,-0.094794,-0.625616
1629897208442,-0.770186,-0.09497699999999999,-0.624396
1629897208452,-0.770247,-0.093696,-0.623359
1629897208461,-0.770674,-0.093208,-0.622993
1629897208471,-0.770552,-0.09211,-0.622566
1629897208480,-0.770979,-0.09265899999999999,-0.622627
1629897208490,-0.769942,-0.092171,-0.62464
1629897208500,-0.769942,-0.09235399999999999,-0.624335
1629897208509,-0.770186,-0.093452,-0.623847
1629897208519,-0.770918,-0.093208,-0.624152
1629897208528,-0.77043,-0.094855,-0.623481
1629897208538,-0.770613,-0.09516,-0.623847
1629897208548,-0.771406,-0.09589199999999999,-0.623664
1629897208557,-0.770247,-0.095526,-0.624091
1629897208567,-0.770857,-0.095526,-0.623603
1629897208576,-0.770125,-0.09394,-0.623542
1629897208586,-0.770918,-0.09467199999999999,-0.622627
1629897208596,-0.770491,-0.093879,-0.622505
1629897208605,-0.770674,-0.093635,-0.623359
1629897208615,-0.77104,-0.091988,-0.622688
1629897208624,-0.770552,-0.09174399999999999,-0.624274
1629897208634,-0.770308,-0.091683,-0.62464
1629897208644,-0.770918,-0.093025,-0.62403
1629897208653,-0.770003,-0.093391,-0.624457
1629897208663,-0.770003,-0.094794,-0.624518
1629897208672,-0.76982,-0.096197,-0.623786
1629897208682,-0.768966,-0.097234,-0.622383
1629897208692,-0.768173,-0.098027,-0.622749
1629897208701,-0.768112,-0.098759,-0.623115
1629897208711,-0.768417,-0.099369,-0.623176
1629897208720,-0.768112,-0.09881999999999999,-0.623725
1629897208730,-0.768722,-0.098454,-0.625433
1629897208740,-0.768966,-0.097173,-0.625311
1629897208749,-0.769515,-0.096258,-0.624274
1629897208759,-0.76982,-0.095343,-0.623786
1629897208768,-0.770247,-0.094916,-0.623542
1629897208778,-0.771284,-0.09455,-0.622932
1629897208788,-0.771955,-0.094245,-0.62342
1629897208797,-0.771345,-0.09394,-0.623542
1629897208807,-0.770674,-0.093147,-0.624823
1629897208816,-0.771345,-0.092842,-0.623664
1629897208826,-0.772016,-0.094123,-0.623542
1629897208836,-0.771894,-0.094611,-0.622688
1629897208845,-0.771955,-0.094855,-0.623176
1629897208855,-0.770674,-0.09528199999999999,-0.623603
1629897208864,-0.771223,-0.09516,-0.623969
1629897208874,-0.770552,-0.094855,-0.624701
1629897208884,-0.771406,-0.095831,-0.624518
1629897208893,-0.770796,-0.095648,-0.624152
1629897208903,-0.769332,-0.096075,-0.623969
1629897208912,-0.769576,-0.094855,-0.623176
1629897208922,-0.770003,-0.094306,-0.62098
1629897208932,-0.77043,-0.093086,-0.621712
1629897208941,-0.76982,-0.093879,-0.623542
1629897208951,-0.769698,-0.09516,-0.624152
1629897208960,-0.769942,-0.095404,-0.624335
1629897208970,-0.769088,-0.095526,-0.623603
1629897208980,-0.768112,-0.094245,-0.620858
1629897208989,-0.76982,-0.095343,-0.61915
1629897208999,-0.771284,-0.096258,-0.620858
1629897209008,-0.772565,-0.096624,-0.62586
1629897209018,-0.772504,-0.097112,-0.630984
1629897209028,-0.772138,-0.096502,-0.633729
1629897209037,-0.772809,-0.096624,-0.631289
1629897209047,-0.771101,-0.09698999999999999,-0.627751
1629897209056,-0.769149,-0.097966,-0.623115
1629897209066,-0.769515,-0.09759999999999999,-0.6211019999999999
1629897209076,-0.767929,-0.096014,-0.6195769999999999
1629897209085,-0.767502,-0.094184,-0.620614
1629897209095,-0.767563,-0.093147,-0.622566
1629897209104,-0.767014,-0.092232,-0.624823
1629897209114,-0.76738,-0.093574,-0.62464
1629897209124,-0.766404,-0.094794,-0.626897
1629897209133,-0.766465,-0.096624,-0.62586
1629897209143,-0.766648,-0.096929,-0.62403
1629897209152,-0.768295,-0.098637,-0.623298
1629897209162,-0.768478,-0.099552,-0.623908
1629897209172,-0.768478,-0.10004,-0.625738
1629897209181,-0.768661,-0.09943,-0.626287
1629897209191,-0.768905,-0.097966,-0.627446
1629897209200,-0.770308,-0.097722,-0.628178
1629897209210,-0.769576,-0.096563,-0.627446
1629897209220,-0.769515,-0.096014,-0.627629
1629897209229,-0.769454,-0.095648,-0.626775
1629897209239,-0.768966,-0.095953,-0.625372
1629897209248,-0.769149,-0.096502,-0.625982
1629897209258,-0.7665259999999999,-0.095953,-0.625921
1629897209268,-0.7674409999999999,-0.095404,-0.621041
1629897209277,-0.768844,-0.09528199999999999,-0.621773
1629897209287,-0.768173,-0.096746,-0.623664
1629897209296,-0.768173,-0.097478,-0.627446
1629897209306,-0.768844,-0.096868,-0.630496
1629897209316,-0.769149,-0.095953,-0.629825
1629897209325,-0.769576,-0.097356,-0.627568
1629897209335,-0.770186,-0.097112,-0.62586
1629897209344,-0.769393,-0.097966,-0.624396
1629897209354,-0.768844,-0.097783,-0.623481
1629897209364,-0.769271,-0.09759999999999999,-0.623969
1629897209373,-0.769332,-0.095953,-0.62403
1629897209383,-0.77043,-0.094489,-0.625677
1629897209392,-0.770308,-0.094245,-0.626775
1629897209402,-0.770003,-0.093879,-0.628422
1629897209412,-0.769759,-0.09272,-0.627202
1629897209421,-0.769454,-0.09333,-0.626958
1629897209431,-0.770003,-0.093818,-0.626287
1629897209440,-0.769332,-0.094794,-0.626409
1629897209450,-0.768478,-0.09467199999999999,-0.62586
1629897209460,-0.768234,-0.09558699999999999,-0.626348
1629897209469,-0.768417,-0.095343,-0.626836
1629897209479,-0.766465,-0.094733,-0.626592
1629897209488,-0.7671359999999999,-0.09589199999999999,-0.626592
1629897209498,-0.7668309999999999,-0.094794,-0.626104
1629897209508,-0.766343,-0.093757,-0.626836
1629897209517,-0.766892,-0.093452,-0.627446
1629897209527,-0.765428,-0.093635,-0.626775
1629897209536,-0.76616,-0.093513,-0.628056
1629897209546,-0.765123,-0.094733,-0.626958
1629897209556,-0.765428,-0.09577,-0.627324
1629897209565,-0.765367,-0.097051,-0.626348
1629897209575,-0.765733,-0.097478,-0.626714
1629897209584,-0.765428,-0.098393,-0.626653
1629897209594,-0.766465,-0.099979,-0.627019
1629897209604,-0.765672,-0.100894,-0.627263
1629897209613,-0.766282,-0.101199,-0.628056
1629897209623,-0.766892,-0.10113799999999999,-0.627629
1629897209632,-0.767258,-0.10113799999999999,-0.62708
1629897209642,-0.766892,-0.100467,-0.62769
1629897209652,-0.766099,-0.099369,-0.627751
1629897209661,-0.765977,-0.098881,-0.625982
1629897209671,-0.767075,-0.098393,-0.625616
1629897209680,-0.766648,-0.097844,-0.625372
1629897209690,-0.7665259999999999,-0.098088,-0.624884
1629897209700,-0.766343,-0.09790499999999999,-0.625494
1629897209709,-0.767075,-0.098271,-0.626226
1629897209719,-0.768234,-0.098393,-0.627751
1629897209728,-0.7686,-0.099369,-0.627995
1629897209738,-0.769088,-0.098942,-0.6283
1629897209748,-0.768783,-0.097234,-0.627934
1629897209757,-0.767929,-0.097112,-0.625494
1629897209767,-0.768783,-0.09577,-0.625372
1629897209776,-0.769759,-0.095404,-0.625372
1629897209786,-0.769271,-0.094306,-0.627995
1629897209796,-0.768234,-0.095099,-0.62769
1629897209805,-0.767502,-0.09577,-0.625494
1629897209815,-0.765794,-0.096502,-0.62403
1629897209824,-0.76616,-0.096563,-0.622566
1629897209834,-0.7674409999999999,-0.096868,-0.6211019999999999
1629897209844,-0.769759,-0.097112,-0.623847
1629897209853,-0.771955,-0.099003,-0.629337
1629897209863,-0.771101,-0.099064,-0.634522
1629897209872,-0.770125,-0.09991799999999999,-0.635803
1629897209882,-0.770064,-0.101077,-0.632143
1629897209892,-0.768844,-0.099186,-0.627263
1629897209901,-0.766953,-0.100467,-0.623176
1629897209911,-0.765794,-0.098881,-0.621651
1629897209920,-0.76494,-0.098942,-0.621163
1629897209930,-0.764635,-0.096197,-0.6222
1629897209940,-0.765245,-0.094855,-0.622932
1629897209949,-0.765367,-0.09558699999999999,-0.625555
1629897209959,-0.765672,-0.096807,-0.62708
1629897209968,-0.76616,-0.098088,-0.6283
1629897209978,-0.766953,-0.09851499999999999,-0.627873
1629897209988,-0.767685,-0.099979,-0.627812
1629897209997,-0.767319,-0.099857,-0.626714
1629897210007,-0.767624,-0.101382,-0.62525
1629897210016,-0.767929,-0.101077,-0.627141
1629897210026,-0.768966,-0.10083299999999999,-0.627568
1629897210036,-0.768661,-0.099125,-0.628056
1629897210045,-0.768478,-0.09851499999999999,-0.628178
1629897210055,-0.768417,-0.097539,-0.628361
1629897210064,-0.768783,-0.097234,-0.628605
1629897210074,-0.768783,-0.09759999999999999,-0.627934
1629897210084,-0.769027,-0.096929,-0.62769
1629897210093,-0.767929,-0.09790499999999999,-0.62769
1629897210103,-0.764269,-0.09820999999999999,-0.625311
1629897210112,-0.7668309999999999,-0.096014,-0.623115
1629897210122,-0.7668309999999999,-0.096075,-0.623298
1629897210132,-0.7665259999999999,-0.098027,-0.625189
1629897210141,-0.766892,-0.097234,-0.630252
1629897210151,-0.767807,-0.096258,-0.630984
1629897210160,-0.768173,-0.09589199999999999,-0.63013
1629897210170,-0.76738,-0.096441,-0.628605
1629897210180,-0.768173,-0.096929,-0.627324
1629897210189,-0.76738,-0.09759999999999999,-0.625128
1629897210199,-0.76799,-0.098454,-0.62464
1629897210208,-0.767929,-0.097966,-0.62525
1629897210218,-0.768417,-0.09589199999999999,-0.626531
1629897210228,-0.768356,-0.09558699999999999,-0.628605
1629897210237,-0.76799,-0.096014,-0.629764
1629897210247,-0.767258,-0.096197,-0.629642
1629897210256,-0.767319,-0.096014,-0.629703
1629897210266,-0.767319,-0.096014,-0.629154
1629897210276,-0.765977,-0.096319,-0.627629
1629897210285,-0.767075,-0.095831,-0.627324
1629897210295,-0.7665259999999999,-0.09638,-0.627629
1629897210304,-0.7662209999999999,-0.095831,-0.626897
1629897210314,-0.765367,-0.09558699999999999,-0.627751
1629897210324,-0.766587,-0.094794,-0.629215
1629897210333,-0.7659159999999999,-0.09516,-0.628971
1629897210343,-0.765428,-0.09455,-0.629032
1629897210352,-0.7653059999999999,-0.094184,-0.629398
1629897210362,-0.7653059999999999,-0.094184,-0.628666
1629897210372,-0.766038,-0.094611,-0.6283
1629897210381,-0.7650009999999999,-0.095099,-0.6283
1629897210391,-0.765123,-0.096868,-0.626897
1629897210400,-0.766099,-0.097783,-0.626897
1629897210410,-0.766404,-0.098881,-0.627385
1629897210420,-0.765428,-0.100345,-0.627507
1629897210429,-0.765367,-0.101199,-0.629276
1629897210439,-0.765733,-0.10144299999999999,-0.628056
1629897210448,-0.766465,-0.101565,-0.628971
1629897210458,-0.766099,-0.10113799999999999,-0.629581
1629897210468,-0.765733,-0.101077,-0.6283
1629897210477,-0.765123,-0.100162,-0.627202
1629897210487,-0.765794,-0.100162,-0.625921
1629897210496,-0.766343,-0.099308,-0.627202
1629897210506,-0.765794,-0.09759999999999999,-0.627446
1629897210516,-0.765489,-0.096868,-0.627324
1629897210525,-0.767075,-0.097722,-0.62769
1629897210535,-0.766648,-0.096319,-0.627568
1629897210544,-0.766038,-0.09638,-0.628117
1629897210554,-0.766709,-0.095831,-0.628422
1629897210564,-0.7668309999999999,-0.094794,-0.627507
1629897210573,-0.767258,-0.094306,-0.62586
1629897210583,-0.768966,-0.093025,-0.626958
1629897210592,-0.768112,-0.09406199999999999,-0.629703
1629897210602,-0.766343,-0.095404,-0.627263
1629897210612,-0.767197,-0.095709,-0.626836
1629897210621,-0.7662209999999999,-0.096014,-0.625799
1629897210631,-0.765428,-0.095526,-0.623237
1629897210640,-0.768112,-0.09558699999999999,-0.6222
1629897210650,-0.769637,-0.095953,-0.624884
1629897210660,-0.770857,-0.09638,-0.630679
1629897210669,-0.771345,-0.096624,-0.6356809999999999
1629897210679,-0.769881,-0.096563,-0.635193
1629897210688,-0.770064,-0.095465,-0.631899
1629897210698,-0.767502,-0.096502,-0.627141
1629897210708,-0.766282,-0.096502,-0.623542
1629897210717,-0.7662209999999999,-0.096197,-0.622444
1629897210727,-0.7646959999999999,-0.09394,-0.622444
1629897210736,-0.764208,-0.092781,-0.622932
1629897210746,-0.764818,-0.091073,-0.624884
1629897210756,-0.765245,-0.091012,-0.626714
1629897210765,-0.765184,-0.091988,-0.628117
1629897210775,-0.76555,-0.093635,-0.627812
1629897210784,-0.766038,-0.09455,-0.628239
1629897210794,-0.766343,-0.09589199999999999,-0.627263
1629897210804,-0.7659159999999999,-0.095709,-0.627629
1629897210813,-0.766038,-0.096807,-0.626714
1629897210823,-0.766099,-0.097051,-0.62769
1629897210832,-0.766648,-0.096075,-0.628727
1629897210842,-0.7674409999999999,-0.094794,-0.629642
1629897210852,-0.768966,-0.094489,-0.629764
1629897210861,-0.768844,-0.093696,-0.629947
1629897210871,-0.76921,-0.093269,-0.628178
1629897210880,-0.767685,-0.09235399999999999,-0.627202
1629897210890,-0.767868,-0.091927,-0.627202
1629897210900,-0.7677459999999999,-0.093147,-0.627019
1629897210909,-0.7671359999999999,-0.093269,-0.627995
1629897210919,-0.765733,-0.093208,-0.624518
1629897210928,-0.7674409999999999,-0.09211,-0.622627
1629897210938,-0.767868,-0.093635,-0.623298
1629897210948,-0.76921,-0.094916,-0.625677
1629897210957,-0.769088,-0.093635,-0.629642
1629897210967,-0.769454,-0.091988,-0.631045
1629897210976,-0.770003,-0.091256,-0.629093
1629897210986,-0.770857,-0.093025,-0.62647
1629897210996,-0.770979,-0.094184,-0.623969
1629897211005,-0.770796,-0.094794,-0.623847
1629897211015,-0.77043,-0.095343,-0.623298
1629897211024,-0.770125,-0.09497699999999999,-0.623542
1629897211034,-0.769271,-0.094245,-0.623908
1629897211044,-0.76921,-0.093391,-0.626592
1629897211053,-0.768966,-0.092842,-0.626287
1629897211063,-0.769637,-0.092415,-0.625921
1629897211072,-0.768905,-0.091866,-0.626226
1629897211082,-0.76921,-0.09204899999999999,-0.625189
1629897211092,-0.769576,-0.09211,-0.625494
1629897211101,-0.769881,-0.093269,-0.625006
1629897211111,-0.769759,-0.093818,-0.625006
1629897211120,-0.768234,-0.094794,-0.624518
1629897211130,-0.768966,-0.095099,-0.624884
1629897211140,-0.7686,-0.093818,-0.625006
1629897211149,-0.769088,-0.09436699999999999,-0.625067
1629897211159,-0.769149,-0.093025,-0.625738
1629897211168,-0.769759,-0.092781,-0.626836
1629897211178,-0.769027,-0.09265899999999999,-0.625372
1629897211188,-0.7686,-0.092964,-0.624457
1629897211197,-0.768356,-0.09467199999999999,-0.623664
1629897211207,-0.768051,-0.094001,-0.622932
1629897211216,-0.768051,-0.095953,-0.623664
1629897211226,-0.767502,-0.09698999999999999,-0.623969
1629897211236,-0.76799,-0.098271,-0.625738
1629897211245,-0.767624,-0.098271,-0.625189
1629897211255,-0.768478,-0.099308,-0.625677
1629897211264,-0.768112,-0.099308,-0.625128
1629897211274,-0.768966,-0.099491,-0.625128
1629897211284,-0.769332,-0.099796,-0.625799
1629897211293,-0.769332,-0.09820999999999999,-0.625067
1629897211303,-0.769637,-0.097783,-0.625006
1629897211312,-0.770186,-0.096685,-0.623847
1629897211322,-0.76982,-0.096441,-0.623847
1629897211332,-0.770064,-0.096136,-0.623908
1629897211341,-0.769698,-0.095221,-0.624762
1629897211351,-0.769454,-0.095221,-0.625006
1629897211360,-0.770796,-0.09516,-0.624152
1629897211370,-0.770796,-0.09558699999999999,-0.624518
1629897211380,-0.770674,-0.09497699999999999,-0.62464
1629897211389,-0.769637,-0.09516,-0.625067
1629897211399,-0.770796,-0.093635,-0.624518
1629897211408,-0.770552,-0.09272,-0.624274
1629897211418,-0.771223,-0.09235399999999999,-0.62403
1629897211428,-0.770918,-0.093147,-0.625128
1629897211437,-0.770125,-0.09455,-0.62403
1629897211447,-0.770735,-0.095465,-0.623115
1629897211456,-0.769698,-0.094428,-0.623725
1629897211466,-0.768112,-0.094306,-0.622322
1629897211476,-0.770308,-0.094733,-0.619516
1629897211485,-0.771711,-0.096014,-0.621468
1629897211495,-0.772138,-0.096197,-0.628117
1629897211504,-0.771772,-0.095038,-0.631838
1629897211514,-0.772138,-0.09406199999999999,-0.632082
1629897211524,-0.771711,-0.092842,-0.627995
1629897211533,-0.770247,-0.09406199999999999,-0.624762
1629897211543,-0.769149,-0.094916,-0.622322
1629897211552,-0.768112,-0.09436699999999999,-0.620736
1629897211562,-0.7665259999999999,-0.093818,-0.6211019999999999
1629897211572,-0.766648,-0.092964,-0.62159
1629897211581,-0.766709,-0.092293,-0.62281
1629897211591,-0.766648,-0.092293,-0.625372
1629897211600,-0.767075,-0.092842,-0.626226
1629897211610,-0.766953,-0.09467199999999999,-0.62586
1629897211620,-0.7674409999999999,-0.095648,-0.625494
1629897211629,-0.76738,-0.09638,-0.62525
1629897211639,-0.7677459999999999,-0.098332,-0.623481
1629897211648,-0.7674409999999999,-0.098759,-0.623969
1629897211658,-0.767502,-0.099186,-0.625433
1629897211668,-0.768966,-0.098881,-0.626836
1629897211677,-0.769698,-0.097356,-0.627202
1629897211687,-0.769576,-0.09589199999999999,-0.626592
1629897211696,-0.770308,-0.094794,-0.627568
1629897211706,-0.76982,-0.093269,-0.626592
1629897211716,-0.76982,-0.093208,-0.624579
1629897211725,-0.770064,-0.092964,-0.624579
1629897211735,-0.770186,-0.093452,-0.62464
1629897211744,-0.770857,-0.093208,-0.625311
1629897211754,-0.770003,-0.093086,-0.625677
1629897211764,-0.769149,-0.093513,-0.623664
1629897211773,-0.770064,-0.092903,-0.623054
1629897211783,-0.769576,-0.09406199999999999,-0.623176
1629897211792,-0.77043,-0.093818,-0.625921
1629897211802,-0.770918,-0.09265899999999999,-0.626958
1629897211812,-0.771528,-0.092842,-0.626531
1629897211821,-0.771711,-0.094489,-0.626287
1629897211831,-0.77043,-0.09467199999999999,-0.625555
1629897211840,-0.770857,-0.09577,-0.624091
1629897211850,-0.771162,-0.09497699999999999,-0.622505
1629897211860,-0.771284,-0.094916,-0.623481
1629897211869,-0.770613,-0.093757,-0.6222
1629897211879,-0.77043,-0.09272,-0.622871
1629897211888,-0.770735,-0.09272,-0.623054
1629897211898,-0.770186,-0.092842,-0.622688
1629897211908,-0.770918,-0.092842,-0.623298
1629897211917,-0.770552,-0.092232,-0.624335
1629897211927,-0.771467,-0.091988,-0.623481
1629897211936,-0.771467,-0.09265899999999999,-0.623847
1629897211946,-0.77104,-0.091988,-0.624274
1629897211956,-0.770735,-0.091866,-0.623115
1629897211965,-0.771223,-0.092537,-0.624213
1629897211975,-0.77043,-0.093696,-0.623298
1629897211984,-0.77043,-0.093391,-0.624091
1629897211994,-0.770247,-0.09333,-0.624213
1629897212004,-0.770735,-0.09333,-0.623786
1629897212013,-0.770308,-0.092781,-0.62342
1629897212023,-0.77043,-0.091378,-0.623725
1629897212032,-0.770491,-0.091561,-0.623237
1629897212042,-0.771101,-0.092964,-0.622505
1629897212052,-0.770735,-0.09394,-0.622688
1629897212061,-0.769881,-0.094916,-0.622322
1629897212071,-0.769576,-0.096075,-0.6222
1629897212080,-0.770796,-0.096075,-0.622627
1629897212090,-0.770552,-0.097661,-0.623115
1629897212100,-0.770186,-0.097234,-0.623481
1629897212109,-0.770796,-0.09790499999999999,-0.623054
1629897212119,-0.771223,-0.09820999999999999,-0.62281
1629897212128,-0.77104,-0.09790499999999999,-0.622566
1629897212138,-0.771162,-0.096685,-0.622993
1629897212148,-0.771589,-0.09528199999999999,-0.62342
1629897212157,-0.771833,-0.094794,-0.623481
1629897212167,-0.771528,-0.093696,-0.623908
1629897212176,-0.772626,-0.093147,-0.622993
1629897212186,-0.772016,-0.093025,-0.623359
1629897212196,-0.772321,-0.092598,-0.62281
1629897212205,-0.771894,-0.093391,-0.622017
1629897212215,-0.771345,-0.092598,-0.622688
1629897212224,-0.771467,-0.093879,-0.623054
1629897212234,-0.77165,-0.094245,-0.623725
1629897212244,-0.771833,-0.094001,-0.623359
1629897212253,-0.77165,-0.09467199999999999,-0.62342
1629897212263,-0.771711,-0.094794,-0.623298
1629897212272,-0.771589,-0.095038,-0.622932
1629897212282,-0.771406,-0.09436699999999999,-0.621346
1629897212292,-0.772138,-0.09272,-0.621468
1629897212301,-0.770186,-0.093391,-0.621834
1629897212311,-0.770491,-0.09497699999999999,-0.6222
1629897212320,-0.771345,-0.09516,-0.6214069999999999
1629897212330,-0.770186,-0.095526,-0.621163
1629897212340,-0.769637,-0.093208,-0.6198819999999999
1629897212349,-0.771406,-0.092598,-0.6189669999999999
1629897212359,-0.77226,-0.094855,-0.62037
1629897212368,-0.772809,-0.094733,-0.625738
1629897212378,-0.773663,-0.094184,-0.629886
1629897212388,-0.773785,-0.09265899999999999,-0.630923
1629897212397,-0.773602,-0.092171,-0.628178
1629897212407,-0.77104,-0.092842,-0.62464
1629897212416,-0.770308,-0.092903,-0.621163
1629897212426,-0.769881,-0.092232,-0.619821
1629897212436,-0.769088,-0.09235399999999999,-0.619455
1629897212445,-0.768234,-0.091378,-0.621224
1629897212455,-0.768417,-0.091378,-0.622017
1629897212464,-0.769088,-0.091866,-0.623481
1629897212474,-0.768234,-0.091683,-0.62525
1629897212484,-0.768783,-0.094184,-0.625616
1629897212493,-0.768478,-0.095038,-0.623725
1629897212503,-0.7677459999999999,-0.095953,-0.622261
1629897212512,-0.769332,-0.097417,-0.622566
1629897212522,-0.768905,-0.098454,-0.623603
1629897212532,-0.769027,-0.09820999999999999,-0.624152
1629897212541,-0.769942,-0.096624,-0.624823
1629897212551,-0.770796,-0.096014,-0.625067
1629897212560,-0.771162,-0.094794,-0.625616
1629897212570,-0.770918,-0.093086,-0.626165
1629897212580,-0.770918,-0.092598,-0.625128
1629897212589,-0.770003,-0.09113399999999999,-0.623969
1629897212599,-0.770186,-0.09143899999999999,-0.623542
1629897212608,-0.77165,-0.091683,-0.623359
1629897212618,-0.770979,-0.093025,-0.623481
1629897212628,-0.769759,-0.093513,-0.623298
1629897212637,-0.770186,-0.091805,-0.621712
1629897212647,-0.770674,-0.090402,-0.622261
1629897212656,-0.770918,-0.090829,-0.62281
1629897212666,-0.77226,-0.090768,-0.623786
1629897212676,-0.771162,-0.091622,-0.625799
1629897212685,-0.772138,-0.09204899999999999,-0.625616
1629897212695,-0.772382,-0.091927,-0.62525
1629897212704,-0.772504,-0.09235399999999999,-0.624274
1629897212714,-0.771589,-0.092781,-0.623542
1629897212724,-0.771772,-0.093147,-0.622078
1629897212733,-0.771345,-0.091927,-0.621346
1629897212743,-0.770796,-0.09204899999999999,-0.621224
1629897212752,-0.771223,-0.090829,-0.621529
1629897212762,-0.771284,-0.09089,-0.621834
1629897212772,-0.770735,-0.0915,-0.622078
1629897212781,-0.770796,-0.09089,-0.622566
1629897212791,-0.77104,-0.091317,-0.623908
1629897212800,-0.77226,-0.092171,-0.623603
1629897212810,-0.772016,-0.091988,-0.62281
1629897212820,-0.77165,-0.0915,-0.622688
1629897212829,-0.771833,-0.092171,-0.622383
1629897212839,-0.771589,-0.09143899999999999,-0.621956
1629897212848,-0.771467,-0.09235399999999999,-0.621895
1629897212858,-0.771162,-0.091622,-0.621651
1629897212868,-0.771345,-0.09089,-0.621773
1629897212877,-0.772687,-0.090768,-0.622383
1629897212887,-0.772443,-0.090463,-0.622383
1629897212896,-0.772016,-0.090158,-0.622322
1629897212906,-0.772382,-0.09028,-0.622139
1629897212916,-0.772077,-0.09089,-0.622627
1629897212925,-0.771955,-0.092476,-0.622505
1629897212935,-0.772016,-0.092232,-0.622078
1629897212944,-0.77226,-0.093879,-0.6207969999999999
1629897212954,-0.772077,-0.09467199999999999,-0.621529
1629897212964,-0.771711,-0.095099,-0.621834
1629897212973,-0.77104,-0.09455,-0.622017
1629897212983,-0.771345,-0.096014,-0.621529
1629897212992,-0.772077,-0.096014,-0.621285
1629897213002,-0.771162,-0.09516,-0.620675
1629897213012,-0.771772,-0.094855,-0.621346
1629897213021,-0.771772,-0.093452,-0.621346
1629897213031,-0.772382,-0.092598,-0.622078
1629897213040,-0.773297,-0.092293,-0.621224
1629897213050,-0.773236,-0.091256,-0.621224
1629897213060,-0.77348,-0.091683,-0.62159
1629897213069,-0.773175,-0.09143899999999999,-0.620614
1629897213079,-0.773114,-0.091683,-0.621651
1629897213088,-0.773236,-0.092293,-0.621041
1629897213098,-0.772992,-0.093513,-0.622261
1629897213108,-0.772748,-0.094184,-0.622261
1629897213117,-0.773785,-0.094184,-0.622688
1629897213127,-0.773663,-0.094489,-0.621224
1629897213136,-0.772504,-0.09497699999999999,-0.6214069999999999
1629897213146,-0.772382,-0.095221,-0.621834
1629897213156,-0.771711,-0.093757,-0.620431
1629897213165,-0.77287,-0.09143899999999999,-0.61976
1629897213175,-0.771711,-0.0915,-0.620858
1629897213184,-0.771528,-0.09394,-0.6201869999999999
1629897213194,-0.772138,-0.094245,-0.61976
1629897213204,-0.771528,-0.094001,-0.6204919999999999
1629897213213,-0.76921,-0.09272,-0.619089
1629897213223,-0.77165,-0.092598,-0.6171369999999999
1629897213232,-0.773785,-0.093574,-0.618296
1629897213242,-0.77287,-0.094489,-0.623115
1629897213252,-0.7746999999999999,-0.093879,-0.627934
1629897213261,-0.775493,-0.093818,-0.629398
1629897213271,-0.7753099999999999,-0.092964,-0.627446
1629897213280,-0.774273,-0.092232,-0.623481
1629897213290,-0.772748,-0.092171,-0.620004
1629897213300,-0.771894,-0.09235399999999999,-0.617625
1629897213309,-0.770491,-0.091073,-0.617808
1629897213319,-0.770247,-0.08973099999999999,-0.617991
1629897213328,-0.770918,-0.088572,-0.62037
1629897213338,-0.769576,-0.088999,-0.622444
1629897213348,-0.769942,-0.090402,-0.622688
1629897213357,-0.77043,-0.092171,-0.623664
1629897213367,-0.770491,-0.093757,-0.622017
1629897213376,-0.770796,-0.094855,-0.620858
1629897213386,-0.770552,-0.09589199999999999,-0.619638
1629897213396,-0.770003,-0.096624,-0.620309
1629897213405,-0.770918,-0.095709,-0.622139
1629897213415,-0.771162,-0.095831,-0.623054
1629897213424,-0.772931,-0.094916,-0.623237
1629897213434,-0.772382,-0.093025,-0.624152
1629897213444,-0.77226,-0.092598,-0.623481
1629897213453,-0.773053,-0.09113399999999999,-0.623664
1629897213463,-0.77226,-0.09028,-0.622261
1629897213472,-0.771772,-0.089853,-0.621956
1629897213482,-0.77287,-0.090585,-0.62159
1629897213492,-0.772626,-0.091622,-0.623176
1629897213501,-0.771284,-0.090646,-0.621529
1629897213511,-0.772199,-0.08845,-0.618723
1629897213520,-0.772809,-0.08967,-0.620919
1629897213530,-0.773236,-0.090768,-0.6214069999999999
1629897213540,-0.773419,-0.090585,-0.623847
1629897213549,-0.773724,-0.090951,-0.624579
1629897213559,-0.773846,-0.09211,-0.62342
1629897213568,-0.773907,-0.093269,-0.622993
1629897213578,-0.772931,-0.092781,-0.621956
1629897213588,-0.773602,-0.093086,-0.620065
1629897213597,-0.772687,-0.092293,-0.619638
1629897213607,-0.772748,-0.091195,-0.6192719999999999
1629897213616,-0.772931,-0.090707,-0.619516
1629897213626,-0.772748,-0.089609,-0.6198819999999999
1629897213636,-0.772077,-0.09113399999999999,-0.621956
1629897213645,-0.773175,-0.090463,-0.622139
1629897213655,-0.772992,-0.092232,-0.621773
1629897213664,-0.773114,-0.092537,-0.6214069999999999
1629897213674,-0.773114,-0.09272,-0.621834
1629897213684,-0.77226,-0.093452,-0.621895
1629897213693,-0.772748,-0.093574,-0.620309
1629897213703,-0.77226,-0.092964,-0.620126
1629897213712,-0.772016,-0.092171,-0.620919
1629897213722,-0.772016,-0.09235399999999999,-0.620248
1629897213732,-0.772077,-0.09113399999999999,-0.62037
1629897213741,-0.772626,-0.092232,-0.620675
1629897213751,-0.77226,-0.091805,-0.620553
1629897213760,-0.772809,-0.092415,-0.621163
1629897213770,-0.77348,-0.092476,-0.620553
1629897213780,-0.772321,-0.092293,-0.621529
1629897213789,-0.772504,-0.093086,-0.621163
1629897213799,-0.772382,-0.093818,-0.62098
1629897213808,-0.773663,-0.095526,-0.620919
1629897213818,-0.77226,-0.096319,-0.62098
1629897213828,-0.77287,-0.097112,-0.620919
1629897213837,-0.773236,-0.09759999999999999,-0.62037
1629897213847,-0.773541,-0.098088,-0.621773
1629897213856,-0.77287,-0.097234,-0.621773
1629897213866,-0.77226,-0.097478,-0.6204919999999999
1629897213876,-0.772992,-0.096258,-0.6195769999999999
1629897213885,-0.773175,-0.096075,-0.620248
1629897213895,-0.774456,-0.095221,-0.619638
1629897213904,-0.774273,-0.09394,-0.620675
1629897213914,-0.77287,-0.092842,-0.6211019999999999
1629897213924,-0.773663,-0.093147,-0.620248
1629897213933,-0.773663,-0.092842,-0.6192719999999999
1629897213943,-0.773724,-0.093208,-0.619699
1629897213952,-0.774334,-0.093147,-0.6186619999999999
1629897213962,-0.774578,-0.093574,-0.619821
1629897213972,-0.774151,-0.093818,-0.620065
1629897213981,-0.774273,-0.09455,-0.620248
1629897213991,-0.774822,-0.094794,-0.621041
1629897214000,-0.774517,-0.095221,-0.6204919999999999
1629897214010,-0.774761,-0.094306,-0.620248
1629897214020,-0.77348,-0.09406199999999999,-0.619943
1629897214029,-0.774578,-0.091378,-0.6186619999999999
1629897214039,-0.774822,-0.090524,-0.6186619999999999
1629897214048,-0.772565,-0.090707,-0.620431
1629897214058,-0.773724,-0.09204899999999999,-0.61854
1629897214068,-0.772626,-0.092476,-0.619699
1629897214077,-0.772138,-0.092293,-0.618418
1629897214087,-0.77043,-0.091561,-0.616954
1629897214096,-0.772809,-0.091622,-0.61427
1629897214106,-0.7746999999999999,-0.093147,-0.616954
1629897214116,-0.775066,-0.09516,-0.622322
1629897214125,-0.776347,-0.095099,-0.628361
1629897214135,-0.776957,-0.095038,-0.62952
1629897214144,-0.7765299999999999,-0.095343,-0.626653
1629897214154,-0.774273,-0.09558699999999999,-0.622261
1629897214164,-0.772809,-0.095465,-0.618601
1629897214173,-0.77226,-0.095953,-0.617076
1629897214183,-0.771162,-0.093696,-0.616161
1629897214192,-0.771711,-0.091927,-0.616588
1629897214202,-0.770613,-0.090402,-0.618723
1629897214212,-0.77104,-0.090036,-0.620675
1629897214221,-0.771589,-0.090585,-0.623481
1629897214231,-0.771528,-0.092476,-0.622383
1629897214240,-0.771284,-0.094123,-0.622017
1629897214250,-0.77165,-0.095404,-0.61976
1629897214260,-0.772504,-0.097234,-0.6207969999999999
1629897214269,-0.772138,-0.097722,-0.6211019999999999
1629897214279,-0.771589,-0.097844,-0.622505
1629897214288,-0.772016,-0.098149,-0.622566
1629897214298,-0.772565,-0.09698999999999999,-0.623542
1629897214308,-0.772321,-0.09589199999999999,-0.625128
1629897214317,-0.77226,-0.094794,-0.623481
1629897214327,-0.773907,-0.094611,-0.622261
1629897214336,-0.772992,-0.093818,-0.622688
1629897214346,-0.772504,-0.09467199999999999,-0.622322
1629897214356,-0.771711,-0.094855,-0.622993
1629897214365,-0.769454,-0.09497699999999999,-0.621956
1629897214375,-0.770491,-0.09455,-0.618784
1629897214384,-0.771406,-0.093513,-0.619089
1629897214394,-0.77104,-0.09455,-0.6201869999999999
1629897214404,-0.77165,-0.094611,-0.623359
1629897214413,-0.771711,-0.093635,-0.625799
1629897214423,-0.773114,-0.092903,-0.624762
1629897214432,-0.773419,-0.093391,-0.623603
1629897214442,-0.77287,-0.095343,-0.621773
1629897214452,-0.773114,-0.09589199999999999,-0.619699
1629897214461,-0.772382,-0.094733,-0.619394
1629897214471,-0.772504,-0.094794,-0.6189669999999999
1629897214480,-0.773175,-0.093452,-0.621163
1629897214490,-0.773114,-0.092598,-0.621285
1629897214500,-0.773236,-0.091317,-0.62281
1629897214509,-0.773114,-0.09113399999999999,-0.623786
1629897214519,-0.773175,-0.090219,-0.622932
1629897214528,-0.773358,-0.09113399999999999,-0.622749
1629897214538,-0.772626,-0.09113399999999999,-0.6222
1629897214548,-0.77226,-0.091622,-0.621529
1629897214557,-0.772504,-0.092232,-0.6222
1629897214567,-0.772565,-0.090829,-0.62281
1629897214576,-0.772382,-0.09143899999999999,-0.622627
1629897214586,-0.770857,-0.091256,-0.622383
1629897214596,-0.771772,-0.090219,-0.622444
1629897214605,-0.771711,-0.08973099999999999,-0.622871
1629897214615,-0.77104,-0.08906,-0.623664
1629897214624,-0.77104,-0.08906,-0.622993
1629897214634,-0.770552,-0.088755,-0.623481
1629897214644,-0.770796,-0.089365,-0.623176
1629897214653,-0.770064,-0.089853,-0.622505
1629897214663,-0.770247,-0.090707,-0.622932
1629897214672,-0.770186,-0.091195,-0.622017
1629897214682,-0.77043,-0.092537,-0.62281
1629897214692,-0.770308,-0.093025,-0.622627
1629897214701,-0.76982,-0.09455,-0.622749
1629897214711,-0.770735,-0.095221,-0.623359
1629897214720,-0.770918,-0.095526,-0.624213
1629897214730,-0.770369,-0.09467199999999999,-0.624213
1629897214740,-0.770308,-0.09497699999999999,-0.623115
1629897214749,-0.769942,-0.094794,-0.622566
1629897214759,-0.769881,-0.09406199999999999,-0.621285
1629897214768,-0.770552,-0.093208,-0.62098
1629897214778,-0.770857,-0.094184,-0.6222
1629897214788,-0.770064,-0.093696,-0.621834
1629897214797,-0.771162,-0.092781,-0.622993
1629897214807,-0.772077,-0.093147,-0.623908
1629897214816,-0.771711,-0.092903,-0.624274
1629897214826,-0.77226,-0.092171,-0.624579
1629897214836,-0.771772,-0.09113399999999999,-0.62464
1629897214845,-0.771833,-0.089853,-0.623786
1629897214855,-0.772748,-0.088999,-0.62159
1629897214864,-0.772992,-0.08942599999999999,-0.62403
1629897214874,-0.772382,-0.088755,-0.625616
1629897214884,-0.771589,-0.089609,-0.624457
1629897214893,-0.770613,-0.0915,-0.621773
1629897214903,-0.769515,-0.093086,-0.620004
1629897214912,-0.768661,-0.092415,-0.6189669999999999
1629897214922,-0.771345,-0.09211,-0.618723
1629897214932,-0.774456,-0.092537,-0.622078
1629897214941,-0.775188,-0.09455,-0.628788
1629897214951,-0.77409,-0.094855,-0.634034
1629897214960,-0.772809,-0.09528199999999999,-0.632387
1629897214970,-0.771955,-0.094916,-0.628727
1629897214980,-0.770613,-0.095343,-0.623847
1629897214989,-0.770003,-0.094794,-0.6195769999999999
1629897214999,-0.768417,-0.094184,-0.6186619999999999
1629897215008,-0.767014,-0.09272,-0.6186619999999999
1629897215018,-0.766892,-0.09211,-0.619699
1629897215028,-0.767258,-0.091073,-0.621468
1629897215037,-0.7677459999999999,-0.091256,-0.622871
1629897215047,-0.76799,-0.093025,-0.624213
1629897215056,-0.767258,-0.093879,-0.625189
1629897215066,-0.768356,-0.095404,-0.625494
1629897215076,-0.767197,-0.095953,-0.624884
1629897215085,-0.768722,-0.09589199999999999,-0.623969
1629897215095,-0.768356,-0.095648,-0.623908
1629897215104,-0.769454,-0.09455,-0.624884
1629897215114,-0.770003,-0.093879,-0.62586
1629897215124,-0.771101,-0.092842,-0.627202
1629897215133,-0.770125,-0.091378,-0.626775
1629897215143,-0.770857,-0.09143899999999999,-0.626348
1629897215152,-0.770552,-0.092842,-0.626714
1629897215162,-0.769759,-0.09272,-0.626653
1629897215172,-0.768722,-0.09333,-0.627263
1629897215181,-0.7677459999999999,-0.09406199999999999,-0.626409
1629897215191,-0.766648,-0.09265899999999999,-0.62281
1629897215200,-0.768417,-0.090219,-0.621834
1629897215210,-0.767807,-0.092171,-0.623115
1629897215220,-0.769088,-0.091622,-0.627446
1629897215229,-0.769027,-0.092171,-0.628788
1629897215239,-0.770125,-0.09204899999999999,-0.628971
1629897215248,-0.769698,-0.091622,-0.628239
1629897215258,-0.769881,-0.09174399999999999,-0.62708
1629897215268,-0.769454,-0.092537,-0.626348
1629897215277,-0.768783,-0.092781,-0.623542
1629897215287,-0.769759,-0.092903,-0.623298
1629897215296,-0.770064,-0.092476,-0.625494
1629897215306,-0.770064,-0.091805,-0.626226
1629897215316,-0.76982,-0.090646,-0.626653
1629897215325,-0.769576,-0.090402,-0.628666
1629897215335,-0.770064,-0.09028,-0.6283
1629897215344,-0.769637,-0.09028,-0.628422
1629897215354,-0.769637,-0.089548,-0.626897
1629897215364,-0.769332,-0.090158,-0.626897
1629897215373,-0.769088,-0.08942599999999999,-0.625982
1629897215383,-0.767868,-0.090707,-0.626287
1629897215392,-0.76799,-0.090768,-0.626104
1629897215402,-0.76738,-0.089487,-0.625677
1629897215412,-0.766587,-0.088938,-0.626592
1629897215421,-0.7665259999999999,-0.089182,-0.626958
1629897215431,-0.767258,-0.088328,-0.627324
1629897215440,-0.767258,-0.088938,-0.626958
1629897215450,-0.765672,-0.089182,-0.626897
1629897215460,-0.766099,-0.088694,-0.62647
1629897215469,-0.766038,-0.089304,-0.626104
1629897215479,-0.765977,-0.090951,-0.625067
1629897215488,-0.765733,-0.092781,-0.625982
1629897215498,-0.766648,-0.093879,-0.626714
1629897215508,-0.766648,-0.094245,-0.627202
1629897215517,-0.766892,-0.09467199999999999,-0.627873
1629897215527,-0.766404,-0.096136,-0.62769
1629897215536,-0.7662209999999999,-0.096197,-0.627019
1629897215546,-0.765184,-0.096563,-0.626836
1629897215556,-0.765977,-0.096929,-0.62647
1629897215565,-0.766099,-0.097478,-0.626653
1629897215575,-0.767929,-0.097356,-0.627568
1629897215584,-0.767563,-0.096746,-0.628422
1629897215594,-0.768295,-0.095648,-0.627568
1629897215604,-0.76799,-0.095831,-0.6283
1629897215613,-0.7686,-0.093269,-0.628178
1629897215623,-0.76799,-0.091378,-0.627446
1629897215632,-0.77043,-0.091622,-0.628239
1629897215642,-0.768539,-0.09143899999999999,-0.62891
1629897215652,-0.768173,-0.092781,-0.626836
1629897215661,-0.7686,-0.09333,-0.625067
1629897215671,-0.768539,-0.094611,-0.626104
1629897215680,-0.767868,-0.093818,-0.624396
1629897215690,-0.769393,-0.09272,-0.623115
1629897215700,-0.770247,-0.092476,-0.625738
1629897215709,-0.772382,-0.09406199999999999,-0.630801
1629897215719,-0.772321,-0.09455,-0.635925
1629897215728,-0.77104,-0.09516,-0.634583
1629897215738,-0.770308,-0.094245,-0.630252
1629897215748,-0.768112,-0.09467199999999999,-0.625189
1629897215757,-0.7674409999999999,-0.09467199999999999,-0.622566
1629897215767,-0.76616,-0.094611,-0.621468
1629897215776,-0.764574,-0.091195,-0.62098
1629897215786,-0.765062,-0.08973099999999999,-0.621346
1629897215796,-0.765123,-0.088389,-0.623725
1629897215805,-0.766648,-0.087718,-0.625433
1629897215815,-0.766282,-0.088328,-0.626958
1629897215824,-0.766282,-0.090219,-0.626226
1629897215834,-0.767014,-0.091317,-0.625799
1629897215844,-0.7674409999999999,-0.091317,-0.624396
1629897215853,-0.76799,-0.09211,-0.624762
1629897215863,-0.769515,-0.09204899999999999,-0.625738
1629897215872,-0.769088,-0.091683,-0.62647
1629897215882,-0.770308,-0.091012,-0.62769
1629897215892,-0.770613,-0.089914,-0.627934
1629897215901,-0.770247,-0.089548,-0.627568
1629897215911,-0.77043,-0.089243,-0.627873
1629897215920,-0.770125,-0.089182,-0.626714
1629897215930,-0.770247,-0.089243,-0.626226
1629897215940,-0.769698,-0.08942599999999999,-0.626653
1629897215949,-0.770613,-0.08967,-0.626653
1629897215959,-0.768173,-0.090341,-0.627324
1629897215968,-0.7671359999999999,-0.089365,-0.624213
1629897215978,-0.768234,-0.08845,-0.6211019999999999
1629897215988,-0.769637,-0.088938,-0.621773
1629897215997,-0.770308,-0.08942599999999999,-0.625738
1629897216007,-0.770613,-0.088023,-0.629764
1629897216016,-0.772504,-0.08784,-0.631228
1629897216026,-0.772382,-0.086742,-0.628971
1629897216036,-0.771345,-0.08820599999999999,-0.625738
1629897216045,-0.771894,-0.089182,-0.624518
1629897216055,-0.770308,-0.090341,-0.623908
1629897216064,-0.771101,-0.090646,-0.624213
1629897216074,-0.770674,-0.09028,-0.625433
1629897216084,-0.770613,-0.089304,-0.625555
1629897216093,-0.769637,-0.088572,-0.62708
1629897216103,-0.769698,-0.087352,-0.627568
1629897216112,-0.768905,-0.08680299999999999,-0.627263
1629897216122,-0.769393,-0.088023,-0.626531
1629897216132,-0.76982,-0.088145,-0.625006
1629897216141,-0.768295,-0.086986,-0.624579
1629897216151,-0.768356,-0.087291,-0.625006
1629897216160,-0.768661,-0.087718,-0.624457
1629897216170,-0.767624,-0.087474,-0.623786
1629897216180,-0.76738,-0.087474,-0.624335
1629897216189,-0.767807,-0.087779,-0.624823
1629897216199,-0.767929,-0.087047,-0.62708
1629897216208,-0.768234,-0.08680299999999999,-0.626836
1629897216218,-0.7686,-0.086437,-0.627141
1629897216228,-0.768478,-0.08497299999999999,-0.626165
1629897216237,-0.7677459999999999,-0.085766,-0.625189
1629897216247,-0.767563,-0.086559,-0.624091
1629897216256,-0.768234,-0.088023,-0.624152
1629897216266,-0.768539,-0.089243,-0.62464
1629897216276,-0.7686,-0.090951,-0.62525
1629897216285,-0.769454,-0.090768,-0.626958
1629897216295,-0.769149,-0.090707,-0.626714
1629897216304,-0.769027,-0.091927,-0.626531
1629897216314,-0.768966,-0.092293,-0.626348
1629897216324,-0.768722,-0.092171,-0.625006
1629897216333,-0.768417,-0.092598,-0.625189
1629897216343,-0.768417,-0.09113399999999999,-0.625494
1629897216352,-0.769027,-0.091073,-0.625433
1629897216362,-0.769332,-0.09113399999999999,-0.625189
1629897216372,-0.770308,-0.091195,-0.626226
1629897216381,-0.769881,-0.09028,-0.626714
1629897216391,-0.770186,-0.08973099999999999,-0.625738
1629897216400,-0.770369,-0.088328,-0.62586
1629897216410,-0.770247,-0.088084,-0.625189
1629897216420,-0.771528,-0.08649799999999999,-0.624823
1629897216429,-0.771284,-0.08662,-0.626165
1629897216439,-0.770735,-0.088328,-0.625799
1629897216448,-0.770064,-0.088755,-0.626043
1629897216458,-0.769759,-0.089792,-0.626043
1629897216468,-0.768417,-0.089304,-0.624152
1629897216477,-0.76921,-0.088755,-0.620919
1629897216487,-0.771589,-0.088755,-0.621651
1629897216496,-0.772016,-0.090585,-0.626653
1629897216506,-0.771772,-0.09028,-0.631472
1629897216516,-0.771833,-0.088999,-0.633973
1629897216525,-0.772687,-0.088267,-0.630801
1629897216535,-0.77043,-0.08851099999999999,-0.626714
1629897216544,-0.769454,-0.089304,-0.622505
1629897216554,-0.768539,-0.088938,-0.621346
1629897216564,-0.767258,-0.08881599999999999,-0.620675
1629897216573,-0.767563,-0.087718,-0.6207969999999999
1629897216583,-0.766648,-0.08588799999999999,-0.6222
1629897216592,-0.767624,-0.086132,-0.623847
1629897216602,-0.767563,-0.08601,-0.626165
