timestamp,ax,ay,az
1629800454438,-0.094794,0.938973,0.305183
1629800454448,-0.09455,0.939461,0.304512
1629800454458,-0.095526,0.939583,0.303353
1629800454467,-0.094794,0.938607,0.301645
1629800454477,-0.09516,0.9417179999999999,0.302621
1629800454486,-0.095099,0.944036,0.301706
1629800454496,-0.094306,0.9459879999999999,0.302133
1629800454506,-0.096868,0.947452,0.304512
1629800454515,-0.097966,0.946415,0.30256
1629800454525,-0.097417,0.9441579999999999,0.30195
1629800454534,-0.098698,0.943365,0.302133
1629800454544,-0.10187,0.940803,0.30439
1629800454554,-0.104493,0.939339,0.305732
1629800454563,-0.105652,0.939888,0.309148
1629800454573,-0.105408,0.940132,0.312259
1629800454582,-0.105469,0.938546,0.31354
1629800454592,-0.106262,0.9359839999999999,0.311344
1629800454602,-0.10376099999999999,0.935435,0.30963599999999997
1629800454611,-0.102602,0.935618,0.30866
1629800454621,-0.101382,0.93635,0.30866
1629800454630,-0.098576,0.935618,0.30866
1629800454640,-0.097112,0.936472,0.30780599999999997
1629800454650,-0.09577,0.9368989999999999,0.308233
1629800454659,-0.093696,0.9365939999999999,0.307684
1629800454669,-0.093818,0.93574,0.30719599999999997
1629800454678,-0.091866,0.9356789999999999,0.30683
1629800454688,-0.089853,0.934398,0.30683
1629800454698,-0.088572,0.934398,0.306525
1629800454707,-0.08820599999999999,0.9344589999999999,0.305122
1629800454717,-0.086864,0.935313,0.30622
1629800454726,-0.08588799999999999,0.935862,0.305915
1629800454736,-0.085339,0.936716,0.304634
1629800379780,-0.162077,0.931653,0.302987
1629800379789,-0.160735,0.931165,0.303353
1629800379799,-0.161223,0.930982,0.30384099999999997
1629800379809,-0.160003,0.930982,0.30378
1629800379818,-0.15982,0.931287,0.304268
1629800379828,-0.159942,0.929945,0.304695
1629800379837,-0.16036899999999998,0.930616,0.303414
1629800379847,-0.15982,0.931958,0.303658
1629800379857,-0.158966,0.93269,0.302255
1629800379866,-0.15799,0.9335439999999999,0.302499
1629800379876,-0.15677,0.933788,0.301462
1629800379885,-0.157014,0.934825,0.300242
1629800379895,-0.156343,0.935191,0.301096
1629800379905,-0.157075,0.9368989999999999,0.302316
1629800379914,-0.157258,0.936655,0.302926
1629800379924,-0.157258,0.936716,0.301828
1629800379933,-0.157563,0.937326,0.304024
1629800379943,-0.157624,0.934703,0.301401
1629800379953,-0.157746,0.932995,0.298656
1629800379962,-0.157624,0.932751,0.299937
1629800379972,-0.159576,0.93147,0.302072
1629800379981,-0.159515,0.930982,0.304634
1629800379991,-0.15921,0.930677,0.305732
1629800380001,-0.160308,0.92964,0.304512
1629800380010,-0.160491,0.928725,0.30317
1629800380020,-0.15975899999999998,0.9292739999999999,0.302621
1629800380029,-0.160003,0.9289689999999999,0.301828
1629800380039,-0.159637,0.929945,0.300791
1629800380049,-0.158478,0.9304939999999999,0.300913
1629800380058,-0.158356,0.931531,0.300608
1629800380068,-0.159942,0.932202,0.30195
1629800380077,-0.15982,0.93391,0.30317
1629800380087,-0.159515,0.934215,0.30317
1629800380097,-0.161162,0.934276,0.302499
1629800380106,-0.15982,0.9335439999999999,0.301401
1629800380116,-0.160003,0.9335439999999999,0.302926
1629800380125,-0.159942,0.933971,0.301706
1629800380135,-0.16006399999999998,0.934886,0.302621
1629800380145,-0.159393,0.93452,0.302987
1629800380154,-0.160003,0.932385,0.302316
1629800380164,-0.158966,0.9341539999999999,0.301157
1629800380173,-0.15914899999999998,0.933605,0.301401
1629800380183,-0.15853899999999999,0.931836,0.301828
1629800380193,-0.157502,0.933788,0.301828
1629800380202,-0.157746,0.9338489999999999,0.301828
1629800380212,-0.157136,0.931958,0.300974
1629800380221,-0.156404,0.93269,0.300547
1629800380231,-0.155733,0.932263,0.299754
1629800380241,-0.156648,0.932141,0.300547
1629800380250,-0.156648,0.930921,0.30134
1629800380260,-0.156526,0.931165,0.301096
1629800380269,-0.157807,0.93147,0.302682
1629800380279,-0.15792899999999999,0.931226,0.300852
1629800380289,-0.156648,0.933117,0.30134
1629800380298,-0.158661,0.9326289999999999,0.300852
1629800380308,-0.158417,0.931348,0.301096
1629800380317,-0.158722,0.932751,0.300242
1629800380327,-0.15853899999999999,0.933178,0.301096
1629800380337,-0.158661,0.9338489999999999,0.301218
1629800380346,-0.158783,0.9323239999999999,0.301462
1629800380356,-0.15823399999999999,0.93269,0.300181
1629800380365,-0.157075,0.9332389999999999,0.300547
1629800380375,-0.156465,0.9314089999999999,0.2989
1629800380385,-0.157319,0.9311039999999999,0.297741
1629800380394,-0.157685,0.9307989999999999,0.297253
1629800380404,-0.157868,0.93208,0.299022
1629800380413,-0.158417,0.934215,0.299876
1629800380423,-0.157685,0.935313,0.301706
1629800380433,-0.157746,0.936228,0.300913
1629800380442,-0.157746,0.935191,0.299266
1629800380452,-0.156648,0.93391,0.297192
1629800380461,-0.156892,0.934215,0.297192
1629800380471,-0.15677,0.937143,0.29670399999999997
1629800380481,-0.156282,0.9372039999999999,0.29951
1629800380490,-0.154757,0.936777,0.298473
1629800380500,-0.155611,0.9362889999999999,0.29829
1629800380509,-0.153781,0.937936,0.2989
1629800380519,-0.15494,0.937143,0.300425
1629800380529,-0.15512299999999998,0.936167,0.298168
1629800380538,-0.153415,0.936106,0.29646
1629800380548,-0.153537,0.934886,0.296948
1629800380557,-0.152866,0.9341539999999999,0.295972
1629800380567,-0.152744,0.934947,0.29609399999999997
1629800380577,-0.151219,0.93635,0.296155
1629800380586,-0.152622,0.936228,0.296338
1629800380596,-0.151585,0.939156,0.29731399999999997
1629800380605,-0.151951,0.93818,0.297558
1629800380615,-0.151646,0.9365939999999999,0.29365399999999997
1629800380625,-0.152866,0.936106,0.29334899999999997
1629800380634,-0.153232,0.935618,0.296582
1629800380644,-0.154147,0.934886,0.297192
1629800380653,-0.15494,0.935008,0.299022
1629800380663,-0.155611,0.93391,0.300364
1629800380673,-0.154879,0.934398,0.300425
1629800380682,-0.15512299999999998,0.933971,0.300486
1629800380692,-0.155245,0.931897,0.300364
1629800380701,-0.155855,0.93025,0.299083
1629800380711,-0.155672,0.929945,0.29829
1629800380721,-0.155794,0.9317139999999999,0.298778
1629800380730,-0.156038,0.931836,0.299449
1629800380740,-0.156831,0.930921,0.299327
1629800380749,-0.157258,0.9317139999999999,0.300791
1629800380759,-0.156587,0.9326289999999999,0.300059
1629800380769,-0.157197,0.933056,0.30073
1629800380778,-0.15792899999999999,0.933788,0.301218
1629800380788,-0.15677,0.933666,0.300242
1629800380797,-0.156343,0.932812,0.29853399999999997
1629800380807,-0.15616,0.934093,0.298656
1629800380817,-0.156465,0.933483,0.299815
1629800380826,-0.156343,0.935008,0.299876
1629800380836,-0.156526,0.935008,0.299205
1629800380845,-0.156221,0.933727,0.2989
1629800380855,-0.155306,0.934825,0.298717
1629800380865,-0.15555,0.937387,0.298656
1629800380874,-0.155062,0.93635,0.298168
1629800380884,-0.154879,0.937082,0.298595
1629800380893,-0.154757,0.935252,0.297497
1629800380903,-0.155672,0.933666,0.296887
1629800380913,-0.154452,0.9329339999999999,0.298168
1629800380922,-0.15494,0.932873,0.298961
1629800380932,-0.155672,0.932568,0.298839
1629800380941,-0.15494,0.933727,0.300181
1629800380951,-0.15512299999999998,0.933666,0.299876
1629800380961,-0.15494,0.9323239999999999,0.299144
1629800380970,-0.15616,0.932263,0.298717
1629800380980,-0.154635,0.9329339999999999,0.298168
1629800380989,-0.15512299999999998,0.9335439999999999,0.296338
1629800380999,-0.153842,0.934337,0.296887
1629800381009,-0.15329299999999998,0.934337,0.296826
1629800381018,-0.15329299999999998,0.935435,0.295972
1629800381028,-0.152927,0.935862,0.296277
1629800381037,-0.15420799999999998,0.937448,0.29700899999999997
1629800381047,-0.153232,0.936838,0.297741
1629800381057,-0.154696,0.935862,0.298656
1629800381066,-0.154696,0.934398,0.297741
1629800381076,-0.15481799999999998,0.9333,0.295972
1629800381085,-0.155245,0.933422,0.294691
1629800381095,-0.156648,0.93269,0.296887
1629800381105,-0.15677,0.9347639999999999,0.29951
1629800381114,-0.155611,0.936411,0.30195
1629800381124,-0.155916,0.934703,0.302316
1629800381133,-0.155428,0.934276,0.300425
1629800381143,-0.15555,0.934276,0.299876
1629800381153,-0.15433,0.9329339999999999,0.299571
1629800381162,-0.15372,0.932812,0.298839
1629800381172,-0.153781,0.931592,0.299937
1629800381181,-0.154025,0.930555,0.2989
1629800381191,-0.152866,0.9314089999999999,0.299083
1629800381201,-0.151951,0.932263,0.299876
1629800381210,-0.151524,0.932751,0.299754
1629800381220,-0.152012,0.93269,0.298351
1629800381229,-0.15067,0.933117,0.296948
1629800381239,-0.150182,0.9335439999999999,0.295972
1629800381249,-0.150243,0.935435,0.296948
1629800381258,-0.150853,0.9359839999999999,0.29731399999999997
1629800381268,-0.150914,0.935923,0.29700899999999997
1629800381277,-0.150609,0.9365939999999999,0.29639899999999997
1629800381287,-0.150975,0.937631,0.298046
1629800381297,-0.151646,0.937082,0.297802
1629800381306,-0.15207299999999999,0.934215,0.292861
1629800381316,-0.151707,0.931897,0.29341
1629800381325,-0.15298799999999999,0.9335439999999999,0.29517899999999997
1629800381335,-0.153354,0.933666,0.295972
1629800381345,-0.15329299999999998,0.933788,0.297131
1629800381354,-0.153354,0.932385,0.297131
1629800381364,-0.153354,0.9338489999999999,0.296216
1629800381373,-0.154696,0.93452,0.29585
1629800381383,-0.154696,0.936838,0.295728
1629800381393,-0.154086,0.936533,0.294447
1629800381402,-0.152866,0.936045,0.292861
1629800381412,-0.153537,0.936655,0.291458
1629800381421,-0.152439,0.937387,0.292983
1629800381431,-0.153537,0.938729,0.29517899999999997
1629800381441,-0.152744,0.940681,0.297436
1629800381450,-0.15237799999999999,0.942145,0.298107
1629800381460,-0.14945,0.942206,0.29700899999999997
1629800381469,-0.148108,0.9429379999999999,0.295972
1629800381479,-0.145912,0.944402,0.295423
1629800381489,-0.144082,0.945012,0.299144
1629800381498,-0.143533,0.945744,0.302865
1629800381508,-0.139995,0.9490379999999999,0.301767
1629800381517,-0.138653,0.952942,0.29829
1629800381527,-0.137067,0.955687,0.295972
1629800381537,-0.135481,0.9557479999999999,0.29548399999999997
1629800381546,-0.135298,0.954955,0.295118
1629800381556,-0.135603,0.953674,0.294508
1629800381565,-0.135298,0.951844,0.292617
1629800381575,-0.136213,0.95038,0.292495
1629800381585,-0.13786,0.95282,0.294142
1629800381594,-0.140239,0.957029,0.297131
1629800381604,-0.142313,0.958066,0.301096
1629800381613,-0.14213,0.9563579999999999,0.30384099999999997
1629800381623,-0.144204,0.9563579999999999,0.307562
1629800381633,-0.143594,0.956785,0.30841599999999997
1629800381642,-0.143228,0.95648,0.308477
1629800381652,-0.14274,0.954345,0.309514
1629800381661,-0.14152,0.954162,0.30933099999999997
1629800381671,-0.139446,0.952576,0.30841599999999997
1629800381681,-0.136579,0.9517829999999999,0.30866
1629800381690,-0.136396,0.9514779999999999,0.308233
1629800381700,-0.134688,0.955504,0.30927
1629800381709,-0.133224,0.9551379999999999,0.313418
1629800381719,-0.133285,0.950929,0.31415
1629800381729,-0.132736,0.9444629999999999,0.314272
1629800381738,-0.132126,0.939888,0.31781
1629800381748,-0.132492,0.9335439999999999,0.322751
1629800381757,-0.133346,0.928298,0.32848499999999997
1629800381767,-0.13450499999999999,0.921771,0.33366999999999997
1629800381777,-0.133956,0.915366,0.337086
1629800381786,-0.13663999999999998,0.914207,0.338733
1629800381796,-0.137311,0.915488,0.337513
1629800381805,-0.137433,0.918355,0.337757
1629800381815,-0.13663999999999998,0.923845,0.339282
1629800381825,-0.13725,0.926346,0.339465
1629800381834,-0.137799,0.923723,0.343491
1629800381844,-0.137189,0.919453,0.34892
1629800381853,-0.139873,0.914146,0.349774
1629800381863,-0.136762,0.9104249999999999,0.354898
1629800381873,-0.13633499999999998,0.908961,0.360083
1629800381882,-0.136274,0.907436,0.36392599999999997
1629800381892,-0.13694499999999998,0.911767,0.36789099999999997
1629800381901,-0.131821,0.914634,0.370758
1629800381911,-0.131821,0.917379,0.368867
1629800381921,-0.131089,0.9195139999999999,0.366
1629800381930,-0.129442,0.917257,0.363987
1629800381940,-0.130662,0.912804,0.362706
1629800381949,-0.131272,0.910791,0.361486
1629800381959,-0.128222,0.909266,0.357582
1629800381969,-0.127612,0.907802,0.355203
1629800381978,-0.126819,0.908473,0.354166
1629800381988,-0.123769,0.908412,0.353983
1629800381997,-0.12285399999999999,0.909327,0.356057
1629800382007,-0.12395199999999999,0.9049349999999999,0.363316
1629800382017,-0.12254899999999999,0.897432,0.36844
1629800382026,-0.125477,0.894748,0.374174
1629800382036,-0.129137,0.898042,0.378505
1629800382045,-0.12932,0.899689,0.376492
1629800382055,-0.130906,0.898164,0.37332
1629800382065,-0.134078,0.902861,0.369233
1629800382074,-0.135298,0.903898,0.363804
1629800382084,-0.136152,0.902922,0.359412
1629800382093,-0.139812,0.901336,0.362218
1629800382103,-0.144936,0.901458,0.36966
1629800382113,-0.150304,0.9076799999999999,0.37533299999999997
1629800382122,-0.15555,0.909083,0.375699
1629800382132,-0.156343,0.904752,0.36972099999999997
1629800382141,-0.159271,0.896334,0.362523
1629800382151,-0.163358,0.893772,0.355447
1629800382161,-0.162443,0.888709,0.347639
1629800382170,-0.167384,0.8809009999999999,0.34233199999999997
1629800382180,-0.170373,0.876387,0.345138
1629800382189,-0.176961,0.8772409999999999,0.347883
1629800382199,-0.182634,0.879498,0.344406
1629800382209,-0.18483,0.875228,0.337452
1629800382218,-0.18531799999999998,0.867298,0.33244999999999997
1629800382228,-0.189893,0.864126,0.332206
1629800382237,-0.195261,0.867481,0.328363
1629800382247,-0.198677,0.871263,0.326228
1629800382257,-0.20075099999999999,0.87413,0.327448
1629800382266,-0.210816,0.876814,0.326899
1629800382276,-0.217099,0.87901,0.32909499999999997
1629800382285,-0.223748,0.874862,0.333914
1629800382295,-0.234118,0.868823,0.33958699999999997
1629800382305,-0.24448799999999998,0.858636,0.339648
1629800382314,-0.251564,0.843813,0.337635
1629800382324,-0.264435,0.828807,0.33958699999999997
1629800382333,-0.269742,0.817461,0.3355
1629800382343,-0.278282,0.807152,0.334829
1629800382353,-0.28731,0.8030039999999999,0.340563
1629800382362,-0.289689,0.809958,0.342759
1629800382372,-0.297436,0.833016,0.343735
1629800382381,-0.304817,0.861076,0.344406
1629800382391,-0.310612,0.88084,0.34263699999999997
1629800382401,-0.31616299999999997,0.897127,0.344284
1629800382410,-0.325191,0.912682,0.347639
1629800382420,-0.337513,0.924333,0.351116
1629800382429,-0.3416,0.932446,0.351421
1629800382439,-0.346175,0.942755,0.351421
1629800382449,-0.35197,0.952881,0.354898
1629800382458,-0.35685,0.96075,0.356057
1629800382468,-0.35685,0.965996,0.356606
1629800382477,-0.354837,0.9666669999999999,0.354471
1629800382487,-0.351482,0.962946,0.348554
1629800382497,-0.34446699999999997,0.958249,0.341234
1629800382506,-0.337513,0.955382,0.338306
1629800382516,-0.333121,0.953491,0.339038
1629800382525,-0.327265,0.950746,0.33488999999999997
1629800382535,-0.32073799999999997,0.949404,0.328729
1629800382545,-0.312259,0.950624,0.32104299999999997
1629800382554,-0.30439,0.948916,0.317505
1629800382564,-0.296643,0.947086,0.31646799999999997
1629800382573,-0.288774,0.9426329999999999,0.314821
1629800382583,-0.278892,0.9365939999999999,0.317566
1629800382593,-0.270779,0.928481,0.321104
1629800382602,-0.261995,0.917135,0.324398
1629800382612,-0.25638299999999997,0.903776,0.32909499999999997
1629800382621,-0.25559,0.887977,0.332511
1629800382631,-0.252418,0.8775459999999999,0.336354
1629800382641,-0.249673,0.8705309999999999,0.34038
1629800382650,-0.249246,0.863638,0.344101
1629800382660,-0.252357,0.859673,0.34660199999999997
1629800382669,-0.252967,0.862235,0.346541
1629800382679,-0.252296,0.864858,0.34831
1629800382689,-0.254919,0.864736,0.352092
1629800382698,-0.256322,0.865956,0.356606
1629800382708,-0.258457,0.866749,0.360388
1629800382717,-0.261446,0.865407,0.362035
1629800382727,-0.266326,0.864126,0.367464
1629800382737,-0.271816,0.864309,0.372771
1629800382746,-0.275049,0.863821,0.37515
1629800382756,-0.277367,0.865041,0.374357
1629800382765,-0.277916,0.863516,0.372588
1629800382775,-0.277428,0.868152,0.372649
1629800382785,-0.273829,0.8729709999999999,0.374174
1629800382794,-0.270169,0.879559,0.378322
1629800382804,-0.268766,0.884012,0.379847
1629800382813,-0.264313,0.886208,0.380152
1629800382823,-0.257969,0.894382,0.381677
1629800382833,-0.253638,0.897859,0.379542
1629800382842,-0.245281,0.901458,0.376675
1629800382852,-0.240218,0.902678,0.371917
1629800382861,-0.235155,0.9058499999999999,0.369599
1629800382871,-0.228201,0.907863,0.36423099999999997
1629800382881,-0.221796,0.907314,0.360754
1629800382890,-0.215452,0.906582,0.35831399999999997
1629800382900,-0.21398799999999998,0.905118,0.360876
1629800382909,-0.21228,0.904691,0.360205
1629800382919,-0.211792,0.9031049999999999,0.359412
1629800382929,-0.210938,0.901458,0.358863
1629800382938,-0.21215799999999999,0.900604,0.361791
1629800382948,-0.21472,0.899689,0.36539
1629800382957,-0.217892,0.898042,0.370514
1629800382967,-0.220393,0.895236,0.375699
1629800382977,-0.223626,0.8936499999999999,0.379237
1629800382986,-0.226432,0.891698,0.382531
1629800382996,-0.228018,0.890417,0.382409
1629800383005,-0.22844499999999998,0.887489,0.381921
1629800383015,-0.229055,0.886269,0.38186
1629800383025,-0.229909,0.8857809999999999,0.380335
1629800383034,-0.230092,0.885354,0.379237
1629800383044,-0.230275,0.8845609999999999,0.379786
1629800383053,-0.22972599999999999,0.88389,0.379359
1629800383063,-0.22997,0.884195,0.380274
1629800383073,-0.230458,0.88511,0.384544
1629800383082,-0.232959,0.8824259999999999,0.386862
1629800383092,-0.231922,0.8790709999999999,0.386496
1629800383101,-0.233935,0.877607,0.388387
1629800383111,-0.236314,0.8772409999999999,0.389912
1629800383121,-0.23558199999999999,0.875777,0.39070499999999997
1629800383130,-0.234972,0.8748009999999999,0.391986
1629800383140,-0.235643,0.871568,0.391132
1629800383149,-0.235216,0.868213,0.391986
1629800383159,-0.23607,0.86803,0.39283999999999997
1629800383169,-0.236924,0.868884,0.395463
1629800383178,-0.238144,0.868518,0.39955
1629800383188,-0.23851,0.868152,0.400709
1629800383197,-0.238693,0.87047,0.402051
1629800383207,-0.236985,0.873032,0.40150199999999997
1629800383217,-0.237229,0.873764,0.400648
1629800383226,-0.236253,0.873825,0.398635
1629800383236,-0.234972,0.876753,0.395646
1629800383245,-0.230702,0.880657,0.391498
1629800383255,-0.231983,0.884317,0.391864
1629800383265,-0.230885,0.887672,0.389668
1629800383274,-0.227652,0.889014,0.387838
1629800383284,-0.22630999999999998,0.888892,0.385886
1629800383293,-0.223626,0.891088,0.38491
1629800383303,-0.219661,0.894016,0.383812
1629800383313,-0.22075899999999998,0.893772,0.385642
1629800383322,-0.221735,0.8954799999999999,0.388631
1629800383332,-0.221857,0.894687,0.390034
1629800383341,-0.220576,0.893162,0.389058
1629800383351,-0.21984399999999998,0.891637,0.388692
1629800383361,-0.218563,0.892491,0.388204
1629800383370,-0.216611,0.891393,0.385215
1629800383380,-0.216489,0.886757,0.380152
1629800383389,-0.21777,0.888648,0.380701
1629800383399,-0.216001,0.8906,0.37838299999999997
1629800383409,-0.21581799999999998,0.892125,0.379664
1629800383418,-0.216489,0.892308,0.384727
1629800383428,-0.218258,0.892369,0.386801
1629800383437,-0.21953899999999998,0.889929,0.388143
1629800383447,-0.217465,0.886208,0.38491
1629800383457,-0.217465,0.8842559999999999,0.382531
1629800383466,-0.220027,0.8851709999999999,0.38234799999999997
1629800383476,-0.22356499999999999,0.886147,0.383751
1629800383485,-0.22356499999999999,0.886513,0.38186
1629800383495,-0.223687,0.88633,0.37990799999999997
1629800383505,-0.222528,0.886208,0.380091
1629800383514,-0.22417499999999999,0.8885259999999999,0.383385
1629800383524,-0.225578,0.890112,0.383446
1629800383533,-0.223809,0.890356,0.384117
1629800383543,-0.224663,0.88938,0.386313
1629800383553,-0.227774,0.890966,0.389851
1629800383562,-0.227713,0.890356,0.390766
1629800383572,-0.228201,0.890661,0.39192499999999997
1629800383581,-0.229787,0.892491,0.393023
1629800383591,-0.228872,0.892979,0.390766
1629800383601,-0.228872,0.893406,0.392657
1629800383610,-0.227774,0.890661,0.392596
1629800383620,-0.225151,0.891027,0.392108
1629800383629,-0.224297,0.8891359999999999,0.390888
1629800383639,-0.22417499999999999,0.8870009999999999,0.390583
1629800383649,-0.223077,0.8845,0.39222999999999997
1629800383658,-0.223992,0.881694,0.39039999999999997
1629800383668,-0.221918,0.880047,0.38887499999999997
1629800383677,-0.219905,0.879864,0.389851
1629800383687,-0.21899,0.8805959999999999,0.389546
1629800383697,-0.218258,0.881877,0.39039999999999997
1629800383706,-0.216062,0.883097,0.389424
1629800383716,-0.21459799999999998,0.884195,0.388448
1629800383725,-0.213256,0.885964,0.387106
1629800383735,-0.214232,0.8885259999999999,0.38734999999999997
1629800383745,-0.21167,0.889868,0.386374
1629800383754,-0.210084,0.890783,0.385398
1629800383764,-0.208681,0.895297,0.387838
1629800383773,-0.206973,0.8976149999999999,0.38795999999999997
1629800383783,-0.205875,0.8976149999999999,0.388387
1629800383793,-0.202703,0.896029,0.387777
1629800383802,-0.202154,0.892674,0.386923
1629800383812,-0.202703,0.891393,0.386313
1629800383821,-0.202703,0.891698,0.385154
1629800383831,-0.200995,0.892796,0.38613
1629800383841,-0.202337,0.8894409999999999,0.386313
1629800383850,-0.198555,0.890661,0.384178
1629800383860,-0.199348,0.890661,0.384849
1629800383869,-0.200263,0.886147,0.38234799999999997
1629800383879,-0.198921,0.886025,0.380701
1629800383889,-0.199287,0.8873059999999999,0.37990799999999997
1629800383898,-0.201788,0.885842,0.381799
1629800383908,-0.20349599999999998,0.88511,0.381677
1629800383917,-0.206668,0.8830359999999999,0.3843
1629800383927,-0.20862,0.8812059999999999,0.386801
1629800383937,-0.211426,0.881633,0.389241
1629800383946,-0.214354,0.881633,0.391681
1629800383956,-0.21777,0.8799859999999999,0.391498
1629800383965,-0.2196,0.880535,0.389973
1629800383975,-0.22075899999999998,0.881145,0.388082
1629800383985,-0.224724,0.881633,0.385825
1629800383994,-0.226981,0.882365,0.391681
1629800384004,-0.228079,0.886818,0.39375499999999997
1629800384013,-0.229848,0.88755,0.393267
1629800384023,-0.23058,0.892918,0.397659
1629800384033,-0.23338599999999998,0.894504,0.403881
1629800384042,-0.233325,0.8936499999999999,0.40687
1629800384052,-0.23649699999999999,0.891698,0.409432
1629800384061,-0.238571,0.890539,0.414495
1629800384071,-0.240035,0.88755,0.41321399999999997
1629800384081,-0.241865,0.883402,0.41260399999999997
1629800384090,-0.243085,0.87962,0.412848
1629800384100,-0.24448799999999998,0.878095,0.410957
1629800384109,-0.243939,0.8738859999999999,0.408334
1629800384119,-0.243146,0.870775,0.40729699999999996
1629800384129,-0.244366,0.867542,0.40668699999999997
1629800384138,-0.242719,0.8638819999999999,0.404796
1629800384148,-0.24034,0.8632719999999999,0.403576
1629800384157,-0.238876,0.863821,0.403271
1629800384167,-0.23485,0.861808,0.401624
1629800384177,-0.23308099999999998,0.866078,0.401868
1629800384186,-0.231373,0.872483,0.40443
1629800384196,-0.23119,0.8769359999999999,0.406504
1629800384205,-0.227957,0.879925,0.39997699999999997
1629800384215,-0.225639,0.8848659999999999,0.39558499999999996
1629800384225,-0.221491,0.894748,0.389668
1629800384234,-0.21716,0.9031049999999999,0.381494
1629800384244,-0.210145,0.9107299999999999,0.372466
1629800384253,-0.20618,0.922137,0.36722
1629800384263,-0.20191,0.932751,0.36423099999999997
1629800384273,-0.197396,0.9420229999999999,0.35861899999999997
1629800384282,-0.191113,0.950136,0.352153
1629800384292,-0.184159,0.9584929999999999,0.344284
1629800384301,-0.17885199999999998,0.96441,0.334951
1629800384311,-0.17147099999999998,0.9727669999999999,0.322934
1629800384321,-0.164273,0.978074,0.312137
1629800384330,-0.156709,0.981185,0.300486
1629800384340,-0.151402,0.980819,0.29273899999999997
1629800384349,-0.14774199999999998,0.9742919999999999,0.285785
1629800384359,-0.144448,0.963922,0.279319
1629800384369,-0.139507,0.951417,0.26809499999999997
1629800384378,-0.130235,0.946415,0.260287
1629800384388,-0.131028,0.940864,0.26169
1629800384397,-0.13237,0.929518,0.266509
1629800384407,-0.136884,0.915,0.271999
1629800384417,-0.13847,0.9058499999999999,0.274866
1629800384426,-0.141032,0.897859,0.274439
1629800384436,-0.144204,0.88938,0.275232
1629800384445,-0.146156,0.88511,0.275659
1629800384455,-0.147315,0.884988,0.268888
1629800384465,-0.146766,0.890966,0.26900999999999997
1629800384474,-0.153232,0.899018,0.278953
1629800384484,-0.156953,0.905728,0.28590699999999997
1629800384493,-0.15884399999999999,0.905118,0.288774
1629800384503,-0.161406,0.899628,0.289872
1629800384513,-0.164456,0.891149,0.289262
1629800384522,-0.165066,0.8830359999999999,0.291519
1629800384532,-0.167201,0.872727,0.293105
1629800384541,-0.168482,0.866627,0.289689
1629800384551,-0.166652,0.859734,0.288652
1629800384561,-0.161833,0.8562569999999999,0.278282
1629800384570,-0.163358,0.865773,0.274805
1629800384580,-0.166469,0.877912,0.27236499999999997
1629800384589,-0.164822,0.884988,0.271267
1629800384599,-0.15738,0.887977,0.265777
1629800384609,-0.150121,0.881938,0.25742
1629800384618,-0.14621699999999999,0.876814,0.249551
1629800384628,-0.144326,0.879254,0.23985199999999998
1629800384637,-0.132065,0.911401,0.216916
1629800384647,-0.118462,0.9514779999999999,0.206119
1629800384657,-0.121146,0.985455,0.226432
1629800384666,-0.133956,1.005036,0.256078
1629800384676,-0.141459,1.001742,0.269132
1629800384685,-0.140727,0.99125,0.26657
1629800384695,-0.13541999999999998,0.986431,0.257054
1629800384705,-0.134627,0.984723,0.244915
1629800384714,-0.131028,0.983381,0.237229
1629800384724,-0.12986899999999998,0.984723,0.23247099999999998
1629800384733,-0.125599,1.008269,0.225578
1629800384743,-0.112179,1.05042,0.223504
1629800384753,-0.103273,1.084641,0.227042
1629800384762,-0.10577399999999999,1.095682,0.237046
1629800384772,-0.112118,1.091412,0.23802199999999998
1629800384781,-0.115412,1.0812249999999999,0.234728
1629800384791,-0.119987,1.075918,0.239486
1629800384801,-0.12895399999999999,1.072502,0.245769
1629800384810,-0.138836,1.072136,0.25668799999999997
1629800384820,-0.147254,1.064816,0.266204
1629800384829,-0.158112,1.050603,0.273341
1629800384839,-0.167689,1.035658,0.277855
1629800384849,-0.17763199999999998,1.020957,0.290238
1629800384858,-0.186416,1.003755,0.304634
1629800384868,-0.195078,0.984113,0.318847
1629800384877,-0.201239,0.9654469999999999,0.322324
1629800384887,-0.206363,0.952881,0.323361
1629800384897,-0.20984,0.939095,0.322507
1629800384906,-0.214171,0.922503,0.31781
1629800384916,-0.222467,0.908168,0.31646799999999997
1629800384925,-0.22972599999999999,0.892918,0.319091
1629800384935,-0.236924,0.874862,0.322934
1629800384945,-0.24522,0.859063,0.332328
1629800384954,-0.25803,0.843813,0.343735
1629800384964,-0.263154,0.83082,0.35282399999999997
1629800384973,-0.266997,0.819108,0.362096
1629800384983,-0.28365,0.8142889999999999,0.378932
1629800384993,-0.290055,0.808006,0.39131499999999997
1629800385002,-0.298656,0.8020889999999999,0.40302699999999997
1629800385012,-0.311222,0.797087,0.415227
1629800385021,-0.316102,0.789279,0.421144
1629800385031,-0.31951799999999997,0.7807999999999999,0.426512
1629800385041,-0.32757,0.7771399999999999,0.437126
1629800385050,-0.332511,0.773358,0.446703
1629800385060,-0.337513,0.771833,0.45597499999999996
1629800385069,-0.34538199999999997,0.771162,0.47207899999999997
1629800385079,-0.34648,0.770796,0.484462
1629800385089,-0.351787,0.77348,0.49489299999999997
1629800385098,-0.354776,0.776652,0.502274
1629800385108,-0.358741,0.7835449999999999,0.510326
1629800385117,-0.358436,0.787876,0.510875
1629800385127,-0.358253,0.789462,0.508679
1629800385137,-0.357765,0.788547,0.505995
1629800385146,-0.352092,0.7908649999999999,0.50264
1629800385156,-0.346236,0.802028,0.502396
1629800385165,-0.344284,0.815021,0.508618
1629800385175,-0.34038,0.819657,0.508496
1629800385185,-0.337208,0.813191,0.506117
1629800385194,-0.33855,0.804346,0.505385
1629800385204,-0.33977,0.794952,0.50203
1629800385213,-0.338611,0.790133,0.49702799999999997
1629800385223,-0.338062,0.792268,0.490074
1629800385233,-0.340929,0.799588,0.48348599999999997
1629800385242,-0.343003,0.8081889999999999,0.48409599999999997
1629800385252,-0.343979,0.817461,0.487024
1629800385261,-0.349591,0.824354,0.49105
1629800385271,-0.353678,0.826977,0.49794299999999997
1629800385281,-0.354715,0.826062,0.500688
1629800385290,-0.357277,0.823866,0.504104
1629800385300,-0.35770399999999997,0.81679,0.505141
1629800385309,-0.35587399999999997,0.8100189999999999,0.498187
1629800385319,-0.35441,0.802821,0.495625
1629800385329,-0.353373,0.797209,0.495869
1629800385338,-0.349652,0.791658,0.49733299999999997
1629800385348,-0.352397,0.787327,0.504897
1629800385357,-0.357582,0.784826,0.510143
1629800385367,-0.360266,0.779824,0.510448
1629800385377,-0.35807,0.774456,0.50386
1629800385386,-0.354715,0.774212,0.499651
1629800385396,-0.350628,0.770857,0.49050099999999996
1629800385405,-0.347334,0.765855,0.482632
1629800385415,-0.343491,0.757559,0.477813
1629800385425,-0.340258,0.755424,0.475312
1629800385434,-0.338916,0.759938,0.476898
1629800385444,-0.33733,0.7653059999999999,0.4758
1629800385453,-0.336903,0.768295,0.476471
1629800385463,-0.335744,0.767868,0.47909399999999996
1629800385473,-0.337574,0.762439,0.482815
1629800385482,-0.34080699999999997,0.759694,0.48678
1629800385492,-0.340929,0.756949,0.486597
1629800385501,-0.34221,0.755302,0.486658
1629800385511,-0.34355199999999997,0.753899,0.48562099999999997
1629800385521,-0.34538199999999997,0.756339,0.484828
1629800385530,-0.345565,0.757864,0.482998
1629800385540,-0.346236,0.760609,0.484584
1629800385549,-0.349408,0.760914,0.48983
1629800385559,-0.35221399999999997,0.765245,0.49794299999999997
1629800385569,-0.353068,0.772077,0.502457
1629800385578,-0.355142,0.777079,0.507154
1629800385588,-0.35587399999999997,0.781898,0.509533
1629800385597,-0.35685,0.787266,0.512644
1629800385607,-0.356606,0.792512,0.513864
1629800385617,-0.357582,0.79666,0.515572
1629800385626,-0.360998,0.795745,0.5164259999999999
1629800385636,-0.362035,0.795867,0.513254
1629800385645,-0.361425,0.797026,0.504958
1629800385655,-0.360144,0.8033089999999999,0.501176
1629800385665,-0.360815,0.806847,0.498797
1629800385674,-0.359839,0.81008,0.495015
1629800385684,-0.35892399999999997,0.812398,0.494527
1629800385693,-0.360266,0.8158139999999999,0.497699
1629800385703,-0.362462,0.816058,0.501786
1629800385713,-0.364109,0.810446,0.504104
1629800385722,-0.367403,0.807152,0.507032
1629800385732,-0.370148,0.8017839999999999,0.507947
1629800385741,-0.369965,0.797392,0.507703
1629800385751,-0.372893,0.7908649999999999,0.50935
1629800385761,-0.37563799999999997,0.782874,0.508618
1629800385770,-0.376309,0.7762249999999999,0.508069
1629800385780,-0.376736,0.771284,0.50813
1629800385789,-0.37576,0.769942,0.508801
1629800385799,-0.375028,0.765123,0.507032
1629800385809,-0.377041,0.7604259999999999,0.509106
1629800385818,-0.376614,0.7564,0.512339
1629800385828,-0.375028,0.7518859999999999,0.51179
1629800385837,-0.373747,0.749934,0.508496
1629800385847,-0.3721,0.7512759999999999,0.510021
1629800385857,-0.370819,0.751154,0.510509
1629800385866,-0.37088,0.752008,0.51179
1629800385876,-0.370453,0.753167,0.511424
1629800385885,-0.37002599999999997,0.754082,0.514108
1629800385895,-0.370148,0.7518859999999999,0.511912
1629800385905,-0.369294,0.750544,0.511668
1629800385914,-0.36819599999999997,0.750117,0.511485
1629800385924,-0.36819599999999997,0.752618,0.510875
1629800385933,-0.36575599999999997,0.7564609999999999,0.5133759999999999
1629800385943,-0.363865,0.761158,0.513742
1629800385953,-0.36234,0.765062,0.5173409999999999
1629800385962,-0.360388,0.768783,0.5176459999999999
1629800385972,-0.360754,0.770064,0.5225259999999999
1629800385981,-0.35953399999999996,0.772992,0.5203909999999999
1629800385991,-0.358558,0.776286,0.5219159999999999
1629800386001,-0.357643,0.778116,0.524173
1629800386010,-0.357765,0.7753099999999999,0.525637
1629800386020,-0.355691,0.774334,0.526857
1629800386029,-0.355203,0.774212,0.527162
1629800386039,-0.356118,0.773541,0.528687
1629800386049,-0.353678,0.772443,0.525393
1629800386058,-0.350933,0.770674,0.52216
1629800386068,-0.351238,0.77165,0.519964
1629800386077,-0.351116,0.776286,0.520635
1629800386087,-0.348859,0.780617,0.523624
1629800386097,-0.34709,0.7850699999999999,0.525271
1629800386106,-0.345748,0.786229,0.52765
1629800386116,-0.34465,0.787022,0.526857
1629800386125,-0.345504,0.784582,0.525759
1629800386135,-0.34599199999999997,0.7798849999999999,0.521123
1629800386145,-0.343735,0.778177,0.519232
1629800386154,-0.341966,0.779336,0.519903
1629800386164,-0.339648,0.780312,0.52216
1629800386173,-0.339282,0.7820199999999999,0.523624
1629800386183,-0.339343,0.781227,0.525515
1629800386193,-0.339038,0.781654,0.52948
1629800386202,-0.340441,0.777506,0.53253
1629800386212,-0.34050199999999997,0.777079,0.531493
1629800386221,-0.34080699999999997,0.773846,0.531859
1629800386231,-0.34446699999999997,0.765062,0.531188
1629800386241,-0.34343,0.762439,0.526674
1629800386250,-0.341844,0.762805,0.5231359999999999
1629800386260,-0.342698,0.75945,0.523502
1629800386269,-0.341783,0.758352,0.522404
1629800386279,-0.34111199999999997,0.757864,0.522282
1629800386289,-0.341356,0.75762,0.522282
1629800386298,-0.34172199999999997,0.756522,0.519842
1629800386308,-0.343491,0.754204,0.519537
1629800386317,-0.345443,0.75518,0.520635
1629800386327,-0.348249,0.7558509999999999,0.519598
1629800386337,-0.348859,0.759023,0.521184
1629800386346,-0.350018,0.762439,0.522343
1629800386356,-0.351787,0.7604259999999999,0.522709
1629800386365,-0.35190899999999997,0.759999,0.5216109999999999
1629800386375,-0.353007,0.761402,0.521062
1629800386385,-0.352641,0.766648,0.519049
1629800386394,-0.35221399999999997,0.768905,0.517585
1629800386404,-0.351665,0.772626,0.516548
1629800386413,-0.351787,0.773297,0.51423
1629800386423,-0.352031,0.772626,0.513254
1629800386433,-0.351848,0.773968,0.513132
1629800386442,-0.351299,0.775371,0.512278
1629800386452,-0.35160399999999997,0.775554,0.512339
1629800386461,-0.351787,0.775066,0.512339
1629800386471,-0.350994,0.780678,0.51118
1629800386481,-0.350506,0.784216,0.511607
1629800386490,-0.350506,0.786229,0.512522
1629800386500,-0.350567,0.784338,0.513925
1629800386509,-0.35160399999999997,0.781898,0.513742
1629800386519,-0.35282399999999997,0.781898,0.51362
1629800386529,-0.354105,0.782813,0.5136809999999999
1629800386538,-0.353373,0.784948,0.512888
1629800386548,-0.352763,0.787693,0.511058
1629800386557,-0.35190899999999997,0.790133,0.508435
1629800386567,-0.35319,0.791536,0.509716
1629800386577,-0.352336,0.792634,0.508374
1629800386586,-0.35197,0.790682,0.50752
1629800386596,-0.352275,0.7875099999999999,0.507459
1629800386605,-0.352458,0.784582,0.505568
1629800386615,-0.351482,0.784643,0.502701
1629800386625,-0.35014,0.783057,0.503372
1629800386634,-0.349469,0.782752,0.504165
1629800386644,-0.349957,0.782386,0.50447
1629800386653,-0.35014,0.780983,0.504348
1629800386663,-0.34953,0.779702,0.505202
1629800386673,-0.350506,0.779458,0.503128
1629800386682,-0.350445,0.7795799999999999,0.502579
1629800386692,-0.349164,0.779763,0.50203
1629800386701,-0.348066,0.781471,0.50264
1629800386711,-0.3477,0.7801899999999999,0.501786
1629800386721,-0.348737,0.779702,0.501664
1629800386730,-0.347883,0.7783599999999999,0.500871
1629800386740,-0.347517,0.781532,0.49946799999999997
1629800386749,-0.347395,0.783789,0.500017
1629800386759,-0.3477,0.781227,0.501847
1629800386769,-0.347517,0.780129,0.500566
1629800386778,-0.347578,0.782386,0.499407
1629800386788,-0.347761,0.780556,0.498065
1629800386797,-0.347456,0.7838499999999999,0.498919
1629800386807,-0.346846,0.786046,0.49794299999999997
1629800386817,-0.345504,0.785497,0.498431
1629800386826,-0.344894,0.7878149999999999,0.49702799999999997
1629800386836,-0.345565,0.7896449999999999,0.499529
1629800386845,-0.345748,0.7908649999999999,0.499651
1629800386855,-0.34343,0.790316,0.49885799999999997
1629800386865,-0.343796,0.790682,0.497699
1629800386874,-0.34355199999999997,0.790438,0.49702799999999997
1629800386884,-0.342454,0.793122,0.496296
1629800386893,-0.34294199999999997,0.793488,0.496357
1629800386903,-0.340746,0.794525,0.495747
1629800386913,-0.340746,0.794769,0.49654
1629800386922,-0.340746,0.794037,0.494405
1629800386932,-0.342454,0.794769,0.492514
1629800386941,-0.341478,0.795623,0.493673
1629800386951,-0.341539,0.794952,0.495625
1629800386961,-0.341905,0.793549,0.494649
1629800386970,-0.340014,0.794525,0.495442
1629800386980,-0.34282,0.793854,0.497882
1629800386989,-0.341783,0.793,0.494771
1629800386999,-0.339709,0.793915,0.49489299999999997
1629800387009,-0.340746,0.791536,0.491782
1629800387018,-0.3416,0.792024,0.49288
1629800387028,-0.34221,0.79239,0.494039
1629800387037,-0.344345,0.790377,0.495869
1629800387047,-0.343796,0.789706,0.497089
1629800387057,-0.34416199999999997,0.789462,0.498492
1629800387066,-0.345138,0.787937,0.49898
1629800387076,-0.345626,0.785741,0.496662
1629800387085,-0.34526,0.7862899999999999,0.49580799999999997
1629800387095,-0.347639,0.787876,0.49532
1629800387105,-0.344955,0.787693,0.49202599999999996
1629800387114,-0.345748,0.788608,0.489098
1629800387124,-0.34629699999999997,0.7908649999999999,0.48958599999999997
1629800387133,-0.3477,0.790804,0.491965
1629800387143,-0.34831,0.793122,0.495442
1629800387153,-0.348676,0.794464,0.49672299999999997
1629800387162,-0.346114,0.790621,0.493002
1629800387172,-0.34709,0.791536,0.493429
1629800387181,-0.347761,0.791719,0.493734
1629800387191,-0.34629699999999997,0.7920849999999999,0.491233
1629800387201,-0.34172199999999997,0.794037,0.489342
1629800387210,-0.34202699999999997,0.793366,0.488488
1629800387220,-0.339953,0.793305,0.485865
1629800387229,-0.338855,0.793488,0.483425
1629800387239,-0.33733,0.793915,0.483303
1629800387249,-0.336415,0.797636,0.4819
1629800387258,-0.33427999999999997,0.800076,0.479948
1629800387268,-0.333487,0.798673,0.478972
1629800387277,-0.33366999999999997,0.796233,0.475983
1629800387287,-0.333304,0.79849,0.475312
1629800387297,-0.331352,0.801235,0.472628
1629800387306,-0.329949,0.8051389999999999,0.471225
1629800387316,-0.328546,0.811056,0.470005
1629800387325,-0.327692,0.816546,0.470737
1629800387335,-0.328607,0.814472,0.469029
1629800387345,-0.325374,0.816607,0.4636
1629800387354,-0.323666,0.82106,0.46341699999999997
1629800387364,-0.32147,0.825269,0.46116
1629800387373,-0.320494,0.831491,0.462563
1629800387383,-0.319335,0.831979,0.46311199999999997
1629800387393,-0.315309,0.8358829999999999,0.462075
1629800387402,-0.313784,0.8325279999999999,0.460916
1629800387412,-0.315187,0.832162,0.457927
1629800387421,-0.308599,0.838872,0.457317
1629800387431,-0.304939,0.8383229999999999,0.452986
1629800387441,-0.29822899999999997,0.840336,0.446886
1629800387450,-0.295118,0.8374079999999999,0.44591
1629800387460,-0.288774,0.837164,0.443592
1629800387469,-0.285358,0.834297,0.439505
1629800387479,-0.280478,0.837774,0.440237
1629800387489,-0.274988,0.842593,0.43572299999999997
1629800387498,-0.273402,0.84546,0.431392
1629800387508,-0.267607,0.849791,0.429867
1629800387517,-0.267241,0.850279,0.42883
1629800387527,-0.262117,0.8550369999999999,0.42456
1629800387537,-0.251991,0.8711409999999999,0.42492599999999997
1629800387546,-0.259189,0.8614419999999999,0.42761
1629800387556,-0.255224,0.858209,0.421327
1629800387565,-0.254431,0.862906,0.422608
1629800387575,-0.25376,0.865529,0.418155
1629800387585,-0.247538,0.874923,0.41785
1629800387594,-0.246562,0.873642,0.41602
1629800387604,-0.24357299999999998,0.875777,0.414312
1629800387613,-0.245342,0.8720559999999999,0.41565399999999997
1629800387623,-0.244427,0.869006,0.41297
1629800387633,-0.23954699999999998,0.87413,0.41236
1629800387642,-0.24265799999999998,0.868884,0.410774
1629800387652,-0.24095,0.869799,0.409859
1629800387661,-0.240523,0.869616,0.408273
1629800387671,-0.23832699999999998,0.873337,0.408334
1629800387681,-0.235826,0.87718,0.408334
1629800387690,-0.235826,0.880474,0.409981
1629800387700,-0.23924199999999998,0.87352,0.40687
1629800387709,-0.23619199999999999,0.876204,0.40443
1629800387719,-0.232837,0.880413,0.40577199999999997
1629800387729,-0.233569,0.8784,0.40321
1629800387738,-0.233874,0.875777,0.401075
1629800387748,-0.233752,0.87718,0.402295
1629800387757,-0.232959,0.881145,0.402783
1629800387767,-0.232105,0.8827309999999999,0.403149
1629800387777,-0.232837,0.882304,0.404064
1629800387786,-0.232959,0.8827309999999999,0.403393
1629800387796,-0.23302,0.88084,0.40321
1629800387805,-0.23247099999999998,0.879437,0.404064
1629800387815,-0.229177,0.884744,0.400953
1629800387825,-0.231373,0.88145,0.401075
1629800387834,-0.23003099999999999,0.8799859999999999,0.40016
1629800387844,-0.22942099999999999,0.881694,0.400221
1629800387853,-0.228994,0.882487,0.400221
1629800387863,-0.22972599999999999,0.883768,0.401136
1629800387873,-0.226981,0.887794,0.402661
1629800387882,-0.23094599999999998,0.88328,0.401746
1629800387892,-0.23058,0.8848659999999999,0.401929
1629800387901,-0.230214,0.8824259999999999,0.4026
1629800387911,-0.230153,0.8845,0.40302699999999997
1629800387921,-0.2318,0.8821209999999999,0.40504
1629800387930,-0.231434,0.876875,0.405284
1629800387940,-0.231312,0.877424,0.404796
1629800387949,-0.231434,0.879315,0.404918
1629800387959,-0.230519,0.883158,0.40546699999999997
1629800387969,-0.231617,0.880779,0.406748
1629800387978,-0.232105,0.876448,0.405406
1629800387988,-0.231983,0.8763259999999999,0.407663
1629800387997,-0.232044,0.874923,0.407053
1629800388007,-0.233569,0.871873,0.40699199999999996
1629800388017,-0.231617,0.875472,0.406016
1629800388026,-0.23216599999999998,0.87718,0.407663
1629800388036,-0.231068,0.878949,0.40809
1629800388045,-0.233569,0.87047,0.406443
1629800388055,-0.232959,0.870287,0.406016
1629800388065,-0.23338599999999998,0.868762,0.406016
1629800388074,-0.234728,0.870592,0.406504
1629800388084,-0.23485,0.871202,0.405711
1629800388093,-0.232044,0.879193,0.407358
1629800388103,-0.235399,0.874862,0.407968
1629800388113,-0.234911,0.875045,0.407053
1629800388122,-0.23485,0.8751059999999999,0.406931
1629800388132,-0.234362,0.8741909999999999,0.40668699999999997
1629800388141,-0.235216,0.874618,0.405833
1629800388151,-0.234362,0.874069,0.405284
1629800388161,-0.232044,0.880718,0.406565
1629800388170,-0.234667,0.8790709999999999,0.407724
1629800388180,-0.233508,0.878034,0.40516199999999997
1629800388189,-0.232654,0.878095,0.405406
1629800388199,-0.233569,0.877668,0.40546699999999997
1629800388209,-0.232959,0.875167,0.40382
1629800388218,-0.23247099999999998,0.875655,0.402966
1629800388228,-0.23119,0.878339,0.404613
1629800388237,-0.232349,0.876448,0.4026
1629800388247,-0.233264,0.87596,0.40333199999999997
1629800388257,-0.232532,0.8778509999999999,0.40321
1629800388266,-0.233508,0.878034,0.40363699999999997
1629800388276,-0.232593,0.876692,0.403698
1629800388285,-0.23363,0.874679,0.402783
1629800388295,-0.23338599999999998,0.876204,0.402356
1629800388305,-0.233874,0.8787659999999999,0.402783
1629800388314,-0.23363,0.87901,0.402966
1629800388324,-0.233813,0.880535,0.40394199999999997
1629800388333,-0.23338599999999998,0.88084,0.405101
1629800388343,-0.234118,0.881389,0.406016
1629800388353,-0.234179,0.880718,0.404369
1629800388362,-0.23399599999999998,0.8796809999999999,0.402966
1629800388372,-0.233874,0.878095,0.403698
1629800388381,-0.231678,0.878217,0.403149
1629800388391,-0.230763,0.8784,0.403271
1629800388401,-0.23094599999999998,0.877912,0.40363699999999997
1629800388410,-0.230092,0.876753,0.40302699999999997
1629800388420,-0.228933,0.8763259999999999,0.40321
1629800388429,-0.22875,0.876265,0.403454
1629800388439,-0.228506,0.8775459999999999,0.40241699999999997
1629800388449,-0.227713,0.8775459999999999,0.40180699999999997
1629800388458,-0.227591,0.87718,0.401258
1629800388468,-0.22600499999999998,0.879925,0.40028199999999997
1629800388477,-0.227408,0.876692,0.40089199999999997
1629800388487,-0.228689,0.875045,0.40138
1629800388497,-0.227408,0.8769359999999999,0.402478
1629800388506,-0.227957,0.880657,0.4026
1629800388516,-0.227042,0.882792,0.403698
1629800388525,-0.22783499999999998,0.880352,0.402234
1629800388535,-0.228018,0.878278,0.401014
1629800388545,-0.228506,0.877668,0.40241699999999997
1629800388554,-0.230092,0.878217,0.403515
1629800388564,-0.228689,0.877058,0.402966
1629800388573,-0.22875,0.876265,0.40321
1629800388583,-0.22844499999999998,0.87535,0.401258
1629800388593,-0.226798,0.875655,0.400526
1629800388602,-0.226981,0.87596,0.400465
1629800388612,-0.228079,0.877607,0.401136
1629800388621,-0.22661499999999998,0.879498,0.402661
1629800388631,-0.226554,0.8796809999999999,0.401624
1629800388641,-0.225334,0.881328,0.400526
1629800388650,-0.224358,0.882975,0.40138
1629800388660,-0.224968,0.8818159999999999,0.40211199999999997
1629800388669,-0.223809,0.88145,0.40119699999999997
1629800388679,-0.224602,0.882853,0.40180699999999997
1629800388689,-0.223931,0.888099,0.403698
1629800388698,-0.224358,0.886513,0.40443
1629800388708,-0.224053,0.88694,0.402295
1629800388717,-0.22356499999999999,0.8851709999999999,0.401929
1629800388727,-0.221125,0.8845,0.400404
1629800388737,-0.222162,0.886452,0.402051
1629800388746,-0.224419,0.887672,0.403515
1629800388756,-0.223016,0.889197,0.40272199999999997
1629800388765,-0.22167399999999998,0.891088,0.40089199999999997
1629800388775,-0.224846,0.889014,0.40138
1629800388785,-0.225578,0.88633,0.399794
1629800388794,-0.226676,0.884378,0.398513
1629800388804,-0.228933,0.884073,0.40016
1629800388813,-0.23094599999999998,0.884073,0.402173
1629800388823,-0.234057,0.881267,0.403576
1629800388833,-0.23741199999999998,0.879803,0.404918
1629800388842,-0.240279,0.8784,0.406504
1629800388852,-0.243329,0.874008,0.408578
1629800388861,-0.24509799999999998,0.870104,0.409005
1629800388871,-0.246379,0.868335,0.410652
1629800388881,-0.24729399999999999,0.868945,0.411628
1629800388890,-0.250771,0.86437,0.412421
1629800388900,-0.250222,0.860649,0.41199399999999997
1629800388909,-0.251137,0.861076,0.410713
1629800388919,-0.25132,0.8626619999999999,0.413031
1629800388929,-0.250405,0.862418,0.414556
1629800388938,-0.251198,0.864675,0.417118
1629800388948,-0.251869,0.866505,0.41900899999999996
1629800388957,-0.250893,0.866383,0.419558
1629800388967,-0.248331,0.864919,0.417423
1629800388977,-0.249612,0.8620519999999999,0.417423
1629800388986,-0.247477,0.861015,0.41724
1629800388996,-0.24631799999999998,0.8623569999999999,0.418277
1629800389005,-0.245037,0.863821,0.418338
1629800389015,-0.242536,0.86498,0.417545
1629800389025,-0.241316,0.863455,0.416386
1629800389034,-0.23973,0.862174,0.412482
1629800389044,-0.23668,0.861503,0.409005
1629800389053,-0.231129,0.8586969999999999,0.403393
1629800389063,-0.22997,0.8562569999999999,0.397537
1629800389073,-0.230397,0.863516,0.39955
1629800389082,-0.23241,0.87047,0.402844
1629800389092,-0.231434,0.875289,0.39967199999999997
1629800389101,-0.23033599999999999,0.8729709999999999,0.395219
1629800389111,-0.23125099999999998,0.873642,0.395036
1629800389121,-0.232715,0.87352,0.394182
1629800389130,-0.23485,0.8772409999999999,0.393816
1629800389140,-0.238998,0.87962,0.394914
1629800389149,-0.239181,0.884927,0.395646
1629800389159,-0.241011,0.887367,0.398147
1629800389169,-0.24522,0.887184,0.398513
1629800389178,-0.24509799999999998,0.8857809999999999,0.394609
1629800389188,-0.244244,0.881145,0.38917999999999997
1629800389197,-0.245952,0.879925,0.386557
1629800389207,-0.24912399999999998,0.8830359999999999,0.390217
1629800389217,-0.249185,0.886757,0.393877
1629800389226,-0.250771,0.884683,0.395463
1629800389236,-0.24820899999999999,0.888709,0.397842
1629800389245,-0.24820899999999999,0.886147,0.397964
1629800389255,-0.247477,0.880962,0.395097
1629800389265,-0.244427,0.878278,0.39222999999999997
1629800389274,-0.24204799999999999,0.878217,0.389119
1629800389284,-0.240584,0.877668,0.38674
1629800389293,-0.235948,0.879559,0.38552
1629800389303,-0.23424,0.881633,0.383934
1629800389313,-0.231678,0.886025,0.38186
1629800389322,-0.229787,0.887123,0.38173799999999997
1629800389332,-0.227652,0.889197,0.38112799999999997
1629800389341,-0.224907,0.892918,0.382104
1629800389351,-0.224541,0.892064,0.378932
1629800389361,-0.224236,0.893223,0.377285
1629800389370,-0.223931,0.894138,0.37942
1629800389380,-0.224053,0.895846,0.380274
1629800389389,-0.22326,0.898347,0.382775
1629800389399,-0.224541,0.8991399999999999,0.385825
1629800389409,-0.227896,0.898774,0.388448
1629800389418,-0.226371,0.898347,0.386984
1629800389428,-0.227774,0.896029,0.387594
1629800389437,-0.22844499999999998,0.896334,0.388753
1629800389447,-0.228933,0.896639,0.390034
1629800389457,-0.228506,0.8942599999999999,0.390217
1629800389466,-0.227408,0.892857,0.390888
1629800389476,-0.227469,0.891881,0.392718
1629800389485,-0.22936,0.890783,0.394121
1629800389495,-0.228689,0.887672,0.394609
1629800389505,-0.228262,0.88572,0.39375499999999997
1629800389514,-0.22875,0.884378,0.39375499999999997
1629800389524,-0.22752999999999998,0.883158,0.39222999999999997
1629800389533,-0.227469,0.880474,0.39161999999999997
1629800389543,-0.226371,0.878705,0.391071
1629800389553,-0.227042,0.879925,0.391498
1629800389562,-0.22691999999999998,0.8787659999999999,0.39070499999999997
1629800389572,-0.226249,0.879864,0.390888
1629800389581,-0.225883,0.8809009999999999,0.390461
1629800389591,-0.227042,0.879559,0.389973
1629800389601,-0.22752999999999998,0.880047,0.39039999999999997
1629800389610,-0.227896,0.879559,0.390217
1629800389620,-0.227042,0.880474,0.389607
1629800389629,-0.227164,0.8809009999999999,0.38917999999999997
1629800389639,-0.226554,0.88328,0.390522
1629800389649,-0.228018,0.880108,0.390156
1629800389658,-0.228323,0.880047,0.390156
1629800389668,-0.22936,0.881999,0.39039999999999997
1629800389677,-0.228994,0.879864,0.389912
1629800389687,-0.228384,0.884073,0.388204
1629800389697,-0.229177,0.882609,0.389241
1629800389706,-0.227896,0.8818159999999999,0.390156
1629800389716,-0.22875,0.8833409999999999,0.39009499999999997
1629800389725,-0.22942099999999999,0.884378,0.390827
1629800389735,-0.228079,0.8836459999999999,0.390827
1629800389745,-0.228811,0.88511,0.389729
1629800389754,-0.228323,0.886818,0.389058
1629800389764,-0.227652,0.8863909999999999,0.390034
1629800389773,-0.227957,0.8870009999999999,0.39161999999999997
1629800389783,-0.228567,0.88755,0.391559
1629800389793,-0.229177,0.886879,0.392169
1629800389802,-0.229238,0.88633,0.392108
1629800389812,-0.228323,0.885659,0.390156
1629800389821,-0.228079,0.885293,0.389546
1629800389831,-0.227896,0.885293,0.39131499999999997
1629800389841,-0.229116,0.8854759999999999,0.391132
1629800389850,-0.228994,0.887062,0.390339
1629800389860,-0.228872,0.8882209999999999,0.391132
1629800389869,-0.229055,0.8885259999999999,0.393023
1629800389879,-0.22942099999999999,0.890661,0.395036
1629800389889,-0.22942099999999999,0.8891359999999999,0.394609
1629800389898,-0.229238,0.888648,0.392169
1629800389908,-0.22972599999999999,0.885903,0.38948499999999997
1629800389917,-0.230153,0.883219,0.388753
1629800389927,-0.229604,0.882853,0.39039999999999997
1629800389937,-0.229848,0.882548,0.39100999999999997
1629800389946,-0.231007,0.881328,0.390949
1629800389956,-0.231678,0.8805959999999999,0.392352
1629800389965,-0.231373,0.880108,0.39253499999999997
1629800389975,-0.231983,0.879559,0.393023
1629800389985,-0.232227,0.879498,0.393206
1629800389994,-0.232898,0.878583,0.39222999999999997
1629800390004,-0.233569,0.879132,0.392169
1629800390013,-0.23277599999999998,0.8784,0.392169
1629800390023,-0.232837,0.877668,0.390522
1629800390033,-0.23308099999999998,0.878705,0.392047
1629800390042,-0.233264,0.880413,0.393328
1629800390052,-0.233203,0.881694,0.393084
1629800390061,-0.232898,0.8830359999999999,0.394914
1629800390071,-0.234667,0.880962,0.391742
1629800390081,-0.235216,0.878583,0.39039999999999997
1629800390090,-0.234362,0.880779,0.392962
1629800390100,-0.235033,0.880657,0.391742
1629800390109,-0.234179,0.8824259999999999,0.39436499999999997
1629800390119,-0.233874,0.882548,0.39558499999999996
1629800390129,-0.233813,0.883219,0.39375499999999997
1629800390138,-0.234179,0.882914,0.391193
1629800390148,-0.233508,0.884134,0.391132
1629800390157,-0.232532,0.8839509999999999,0.389729
1629800390167,-0.232288,0.883768,0.389729
1629800390177,-0.23241,0.882914,0.388814
1629800390186,-0.23119,0.883768,0.389607
1629800390196,-0.232532,0.884805,0.391498
1629800390205,-0.232715,0.885232,0.39100999999999997
1629800390215,-0.232288,0.885354,0.392779
1629800390225,-0.233142,0.88572,0.392108
1629800390234,-0.232288,0.884927,0.391742
1629800390244,-0.231678,0.8857809999999999,0.390583
1629800390253,-0.231922,0.8860859999999999,0.390339
1629800390263,-0.232654,0.8860859999999999,0.390217
1629800390273,-0.23277599999999998,0.88694,0.39131499999999997
1629800390282,-0.23247099999999998,0.887062,0.38978999999999997
1629800390292,-0.232898,0.8860859999999999,0.39009499999999997
1629800390301,-0.233752,0.8848659999999999,0.391254
1629800390311,-0.23302,0.883768,0.391132
1629800390321,-0.23338599999999998,0.882853,0.39131499999999997
1629800390330,-0.233447,0.881328,0.391498
1629800390340,-0.234179,0.8805959999999999,0.390949
1629800390349,-0.234057,0.88023,0.390888
1629800390359,-0.23460599999999998,0.880413,0.391742
1629800390369,-0.234728,0.879925,0.39222999999999997
1629800390378,-0.235216,0.878705,0.39192499999999997
1629800390388,-0.235521,0.877607,0.391681
1629800390397,-0.23680199999999998,0.87779,0.39100999999999997
1629800390407,-0.23558199999999999,0.877912,0.390644
1629800390417,-0.235277,0.879193,0.389851
1629800390426,-0.23546,0.879864,0.390888
1629800390436,-0.234423,0.884927,0.392047
1629800390445,-0.235094,0.8842559999999999,0.393633
1629800390455,-0.235643,0.882182,0.392047
1629800390465,-0.23588699999999999,0.881084,0.390888
1629800390474,-0.235094,0.8836459999999999,0.39070499999999997
1629800390484,-0.235643,0.8824259999999999,0.391498
1629800390493,-0.236314,0.881389,0.391803
1629800390503,-0.23546,0.881145,0.390888
1629800390513,-0.235826,0.882182,0.390766
1629800390522,-0.23485,0.883097,0.392108
1629800390532,-0.235521,0.882365,0.390217
1629800390541,-0.235094,0.8824259999999999,0.390583
1629800390551,-0.234972,0.882914,0.390827
1629800390561,-0.235948,0.882609,0.39039999999999997
1629800390570,-0.23619199999999999,0.881633,0.389119
1629800390580,-0.237046,0.882243,0.389607
1629800390589,-0.237534,0.882243,0.390339
1629800390599,-0.237473,0.883768,0.391437
1629800390609,-0.236741,0.88755,0.39253499999999997
1629800390618,-0.239181,0.885293,0.393328
1629800390628,-0.238449,0.884622,0.391437
1629800390637,-0.236985,0.883219,0.388326
1629800390647,-0.236924,0.883524,0.388814
1629800390657,-0.23558199999999999,0.886452,0.389058
1629800390666,-0.236253,0.884805,0.390583
1629800390676,-0.236314,0.882243,0.387472
1629800390685,-0.235399,0.8833409999999999,0.38765499999999997
1629800390695,-0.23668,0.88267,0.389302
1629800390705,-0.23668,0.881328,0.388997
1629800390714,-0.235826,0.880413,0.389302
1629800390724,-0.237473,0.880047,0.388448
1629800390733,-0.23729,0.879742,0.386984
1629800390743,-0.237839,0.878583,0.386679
1629800390753,-0.238449,0.8824259999999999,0.388692
1629800390762,-0.238571,0.88511,0.390278
1629800390772,-0.23802199999999998,0.8860859999999999,0.389302
1629800390781,-0.239181,0.883463,0.389668
1629800390791,-0.239669,0.883158,0.38826499999999997
1629800390801,-0.240523,0.88267,0.388692
1629800390810,-0.241072,0.8830359999999999,0.389058
1629800390820,-0.239974,0.885598,0.390461
1629800390829,-0.240218,0.883768,0.390278
1629800390839,-0.240096,0.883768,0.39131499999999997
1629800390849,-0.240584,0.88145,0.389912
1629800390858,-0.24143799999999999,0.8821209999999999,0.389119
1629800390868,-0.240401,0.879193,0.387716
1629800390877,-0.23924199999999998,0.878278,0.38795999999999997
1629800390887,-0.23973,0.876753,0.38795999999999997
1629800390897,-0.240218,0.877424,0.387777
1629800390906,-0.239669,0.8784609999999999,0.389363
1629800390916,-0.239608,0.8790709999999999,0.38948499999999997
1629800390925,-0.241682,0.879864,0.390156
1629800390935,-0.241499,0.880108,0.391193
1629800390945,-0.24143799999999999,0.8805959999999999,0.390156
1629800390954,-0.241011,0.8845,0.39039999999999997
1629800390964,-0.242536,0.8854759999999999,0.393572
1629800390973,-0.244305,0.883585,0.39222999999999997
1629800390983,-0.240889,0.883829,0.389546
1629800390993,-0.240767,0.8851709999999999,0.38978999999999997
1629800391002,-0.241804,0.884134,0.38826499999999997
1629800391012,-0.241316,0.885293,0.389363
1629800391021,-0.240645,0.882914,0.38826499999999997
1629800391031,-0.24143799999999999,0.881572,0.388692
1629800391041,-0.241194,0.8824259999999999,0.38795999999999997
1629800391050,-0.240828,0.881633,0.38765499999999997
1629800391060,-0.240584,0.880779,0.387533
1629800391069,-0.239608,0.88084,0.386984
1629800391079,-0.239059,0.881023,0.386191
1629800391089,-0.23973,0.8815109999999999,0.386679
1629800391098,-0.238876,0.880413,0.386923
1629800391108,-0.239974,0.8799859999999999,0.385703
1629800391117,-0.239608,0.8818159999999999,0.386252
1629800391127,-0.239364,0.88328,0.385032
1629800391137,-0.243085,0.881938,0.388509
1629800391146,-0.240584,0.883402,0.387106
1629800391156,-0.240584,0.884805,0.38856999999999997
1629800391165,-0.240218,0.885354,0.387228
1629800391175,-0.239974,0.883707,0.386984
1629800391185,-0.23924199999999998,0.883707,0.384117
1629800391194,-0.240401,0.883524,0.385215
1629800391204,-0.239913,0.883768,0.383934
1629800391213,-0.238571,0.882548,0.383324
1629800391223,-0.237595,0.881938,0.383507
1629800391233,-0.23741199999999998,0.8830359999999999,0.38173799999999997
1629800391242,-0.23893699999999998,0.8839509999999999,0.382836
1629800391252,-0.237595,0.885354,0.383751
1629800391261,-0.23863199999999998,0.8863909999999999,0.381982
1629800391271,-0.23802199999999998,0.884073,0.38369
1629800391281,-0.237595,0.8842559999999999,0.383202
1629800391290,-0.237839,0.884073,0.381616
1629800391300,-0.23832699999999998,0.886025,0.38173799999999997
1629800391309,-0.238083,0.887184,0.383995
1629800391319,-0.2379,0.888038,0.383202
1629800391329,-0.240218,0.889197,0.386679
1629800391338,-0.237534,0.889624,0.383446
1629800391348,-0.23741199999999998,0.888282,0.382287
1629800391357,-0.23741199999999998,0.889075,0.382592
1629800391367,-0.235704,0.886818,0.379969
1629800391377,-0.235094,0.88572,0.379054
1629800391386,-0.23363,0.8860859999999999,0.37868799999999997
1629800391396,-0.232532,0.887367,0.379176
1629800391405,-0.232105,0.885598,0.380335
1629800391415,-0.23216599999999998,0.885293,0.379237
1629800391425,-0.230885,0.8860859999999999,0.37899299999999997
1629800391434,-0.230885,0.886818,0.378505
1629800391444,-0.230153,0.8851709999999999,0.377407
1629800391453,-0.22997,0.884927,0.37637
1629800391463,-0.229665,0.887428,0.37454
1629800391473,-0.231007,0.888038,0.37563799999999997
1629800391482,-0.230458,0.892491,0.37576
1629800391492,-0.232044,0.893345,0.379786
1629800391501,-0.230824,0.895297,0.378322
1629800391511,-0.23094599999999998,0.897493,0.379542
1629800391521,-0.228079,0.896822,0.377102
1629800391530,-0.229787,0.895541,0.376065
1629800391540,-0.229299,0.892979,0.377041
1629800391549,-0.227469,0.893833,0.374845
1629800391559,-0.224114,0.8942599999999999,0.374479
1629800391569,-0.22197899999999998,0.893345,0.37515
1629800391578,-0.221186,0.892552,0.375028
1629800391588,-0.221735,0.891942,0.373686
1629800391597,-0.22082,0.892918,0.374601
1629800391607,-0.22197899999999998,0.893284,0.373808
1629800391617,-0.220332,0.894382,0.374418
1629800391626,-0.219905,0.894748,0.375272
1629800391636,-0.21770899999999999,0.894931,0.375516
1629800391645,-0.213805,0.895602,0.374784
1629800391655,-0.21276799999999998,0.899628,0.37533299999999997
1629800391665,-0.212097,0.903166,0.375028
1629800391674,-0.209108,0.906277,0.373564
1629800391684,-0.207705,0.908961,0.37746799999999997
1629800391693,-0.210267,0.9031049999999999,0.376736
1629800391703,-0.209901,0.897554,0.374723
1629800391713,-0.21154799999999999,0.88816,0.371795
1629800391722,-0.210023,0.88206,0.367464
1629800391732,-0.207461,0.880413,0.362096
1629800391741,-0.204411,0.878583,0.356301
1629800391751,-0.20496,0.880108,0.352336
1629800391761,-0.20435,0.882914,0.350445
1629800391770,-0.204716,0.8836459999999999,0.350018
1629800391780,-0.203435,0.886574,0.350323
1629800391789,-0.204411,0.8870009999999999,0.350567
1629800391799,-0.204899,0.886757,0.350872
1629800391809,-0.203679,0.8854759999999999,0.349652
1629800391818,-0.203435,0.881328,0.348127
1629800391828,-0.2013,0.881267,0.344589
1629800391837,-0.198677,0.8888309999999999,0.345504
1629800391847,-0.195261,0.891088,0.34526
1629800391857,-0.19397999999999999,0.891454,0.34648
1629800391866,-0.195139,0.887367,0.352092
1629800391876,-0.199409,0.877912,0.352458
1629800391885,-0.205753,0.866322,0.34953
1629800391895,-0.209291,0.8599169999999999,0.338306
1629800391905,-0.214964,0.861686,0.330864
1629800391914,-0.220515,0.864736,0.31738299999999997
1629800391924,-0.22478499999999998,0.868518,0.305244
1629800391933,-0.224053,0.874435,0.292922
1629800391943,-0.22045399999999998,0.884805,0.281515
1629800391953,-0.213622,0.897798,0.27388999999999997
1629800391962,-0.206485,0.908168,0.26657
1629800391972,-0.198799,0.915122,0.250893
1629800391981,-0.187026,0.924516,0.239059
1629800391991,-0.176229,0.939583,0.229604
1629800392001,-0.16652999999999998,0.954284,0.221308
1629800392010,-0.157258,0.965325,0.21429299999999998
1629800392020,-0.150182,0.971669,0.206668
1629800392029,-0.146949,0.972889,0.19428499999999999
1629800392039,-0.14310599999999998,0.966545,0.174643
1629800392049,-0.137982,0.962702,0.155916
1629800392058,-0.12688,0.9694119999999999,0.142069
1629800392068,-0.116449,0.982771,0.129381
1629800392077,-0.10638399999999999,1.003145,0.120048
1629800392087,-0.094245,1.022055,0.109251
1629800392097,-0.087413,1.031571,0.10498099999999999
1629800392106,-0.085644,1.034499,0.101687
1629800392116,-0.081191,1.037,0.101565
1629800392125,-0.077836,1.0420019999999999,0.10467599999999999
1629800392135,-0.07137,1.0456619999999999,0.106506
1629800392145,-0.066673,1.047858,0.114558
1629800392154,-0.061854,1.048041,0.122366
1629800392164,-0.060573,1.043954,0.12932
1629800392173,-0.058193999999999996,1.039379,0.132675
1629800392183,-0.053558,1.034194,0.131699
1629800392193,-0.048678,1.02968,0.127795
1629800392202,-0.046604,1.022238,0.123342
1629800392212,-0.045201,1.013393,0.118889
1629800392221,-0.044164,1.00711,0.114924
1629800392231,-0.043737,1.000461,0.114497
1629800392241,-0.044102999999999996,0.991799,0.117181
1629800392250,-0.046726,0.9986309999999999,0.120048
1629800392260,-0.038125,1.014003,0.12254899999999999
1629800392269,-0.021045,1.023885,0.11638799999999999
1629800392279,-0.025498,1.014552,0.12078
1629800392289,-0.021716,1.003206,0.115351
1629800392298,-0.027023,0.99125,0.11931599999999999
1629800392308,-0.030866,0.980514,0.123037
1629800392317,-0.036417,0.964959,0.12993
1629800392327,-0.039772,0.948367,0.133041
1629800392337,-0.044591,0.943365,0.139873
1629800392346,-0.049104999999999996,0.94977,0.148474
1629800392356,-0.053436,0.94489,0.152256
1629800392365,-0.057645,0.941962,0.153964
1629800392375,-0.062525,0.93757,0.149145
1629800392385,-0.062342,0.936716,0.141459
1629800392394,-0.062342,0.938302,0.135359
1629800392404,-0.063074,0.943975,0.132126
1629800392413,-0.065331,0.946964,0.130296
1629800392423,-0.069357,0.948245,0.127307
1629800392433,-0.071919,0.948916,0.123525
1629800392442,-0.074054,0.95221,0.119682
1629800392452,-0.076738,0.95953,0.114985
1629800392461,-0.07564,0.956785,0.104432
1629800392471,-0.080825,0.974475,0.109495
1629800392481,-0.077287,0.985455,0.10553
1629800392490,-0.07808,0.997838,0.107238
1629800392500,-0.077287,1.008086,0.10992199999999999
1629800392509,-0.078385,1.011807,0.10797
1629800392519,-0.075762,1.014491,0.1037
1629800392529,-0.07356599999999999,1.016504,0.103517
1629800392538,-0.075091,1.018395,0.102907
1629800392548,-0.074115,1.014125,0.098027
1629800392557,-0.072773,1.010709,0.09394
1629800392567,-0.072346,1.012173,0.093391
1629800392577,-0.071004,1.012234,0.095648
1629800392586,-0.069052,1.011502,0.09577
1629800392596,-0.068198,1.009611,0.09881999999999999
1629800392605,-0.067039,1.005402,0.100406
1629800392615,-0.06405,1.003694,0.104554
1629800392625,-0.063745,1.000278,0.107238
1629800392634,-0.064538,0.996069,0.110288
1629800392644,-0.069418,0.992104,0.115961
1629800392653,-0.077226,0.9834419999999999,0.123586
1629800392663,-0.083509,0.977159,0.128039
1629800392673,-0.090341,0.97173,0.131272
1629800392682,-0.09394,0.964837,0.128893
1629800392692,-0.09455,0.9627629999999999,0.12834399999999999
1629800392701,-0.09143899999999999,0.96624,0.12444
1629800392711,-0.085522,0.9727669999999999,0.122183
1629800392721,-0.080398,0.976549,0.120658
1629800392730,-0.076006,0.978989,0.12071899999999999
1629800392740,-0.072224,0.981551,0.120475
1629800392749,-0.071492,0.981856,0.12285399999999999
1629800392759,-0.06770999999999999,0.981856,0.120048
1629800392769,-0.071675,0.9742919999999999,0.119438
1629800392778,-0.072773,0.97112,0.11516799999999999
1629800392788,-0.069662,0.973194,0.111996
1629800392797,-0.068869,0.978196,0.11223999999999999
1629800392807,-0.066124,0.978745,0.109495
1629800392817,-0.066307,0.9727669999999999,0.108763
1629800392826,-0.063196,0.976854,0.105225
1629800392836,-0.066368,0.978196,0.111447
1629800392845,-0.071858,0.972279,0.109373
1629800392855,-0.07869,0.9660569999999999,0.109678
1629800392865,-0.087474,0.964593,0.114314
1629800392874,-0.091256,0.96563,0.116754
1629800392884,-0.088389,0.9715469999999999,0.111081
1629800392893,-0.087779,0.98271,0.105164
1629800392903,-0.085461,0.990152,0.101199
1629800392913,-0.08204499999999999,0.992409,0.099857
1629800392922,-0.08784,0.985516,0.105652
1629800392932,-0.09516,0.975024,0.11223999999999999
1629800392941,-0.094855,0.971303,0.11284999999999999
1629800392951,-0.09394,0.9791719999999999,0.114436
1629800392961,-0.086071,0.986248,0.102785
1629800392970,-0.069296,1.008208,0.089487
1629800392980,-0.059414,1.012844,0.076006
1629800392989,-0.054351,1.011624,0.073383
1629800392999,-0.055876,0.998448,0.087718
1629800393009,-0.067649,0.982893,0.11102
1629800393018,-0.08326499999999999,0.970266,0.126209
1629800393028,-0.091195,0.96929,0.124135
1629800393037,-0.09759999999999999,0.968863,0.106872
1629800393047,-0.085217,0.983564,0.07094299999999999
1629800393057,-0.072712,0.992348,0.068564
1629800393066,-0.075579,0.9989359999999999,0.090402
1629800393076,-0.085827,0.985455,0.10931199999999999
1629800393085,-0.104005,0.959469,0.11956
1629800393095,-0.105408,0.9545279999999999,0.103395
1629800393105,-0.10022299999999999,0.965325,0.10614
1629800393114,-0.09333,0.965996,0.084912
1629800393124,-0.075945,0.981429,0.065453
1629800393133,-0.052826,1.00711,0.063684
1629800393143,-0.047030999999999996,1.015406,0.076555
1629800393153,-0.051545,1.004426,0.082472
1629800393162,-0.068503,0.988749,0.08601
1629800393172,-0.07076,0.993995,0.06709999999999999
1629800393181,-0.049776,1.025593,0.046543
1629800393191,-0.036478,1.034255,0.056424999999999996
1629800393201,-0.027632999999999998,1.050542,0.062647
1629800393210,-0.037881,1.040843,0.076006
1629800393220,-0.060511999999999996,1.001559,0.074603
1629800393229,-0.089609,0.9624579999999999,0.086742
1629800393239,-0.105835,0.95282,0.097234
1629800393249,-0.10467599999999999,0.973865,0.107726
1629800393258,-0.105896,0.97539,0.107482
1629800393268,-0.092903,0.972828,0.087291
1629800393277,-0.07155299999999999,0.985211,0.08356999999999999
1629800393287,-0.07326099999999999,0.9675819999999999,0.091866
1629800393297,-0.069174,0.96624,0.099552
1629800393306,-0.067954,0.980636,0.110288
1629800393316,-0.039772,1.0310219999999999,0.088694
1629800393325,-0.033549999999999996,1.031388,0.078141
1629800393335,-0.049044,0.976305,0.076433
1629800393345,-0.071736,0.936655,0.100589
1629800393354,-0.106506,0.91866,0.121817
1629800393364,-0.099247,0.932873,0.093025
1629800393373,-0.073139,0.972828,0.102663
1629800393383,-0.067954,0.9928359999999999,0.12102399999999999
1629800393393,-0.071492,0.985089,0.131699
1629800393402,-0.090463,0.956846,0.131272
1629800393412,-0.112789,0.927078,0.120902
1629800393421,-0.014152,0.972401,-0.009455
1629800393431,-0.17995,0.873947,0.128283
1629800393441,-0.073993,0.9502579999999999,0.122671
1629800393450,-0.051118,1.013332,0.133529
1629800393460,-0.059231,1.023824,0.119072
1629800393469,-0.068137,0.94977,0.086742
1629800393479,-0.049654,0.986248,0.083204
1629800393489,-0.082594,0.9983259999999999,0.086681
1629800393498,-0.0549,1.02724,0.006771
1629800393508,-0.022631,1.089399,-0.019032
1629800393517,0.022203999999999998,1.128622,-0.016958
1629800393527,0.039589,1.150826,0.050386
1629800393537,0.020984,1.117154,0.085217
1629800393546,-0.013481,1.042124,0.082533
1629800393556,-0.037637,0.980819,0.08033699999999999
1629800393565,-0.069784,0.935618,0.10309
1629800393575,-0.094855,0.9213439999999999,0.131394
1629800393585,-0.113277,0.93269,0.15237799999999999
1629800393594,-0.1159,0.945561,0.142984
1629800393604,-0.107177,0.964532,0.127307
1629800393613,-0.09589199999999999,0.976183,0.12486699999999999
1629800393623,-0.098454,0.96929,0.120292
1629800393633,-0.093147,0.967826,0.117913
1629800393642,-0.09028,0.9651419999999999,0.11345999999999999
1629800393652,-0.083753,0.965874,0.111447
1629800393661,-0.072895,0.980819,0.118218
1629800393671,-0.083997,0.970754,0.125233
1629800393681,-0.085156,0.965264,0.120658
1629800393690,-0.084546,0.968558,0.116754
1629800393700,-0.079666,0.978318,0.111508
1629800393709,-0.080459,0.987834,0.120414
1629800393719,-0.000915,1.048163,0.05551
1629800393729,-0.113033,0.987773,0.137677
1629800393738,-0.037698,1.031144,0.119865
1629800393748,-0.031842,1.015345,0.09943
1629800393757,-0.046421,1.003816,0.116754
1629800393767,-0.041784999999999996,0.997228,0.114253
1629800393777,-0.034526,0.990945,0.108214
1629800393786,-0.042395,0.981246,0.115961
1629800393796,-0.04697,0.975573,0.120536
1629800393805,-0.054778,0.9694119999999999,0.12383
1629800393815,-0.063745,0.968619,0.131028
1629800393825,-0.075274,0.9627629999999999,0.139385
1629800393834,-0.08265499999999999,0.958249,0.148413
1629800393844,-0.087047,0.958005,0.155428
1629800393853,-0.08820599999999999,0.958859,0.161833
1629800393863,-0.08649799999999999,0.959164,0.166591
1629800393873,-0.08418,0.9584929999999999,0.165798
1629800393882,-0.081069,0.963129,0.167628
1629800393892,-0.081008,0.963312,0.165493
1629800393901,-0.07564,0.969046,0.157441
1629800393911,-0.069723,0.975329,0.15616
1629800393921,-0.069052,0.978501,0.151829
1629800393930,-0.064355,0.9861869999999999,0.14621699999999999
1629800393940,-0.06539199999999999,0.979294,0.147071
1629800393949,-0.067466,0.97356,0.149633
1629800393959,-0.069662,0.96868,0.150853
1629800393969,-0.069723,0.968924,0.153354
1629800393978,-0.069174,0.9706319999999999,0.153354
1629800393988,-0.067222,0.972218,0.149999
1629800393997,-0.068747,0.97173,0.148718
1629800394007,-0.071431,0.9733769999999999,0.14945
1629800394017,-0.073627,0.973438,0.146766
1629800394026,-0.070699,0.973011,0.143594
1629800394036,-0.07063799999999999,0.972828,0.141032
1629800394045,-0.069418,0.9770369999999999,0.142252
1629800394055,-0.068625,0.978989,0.143167
1629800394065,-0.06539199999999999,0.987834,0.145485
1629800394074,-0.065026,0.989298,0.147254
1629800394084,-0.061915,0.991555,0.148474
1629800394093,-0.060816999999999996,0.9922259999999999,0.15189
1629800394103,-0.060268,0.991738,0.155855
1629800394113,-0.060634,0.990152,0.155733
1629800394122,-0.057706,0.99674,0.157502
1629800394132,-0.057583999999999996,0.998814,0.15921
1629800394141,-0.059352999999999996,1.003145,0.16036899999999998
1629800394151,-0.058804,1.004609,0.16561499999999998
1629800394161,-0.059047999999999996,1.003938,0.168116
1629800394170,-0.058011,1.002718,0.170312
1629800394180,-0.057157,0.997777,0.16744499999999998
1629800394189,-0.056364,0.990213,0.166286
1629800394199,-0.056486,0.981551,0.163358
1629800394209,-0.050813,0.9946659999999999,0.163724
1629800394218,-0.044102999999999996,1.008574,0.165859
1629800394228,-0.038918,1.015284,0.170922
1629800394237,-0.037087999999999996,1.019981,0.17702199999999998
1629800394247,-0.04514,1.01748,0.181719
1629800394257,-0.059047999999999996,1.00894,0.192943
1629800394266,-0.072346,0.995764,0.198067
1629800394276,-0.08881599999999999,0.976549,0.207461
1629800394285,-0.101199,0.959835,0.210816
1629800394295,-0.110654,0.945622,0.217831
1629800394305,-0.11956,0.9332389999999999,0.22508999999999998
1629800394314,-0.127551,0.927932,0.233752
1629800394324,-0.134688,0.9265289999999999,0.244732
1629800394333,-0.14249599999999998,0.9256139999999999,0.258701
1629800394343,-0.1525,0.921222,0.270657
1629800394353,-0.16348,0.910547,0.27419499999999997
1629800394362,-0.168238,0.904691,0.27572
1629800394372,-0.17086099999999999,0.900421,0.276818
1629800394381,-0.1708,0.9037149999999999,0.275232
1629800394391,-0.165798,0.919026,0.275964
1629800394401,-0.16067399999999998,0.927322,0.28255199999999997
1629800394410,-0.15945399999999998,0.925736,0.289689
1629800394420,-0.155001,0.923418,0.2928
1629800394429,-0.150426,0.92293,0.29426399999999997
1629800394439,-0.145058,0.9240889999999999,0.29646
1629800394449,-0.136457,0.922747,0.292068
1629800394458,-0.127002,0.94306,0.29761899999999997
1629800394468,-0.129015,0.917318,0.28548
1629800394477,-0.113704,0.931958,0.283894
1629800394487,-0.120536,0.9350689999999999,0.300669
1629800394497,-0.110654,0.935801,0.290848
1629800394506,-0.102785,0.925248,0.276513
1629800394516,-0.11163,0.9286639999999999,0.293593
1629800394525,-0.108458,0.930067,0.290299
1629800394535,-0.108031,0.930372,0.294447
1629800394545,-0.108092,0.938241,0.301706
1629800394554,-0.102724,0.939156,0.294996
1629800394564,-0.10052799999999999,0.94367,0.294996
1629800394573,-0.100589,0.94367,0.299022
1629800394583,-0.099857,0.942572,0.29243399999999997
1629800394593,-0.102602,0.94672,0.297375
1629800394602,-0.103395,0.943914,0.29731399999999997
1629800394612,-0.10614,0.941657,0.29578899999999997
1629800394621,-0.104798,0.937753,0.290299
1629800394631,-0.106628,0.93635,0.286456
1629800394641,-0.102602,0.938668,0.282491
1629800394650,-0.099857,0.94123,0.283406
1629800394660,-0.101687,0.937143,0.28285699999999997
1629800394669,-0.099735,0.943487,0.287188
1629800394679,-0.101626,0.942084,0.288652
1629800394689,-0.10858,0.939522,0.298046
1629800394698,-0.10492,0.941962,0.29853399999999997
1629800394708,-0.103578,0.945134,0.298412
1629800394717,-0.09881999999999999,0.9520879999999999,0.292251
1629800394727,-0.095221,0.955931,0.294386
1629800394737,-0.095221,0.952942,0.29395899999999997
1629800394746,-0.092293,0.9490379999999999,0.288774
1629800394756,-0.089365,0.949221,0.282918
1629800394765,-0.091866,0.946049,0.280905
1629800394775,-0.081557,0.956602,0.275354
1629800394785,-0.08881599999999999,0.945195,0.28316199999999997
1629800394794,-0.094733,0.937387,0.29395899999999997
1629800394804,-0.086254,0.933178,0.285419
1629800394813,-0.088389,0.931043,0.288652
1629800394823,-0.08003199999999999,0.938973,0.292068
1629800394833,-0.081557,0.937997,0.29822899999999997
1629800394842,-0.073627,0.945256,0.293532
1629800394852,-0.071126,0.9469029999999999,0.290116
1629800394861,-0.066124,0.956846,0.292251
1629800394871,-0.066856,0.957212,0.286456
1629800394881,-0.062525,0.956236,0.277611
1629800394890,-0.060024,0.958127,0.274622
1629800394900,-0.06478199999999999,0.95343,0.274378
1629800394909,-0.061426999999999995,0.952576,0.274561
1629800394919,-0.062098,0.945012,0.276879
1629800394929,-0.06405,0.946476,0.28194199999999997
1629800394938,-0.065331,0.95221,0.288042
1629800394948,-0.060695,0.953979,0.288957
1629800394957,-0.052032999999999996,0.955565,0.28346699999999997
1629800394967,-0.04819,0.963617,0.28346699999999997
1629800394977,-0.056486,0.955199,0.288042
1629800394986,-0.056181,0.952149,0.289628
1629800394996,-0.061975999999999996,0.9423279999999999,0.29097
1629800395005,-0.062586,0.936045,0.292251
1629800395015,-0.064355,0.9314089999999999,0.29334899999999997
1629800395025,-0.062037,0.938546,0.296765
1629800395034,-0.055815,0.9514779999999999,0.300547
1629800395044,-0.053741,0.957639,0.30134
1629800395053,-0.054534,0.95343,0.302194
1629800395063,-0.054168,0.953857,0.30134
1629800395073,-0.056242,0.955016,0.301889
1629800395082,-0.055876,0.958005,0.303719
1629800395092,-0.057157,0.958066,0.30628099999999997
1629800395101,-0.059841,0.956236,0.3111
1629800395111,-0.060756,0.947086,0.313235
1629800395121,-0.06222,0.9394,0.312198
1629800395130,-0.063867,0.939217,0.317749
1629800395140,-0.065636,0.937082,0.325496
1629800395149,-0.060511999999999996,0.94367,0.326655
1629800395159,-0.061366,0.942816,0.331169
1629800395169,-0.059536,0.940681,0.32787499999999997
1629800395178,-0.057767,0.940315,0.327936
1629800395188,-0.055998,0.941108,0.325557
1629800395197,-0.058987,0.93391,0.328363
1629800395207,-0.061244,0.922808,0.33214499999999997
1629800395217,-0.063562,0.914268,0.336903
1629800395226,-0.067893,0.915732,0.349347
1629800395236,-0.066978,0.918172,0.353556
1629800395245,-0.06222,0.9225639999999999,0.353495
1629800395255,-0.063989,0.927993,0.354715
1629800395265,-0.058438,0.939217,0.354532
1629800395274,-0.060268,0.941474,0.354105
1629800395284,-0.065636,0.940559,0.36173
1629800395293,-0.065148,0.93757,0.356301
1629800395303,-0.07137,0.937448,0.359046
1629800395313,-0.07137,0.936838,0.358131
1629800395322,-0.077714,0.93086,0.361486
1629800395332,-0.080764,0.924028,0.362645
1629800395341,-0.087413,0.920612,0.36844
1629800395351,-0.093208,0.9095099999999999,0.372893
1629800395361,-0.10919,0.897798,0.37759
1629800395370,-0.11223999999999999,0.890661,0.37716299999999997
1629800395380,-0.123037,0.889502,0.38204299999999997
1629800395389,-0.126514,0.886208,0.386252
1629800395399,-0.142862,0.875899,0.388936
1629800395409,-0.153537,0.872239,0.393877
1629800395418,-0.163297,0.870592,0.402539
1629800395428,-0.182329,0.862784,0.411567
1629800395437,-0.197884,0.854671,0.41785
1629800395447,-0.20349599999999998,0.85034,0.422669
1629800395457,-0.214476,0.847778,0.43066
1629800395466,-0.218075,0.842288,0.438041
1629800395476,-0.22447999999999999,0.833992,0.444751
1629800395485,-0.244305,0.829844,0.457195
1629800395495,-0.254248,0.829417,0.46158699999999997
1629800395505,-0.261141,0.82533,0.46116
1629800395514,-0.273158,0.826916,0.463844
1629800395524,-0.28426,0.820206,0.468663
1629800395533,-0.29273899999999997,0.8106289999999999,0.47153
1629800395543,-0.30012,0.803736,0.475922
1629800395553,-0.30872099999999997,0.793854,0.484035
1629800395562,-0.322385,0.793549,0.500871
1629800395572,-0.321409,0.79727,0.50813
1629800395581,-0.34019699999999997,0.800076,0.5240509999999999
1629800395591,-0.345809,0.789828,0.532286
1629800395601,-0.348981,0.777262,0.533445
1629800395610,-0.303536,0.766099,0.5136809999999999
1629800395620,-0.406626,0.77287,0.574498
1629800395629,-0.38125,0.780434,0.5718139999999999
1629800395639,-0.365634,0.783911,0.571265
1629800395649,-0.37563799999999997,0.790804,0.58316
1629800395658,-0.381921,0.780068,0.585417
1629800395668,-0.36362099999999997,0.763537,0.566141
1629800395677,-0.372954,0.738405,0.559553
1629800395687,-0.44456799999999996,0.757254,0.596641
1629800395697,-0.34709,0.718702,0.539606
1629800395706,-0.406565,0.724497,0.576694
1629800395716,-0.37637,0.714981,0.561871
1629800395725,-0.37929799999999997,0.713822,0.5660189999999999
1629800395735,-0.386252,0.720898,0.571631
1629800395745,-0.368135,0.717604,0.563152
1629800395754,-0.372466,0.720166,0.567483
1629800395764,-0.37332,0.718214,0.5660189999999999
1629800395773,-0.36789099999999997,0.721203,0.564433
1629800395783,-0.370392,0.718824,0.568093
1629800395793,-0.36545099999999997,0.723094,0.571692
1629800395802,-0.359656,0.72651,0.57645
1629800395812,-0.357887,0.733708,0.583526
1629800395821,-0.35221399999999997,0.742248,0.588894
1629800395831,-0.341905,0.748409,0.584319
1629800395841,-0.347578,0.760365,0.588406
1629800395850,-0.335866,0.753594,0.579622
1629800395860,-0.34465,0.741943,0.576267
1629800395869,-0.338367,0.7330369999999999,0.564555
1629800395879,-0.34019699999999997,0.723399,0.558516
1629800395889,-0.337147,0.720288,0.551745
1629800395898,-0.3355,0.721142,0.549427
1629800395908,-0.327692,0.724619,0.5471699999999999
1629800395917,-0.325435,0.728279,0.547902
1629800395927,-0.324337,0.731939,0.549305
1629800395937,-0.317871,0.738039,0.547841
1629800395946,-0.315614,0.744322,0.548268
1629800395956,-0.310063,0.75152,0.549244
1629800395965,-0.30597599999999997,0.754814,0.547658
1629800395975,-0.302194,0.759145,0.542961
1629800395985,-0.300425,0.764574,0.5395449999999999
1629800395994,-0.296826,0.763598,0.528931
1629800396004,-0.289811,0.772382,0.5176459999999999
1629800396013,-0.28426,0.779519,0.507886
1629800396023,-0.28194199999999997,0.788974,0.509167
1629800396033,-0.277672,0.793427,0.504836
1629800396042,-0.277367,0.796721,0.49794299999999997
1629800396052,-0.273402,0.8033089999999999,0.490379
1629800396061,-0.268522,0.81313,0.48251
1629800396071,-0.264862,0.819779,0.477325
1629800396081,-0.262971,0.8273429999999999,0.470676
1629800396090,-0.260531,0.833687,0.466528
1629800396100,-0.25986,0.841373,0.463234
1629800396109,-0.25821299999999997,0.847656,0.458781
1629800396119,-0.2562,0.854976,0.455548
1629800396129,-0.253638,0.8623569999999999,0.454816
1629800396138,-0.256627,0.863699,0.45231499999999997
1629800396148,-0.253516,0.864004,0.44426299999999996
1629800396157,-0.252113,0.864858,0.441762
1629800396167,-0.252235,0.863699,0.438041
1629800396177,-0.249246,0.863943,0.435662
1629800396186,-0.248331,0.862113,0.432734
1629800396196,-0.246928,0.862296,0.431819
1629800396205,-0.24583,0.862479,0.429928
1629800396215,-0.248575,0.863516,0.42828099999999997
1629800396225,-0.250649,0.864736,0.429379
1629800396234,-0.24942899999999998,0.867054,0.431148
1629800396244,-0.252296,0.868884,0.433649
1629800396253,-0.254187,0.87108,0.435052
1629800396263,-0.255224,0.872605,0.437309
1629800396273,-0.25943299999999997,0.8699209999999999,0.440664
1629800396282,-0.26034799999999997,0.866444,0.44225
1629800396292,-0.261629,0.866566,0.443775
1629800396301,-0.265899,0.8626619999999999,0.444934
1629800396311,-0.266814,0.859551,0.446337
1629800396321,-0.270047,0.856928,0.449326
1629800396330,-0.268766,0.858026,0.450912
1629800396340,-0.269681,0.856135,0.454572
1629800396349,-0.269986,0.8556469999999999,0.456097
1629800396359,-0.27083999999999997,0.852109,0.456158
1629800396369,-0.271511,0.84912,0.453718
1629800396378,-0.270352,0.847534,0.45383999999999997
1629800396388,-0.268766,0.8479,0.454389
1629800396397,-0.269742,0.843752,0.454511
1629800396407,-0.26931499999999997,0.842654,0.45505999999999996
1629800396417,-0.26870499999999997,0.839055,0.453962
1629800396426,-0.265838,0.8395429999999999,0.454084
1629800396436,-0.266021,0.837286,0.453718
1629800396445,-0.265533,0.836859,0.453169
1629800396455,-0.26352,0.8383229999999999,0.45170499999999997
1629800396465,-0.262605,0.8395429999999999,0.45139999999999997
1629800396474,-0.26126299999999997,0.843996,0.450729
1629800396484,-0.262544,0.8468019999999999,0.450973
1629800396493,-0.262605,0.846619,0.451156
1629800396503,-0.262422,0.8464969999999999,0.45078999999999997
1629800396513,-0.263703,0.846619,0.45139999999999997
1629800396522,-0.262727,0.846558,0.45170499999999997
1629800396532,-0.262544,0.848388,0.452986
1629800396541,-0.263886,0.8461919999999999,0.45078999999999997
1629800396551,-0.262422,0.845948,0.451156
1629800396561,-0.260836,0.847168,0.451034
1629800396570,-0.260775,0.848815,0.454694
1629800396580,-0.261446,0.8468019999999999,0.456097
1629800396589,-0.260714,0.846924,0.4575
1629800396599,-0.25986,0.845948,0.457256
1629800396609,-0.259067,0.844789,0.456158
1629800396618,-0.257847,0.843081,0.45414499999999997
1629800396628,-0.25668799999999997,0.841129,0.451522
1629800396637,-0.253821,0.841068,0.449814
1629800396647,-0.252296,0.84241,0.448472
1629800396657,-0.249307,0.844606,0.44895999999999997
1629800396666,-0.248087,0.84607,0.448472
1629800396676,-0.247355,0.847473,0.44865499999999997
1629800396685,-0.246257,0.850218,0.449082
1629800396695,-0.245525,0.853878,0.44956999999999997
1629800396705,-0.244549,0.852841,0.45048499999999997
1629800396714,-0.244,0.852658,0.449692
1629800396724,-0.244244,0.851804,0.448411
1629800396733,-0.24278,0.853451,0.447923
1629800396743,-0.241987,0.852109,0.446215
1629800396753,-0.240096,0.854549,0.444873
1629800396762,-0.23985199999999998,0.854366,0.447313
1629800396772,-0.23912,0.853756,0.44652
1629800396781,-0.237656,0.85461,0.446032
1629800396791,-0.23771699999999998,0.855708,0.4453
1629800396801,-0.236558,0.855098,0.444202
1629800396810,-0.234667,0.854915,0.44365299999999996
1629800396820,-0.23546,0.85278,0.444629
1629800396829,-0.235033,0.852048,0.443165
1629800396839,-0.234057,0.851865,0.440969
1629800396849,-0.235338,0.853573,0.44273799999999996
1629800396858,-0.23588699999999999,0.8516819999999999,0.443287
1629800396868,-0.235033,0.85217,0.440359
1629800396877,-0.235704,0.8556469999999999,0.440969
1629800396887,-0.235277,0.857233,0.442189
1629800396897,-0.235033,0.857904,0.442311
1629800396906,-0.235277,0.85949,0.442006
1629800396916,-0.234179,0.8608319999999999,0.44151799999999997
1629800396925,-0.234179,0.863028,0.439749
1629800396935,-0.233325,0.864126,0.438834
1629800396945,-0.233264,0.865224,0.439139
1629800396954,-0.232715,0.865346,0.438102
1629800396964,-0.230885,0.867786,0.43785799999999997
1629800396973,-0.231434,0.866749,0.43737
1629800396983,-0.232227,0.866993,0.437126
1629800396993,-0.234057,0.866322,0.438102
1629800397002,-0.233203,0.867176,0.437431
1629800397012,-0.234911,0.865956,0.438651
1629800397021,-0.234667,0.863516,0.438102
1629800397031,-0.235338,0.862174,0.43846799999999997
1629800397041,-0.234667,0.8611369999999999,0.43846799999999997
1629800397050,-0.235033,0.86132,0.439566
1629800397060,-0.234789,0.861564,0.438407
1629800397069,-0.235216,0.862784,0.43999299999999997
1629800397079,-0.237046,0.86132,0.440725
1629800397089,-0.23680199999999998,0.8602219999999999,0.440542
1629800397098,-0.236741,0.859978,0.438407
1629800397108,-0.237656,0.859734,0.43798
1629800397117,-0.238266,0.859246,0.43572299999999997
1629800397127,-0.238205,0.860649,0.43615
1629800397137,-0.238205,0.859368,0.435052
1629800397146,-0.23863199999999998,0.860588,0.436089
1629800397156,-0.238266,0.861564,0.434259
1629800397165,-0.238571,0.860893,0.433405
1629800397175,-0.239608,0.86071,0.434137
1629800397185,-0.239791,0.858453,0.433527
1629800397194,-0.239669,0.859368,0.433771
1629800397204,-0.239608,0.8611369999999999,0.4331
1629800397213,-0.241255,0.8602219999999999,0.434259
1629800397223,-0.239974,0.857843,0.432856
1629800397233,-0.238754,0.859063,0.433344
1629800397242,-0.238266,0.8586969999999999,0.434137
1629800397252,-0.237351,0.8586969999999999,0.432185
1629800397261,-0.238144,0.859429,0.4331
1629800397271,-0.237046,0.860161,0.43163599999999996
1629800397281,-0.23832699999999998,0.860954,0.4331
1629800397290,-0.238754,0.862784,0.432429
1629800397300,-0.23893699999999998,0.863516,0.433283
1629800397309,-0.23802199999999998,0.866322,0.433283
1629800397319,-0.23973,0.863211,0.434625
1629800397329,-0.23973,0.863333,0.435174
1629800397338,-0.24034,0.864614,0.435784
1629800397348,-0.239913,0.863699,0.43602799999999997
1629800397357,-0.238205,0.86315,0.434503
1629800397367,-0.23863199999999998,0.862845,0.43371
1629800397377,-0.23912,0.862113,0.433283
1629800397386,-0.23851,0.863089,0.434564
1629800397396,-0.239425,0.8626619999999999,0.437492
1629800397405,-0.238998,0.862174,0.434625
1629800397415,-0.2379,0.859185,0.431575
1629800397425,-0.237656,0.8593069999999999,0.432307
1629800397434,-0.23802199999999998,0.85827,0.432917
1629800397444,-0.23893699999999998,0.8596119999999999,0.433527
1629800397453,-0.23863199999999998,0.86132,0.433344
1629800397463,-0.238693,0.8608319999999999,0.432307
1629800397473,-0.237534,0.8623569999999999,0.432002
1629800397482,-0.23832699999999998,0.863028,0.432612
1629800397492,-0.237961,0.862296,0.433222
1629800397501,-0.239608,0.863028,0.434503
1629800397511,-0.23973,0.863455,0.433588
1629800397521,-0.23863199999999998,0.864919,0.431819
1629800397530,-0.240035,0.864004,0.433649
1629800397540,-0.240706,0.861686,0.432368
1629800397549,-0.23954699999999998,0.863028,0.431575
1629800397559,-0.23924199999999998,0.8629669999999999,0.431087
1629800397569,-0.240218,0.861015,0.432917
1629800397578,-0.239425,0.8623569999999999,0.43224599999999996
1629800397588,-0.237961,0.8629669999999999,0.434198
1629800397597,-0.241011,0.863516,0.435357
1629800397607,-0.241072,0.862906,0.435235
1629800397617,-0.239791,0.864126,0.434137
1629800397626,-0.239608,0.862418,0.434198
1629800397636,-0.240523,0.860405,0.432307
1629800397645,-0.239669,0.860588,0.431758
1629800397655,-0.238449,0.864065,0.432856
1629800397665,-0.23802199999999998,0.861869,0.43163599999999996
1629800397674,-0.239364,0.859734,0.431758
1629800397684,-0.238388,0.858148,0.432063
1629800397693,-0.239181,0.861015,0.43194099999999996
1629800397703,-0.238876,0.861259,0.432917
1629800397713,-0.238693,0.860466,0.43005
1629800397722,-0.238266,0.861869,0.430599
1629800397732,-0.237473,0.8620519999999999,0.43066
1629800397741,-0.23558199999999999,0.865346,0.43072099999999997
1629800397751,-0.238388,0.862906,0.430782
1629800397761,-0.23863199999999998,0.861625,0.431392
1629800397770,-0.237595,0.862845,0.431087
1629800397780,-0.237839,0.8626619999999999,0.431148
1629800397789,-0.236436,0.866444,0.430355
1629800397799,-0.238693,0.864553,0.43133099999999996
1629800397809,-0.23924199999999998,0.864004,0.431087
1629800397818,-0.23912,0.8632719999999999,0.430233
1629800397828,-0.239486,0.863028,0.430172
1629800397837,-0.23832699999999998,0.863638,0.429379
1629800397847,-0.23863199999999998,0.862479,0.429257
1629800397857,-0.239608,0.8635769999999999,0.43011099999999997
1629800397866,-0.240828,0.865468,0.43163599999999996
1629800397876,-0.238449,0.867664,0.431209
1629800397885,-0.241682,0.86376,0.43011099999999997
1629800397895,-0.240401,0.863394,0.429318
1629800397905,-0.23924199999999998,0.862784,0.42883
1629800397914,-0.240523,0.862784,0.428708
1629800397924,-0.240218,0.863028,0.429379
1629800397933,-0.240523,0.863333,0.428159
1629800397943,-0.239974,0.865834,0.428525
1629800397953,-0.24143799999999999,0.866078,0.43072099999999997
1629800397962,-0.24143799999999999,0.864736,0.429623
1629800397972,-0.241194,0.86559,0.429257
1629800397981,-0.242231,0.864553,0.428769
1629800397991,-0.24143799999999999,0.86559,0.42883
1629800398001,-0.241011,0.866566,0.43133099999999996
1629800398010,-0.242109,0.863699,0.430233
1629800398020,-0.24174299999999999,0.862479,0.430538
1629800398029,-0.243024,0.8617469999999999,0.43127
1629800398039,-0.24204799999999999,0.860466,0.429257
1629800398049,-0.240401,0.862784,0.429013
1629800398058,-0.24143799999999999,0.8611369999999999,0.430294
1629800398068,-0.243085,0.85949,0.42883
1629800398077,-0.244061,0.85949,0.429989
1629800398087,-0.244122,0.8614419999999999,0.43041599999999997
1629800398097,-0.245159,0.862723,0.433161
1629800398106,-0.244122,0.863028,0.433527
1629800398116,-0.244244,0.864126,0.431087
1629800398125,-0.24296299999999998,0.86193,0.428708
1629800398135,-0.24143799999999999,0.862113,0.427793
1629800398145,-0.242231,0.862174,0.427854
1629800398154,-0.24095,0.862601,0.427488
1629800398164,-0.241194,0.862113,0.428525
1629800398173,-0.24265799999999998,0.861869,0.428708
1629800398183,-0.241133,0.863089,0.428464
1629800398193,-0.24095,0.862906,0.429562
1629800398202,-0.24156,0.864065,0.429867
1629800398212,-0.239425,0.8641869999999999,0.42980599999999997
1629800398221,-0.23985199999999998,0.86071,0.428708
1629800398231,-0.239913,0.861625,0.428708
1629800398241,-0.239669,0.863089,0.429074
1629800398250,-0.239608,0.864126,0.427793
1629800398260,-0.23912,0.8651019999999999,0.429135
1629800398269,-0.238876,0.864553,0.428769
1629800398279,-0.238571,0.866444,0.428342
1629800398289,-0.239059,0.866871,0.42822
1629800398298,-0.240645,0.866749,0.429135
1629800398308,-0.241377,0.863821,0.42736599999999997
1629800398317,-0.241072,0.8632719999999999,0.427732
1629800398327,-0.241011,0.86559,0.42797599999999997
1629800398337,-0.241316,0.864675,0.43011099999999997
1629800398346,-0.24217,0.863699,0.431392
1629800398356,-0.242109,0.865773,0.432734
1629800398365,-0.24339,0.862784,0.432856
1629800398375,-0.24235299999999999,0.860588,0.429684
1629800398385,-0.242231,0.859368,0.427
1629800398394,-0.242231,0.86193,0.428525
1629800398404,-0.243756,0.8611369999999999,0.428525
1629800398413,-0.24235299999999999,0.8602219999999999,0.42767099999999997
1629800398423,-0.240706,0.862479,0.42883
1629800398433,-0.24174299999999999,0.8629669999999999,0.430355
1629800398442,-0.241987,0.863943,0.429257
1629800398452,-0.243207,0.865773,0.430294
1629800398461,-0.24204799999999999,0.867176,0.43041599999999997
1629800398471,-0.24204799999999999,0.86681,0.42889099999999997
1629800398481,-0.242536,0.86437,0.427732
1629800398490,-0.242536,0.864309,0.42828099999999997
1629800398500,-0.24265799999999998,0.862418,0.427732
1629800398509,-0.241377,0.863028,0.427549
1629800398519,-0.24034,0.863516,0.427244
1629800398529,-0.24156,0.862174,0.427854
1629800398538,-0.24143799999999999,0.861076,0.427427
1629800398548,-0.240889,0.8608319999999999,0.428647
1629800398557,-0.241804,0.861564,0.42919599999999997
1629800398567,-0.241804,0.861808,0.429684
1629800398577,-0.241316,0.860954,0.428159
1629800398586,-0.24046199999999998,0.861015,0.428525
1629800398596,-0.24143799999999999,0.86193,0.42761
1629800398605,-0.24143799999999999,0.8620519999999999,0.42761
1629800398615,-0.241499,0.863638,0.428342
1629800398625,-0.241682,0.863943,0.42822
1629800398634,-0.241926,0.86437,0.427732
1629800398644,-0.24143799999999999,0.865773,0.42761
1629800398653,-0.241926,0.865468,0.42858599999999997
1629800398663,-0.242414,0.864919,0.427793
1629800398673,-0.242414,0.864919,0.428769
1629800398682,-0.241682,0.863394,0.428952
1629800398692,-0.241011,0.865041,0.427305
1629800398701,-0.24156,0.863699,0.429623
1629800398711,-0.241804,0.862113,0.42980599999999997
1629800398721,-0.241316,0.861076,0.429745
1629800398730,-0.241316,0.862296,0.43011099999999997
1629800398740,-0.241072,0.861869,0.43011099999999997
1629800398749,-0.240096,0.860466,0.429074
1629800398759,-0.241682,0.861625,0.428769
1629800398769,-0.240889,0.8638819999999999,0.428769
1629800398778,-0.240828,0.86559,0.429074
1629800398788,-0.24156,0.863821,0.428525
1629800398797,-0.241804,0.864919,0.428342
1629800398807,-0.24217,0.865712,0.428342
1629800398817,-0.242109,0.86498,0.42761
1629800398826,-0.242536,0.86498,0.42944
1629800398836,-0.243329,0.8644919999999999,0.430599
1629800398845,-0.244854,0.863089,0.42883
1629800398855,-0.244244,0.861259,0.427305
1629800398865,-0.244244,0.8617469999999999,0.428403
1629800398874,-0.24522,0.862845,0.430477
1629800398884,-0.245586,0.863455,0.43249
1629800398893,-0.24448799999999998,0.863516,0.432734
1629800398903,-0.24509799999999998,0.863028,0.432185
1629800398913,-0.245342,0.861198,0.430538
1629800398922,-0.243329,0.861259,0.428952
1629800398932,-0.244,0.861076,0.42919599999999997
1629800398941,-0.24387799999999998,0.861381,0.429257
1629800398951,-0.241072,0.861991,0.427488
1629800398961,-0.24046199999999998,0.863516,0.42883
1629800398970,-0.241133,0.8632719999999999,0.42950099999999997
1629800398980,-0.24156,0.8626619999999999,0.428769
1629800398989,-0.240645,0.863333,0.428952
1629800398999,-0.240096,0.8629669999999999,0.428769
1629800399009,-0.241072,0.8623569999999999,0.42761
1629800399018,-0.240096,0.8626619999999999,0.427183
1629800399028,-0.239608,0.86254,0.427305
1629800399037,-0.239913,0.863211,0.427549
1629800399047,-0.23912,0.862784,0.427793
1629800399057,-0.238876,0.864614,0.427854
1629800399066,-0.239059,0.865956,0.427915
1629800399076,-0.238266,0.865895,0.42797599999999997
1629800399085,-0.23863199999999998,0.865956,0.427793
1629800399095,-0.240706,0.8651019999999999,0.42523099999999997
1629800399105,-0.240279,0.865346,0.426329
1629800399114,-0.239913,0.865834,0.426939
1629800399124,-0.239913,0.866078,0.42797599999999997
1629800399133,-0.240096,0.866383,0.429623
1629800399143,-0.240584,0.866017,0.43041599999999997
1629800399153,-0.242231,0.862601,0.427854
1629800399162,-0.242292,0.86254,0.426817
1629800399172,-0.241499,0.863821,0.427244
1629800399181,-0.242292,0.86498,0.428098
1629800399191,-0.243207,0.862723,0.42767099999999997
1629800399201,-0.24387799999999998,0.86132,0.42761
1629800399210,-0.242292,0.8632719999999999,0.42822
1629800399220,-0.24278,0.863394,0.428037
1629800399229,-0.24296299999999998,0.86315,0.427549
1629800399239,-0.24217,0.86376,0.42736599999999997
1629800399249,-0.241377,0.865529,0.42706099999999997
1629800399258,-0.241499,0.865712,0.427305
1629800399268,-0.241316,0.866932,0.426695
1629800399277,-0.240828,0.86742,0.424743
1629800399287,-0.241682,0.866322,0.427122
1629800399297,-0.242109,0.864248,0.425475
1629800399306,-0.241194,0.865712,0.425902
1629800399316,-0.241377,0.864736,0.424194
1629800399325,-0.242414,0.864248,0.425658
1629800399335,-0.240828,0.864248,0.42492599999999997
1629800399345,-0.241621,0.862479,0.426024
1629800399354,-0.24156,0.862174,0.425353
1629800399364,-0.241072,0.86193,0.424438
1629800399373,-0.242536,0.862296,0.424987
1629800399383,-0.241499,0.863028,0.425048
1629800399393,-0.242597,0.863211,0.42492599999999997
1629800399402,-0.241987,0.863516,0.42492599999999997
1629800399412,-0.24278,0.865834,0.425414
1629800399421,-0.24418299999999998,0.866017,0.424743
1629800399431,-0.242292,0.865529,0.423767
1629800399441,-0.243207,0.865529,0.423889
1629800399450,-0.243085,0.86742,0.423889
1629800399460,-0.243939,0.86681,0.42273
1629800399469,-0.243817,0.866261,0.423218
1629800399479,-0.243939,0.866322,0.423645
1629800399489,-0.244,0.866017,0.423523
1629800399498,-0.24418299999999998,0.867176,0.42395
1629800399508,-0.243756,0.867054,0.423828
1629800399517,-0.243695,0.86498,0.424499
1629800399527,-0.244427,0.8644919999999999,0.424255
1629800399537,-0.244976,0.865346,0.424072
1629800399546,-0.24448799999999998,0.866078,0.423462
1629800399556,-0.24461,0.865773,0.42401099999999997
1629800399565,-0.24461,0.864614,0.424072
1629800399575,-0.243939,0.865834,0.422852
1629800399585,-0.242597,0.86742,0.423218
1629800399594,-0.244549,0.866017,0.423828
1629800399604,-0.24357299999999998,0.867054,0.422486
1629800399613,-0.242536,0.867908,0.424255
1629800399623,-0.243329,0.86498,0.423523
1629800399633,-0.243024,0.862784,0.422547
1629800399642,-0.243085,0.863333,0.422303
1629800399652,-0.243634,0.863089,0.42340099999999997
1629800399661,-0.243024,0.8644919999999999,0.424743
1629800399671,-0.243634,0.865529,0.423584
1629800399681,-0.24357299999999998,0.864858,0.422852
1629800399690,-0.24357299999999998,0.865712,0.423828
1629800399700,-0.24339,0.865468,0.423218
1629800399709,-0.244854,0.86559,0.424499
1629800399719,-0.24418299999999998,0.866261,0.423645
1629800399729,-0.244671,0.864004,0.424255
1629800399738,-0.246501,0.8635769999999999,0.422242
1629800399748,-0.244915,0.866261,0.423889
1629800399757,-0.245037,0.866017,0.42553599999999997
1629800399767,-0.246074,0.866261,0.428464
1629800399777,-0.246379,0.865224,0.42639
1629800399786,-0.244122,0.865285,0.424804
1629800399796,-0.244549,0.86437,0.424743
1629800399805,-0.245037,0.8620519999999999,0.423828
1629800399815,-0.244122,0.863211,0.424499
1629800399825,-0.24265799999999998,0.8635769999999999,0.42340099999999997
1629800399834,-0.243085,0.864614,0.42431599999999997
1629800399844,-0.241987,0.864614,0.423767
1629800399853,-0.242292,0.866017,0.423889
1629800399863,-0.242475,0.865163,0.425658
1629800399873,-0.242414,0.865041,0.423828
1629800399882,-0.242597,0.865834,0.424133
1629800399892,-0.23973,0.865651,0.422852
1629800399901,-0.241682,0.865407,0.422608
1629800399911,-0.24095,0.866322,0.42334
1629800399921,-0.240828,0.866688,0.423767
1629800399930,-0.24235299999999999,0.86681,0.424865
1629800399940,-0.24143799999999999,0.865956,0.42334
1629800399949,-0.241682,0.866688,0.424255
1629800399959,-0.240828,0.867969,0.424255
1629800399969,-0.24174299999999999,0.868152,0.425658
1629800399978,-0.243512,0.864126,0.422791
1629800399988,-0.243756,0.863943,0.425048
1629800399997,-0.244366,0.863638,0.426085
1629800400007,-0.244427,0.861686,0.42614599999999997
1629800400017,-0.244366,0.862845,0.426634
1629800400026,-0.24479299999999998,0.8638819999999999,0.42639
1629800400036,-0.24570799999999998,0.863638,0.427305
1629800400045,-0.244244,0.864248,0.425719
1629800400055,-0.246196,0.862723,0.426024
1629800400065,-0.245464,0.864065,0.425902
1629800400074,-0.245525,0.863516,0.42578
1629800400084,-0.244854,0.863089,0.42523099999999997
1629800400093,-0.24479299999999998,0.863516,0.425414
1629800400103,-0.244,0.864248,0.425292
1629800400113,-0.244305,0.865712,0.427122
1629800400122,-0.24448799999999998,0.86437,0.426085
1629800400132,-0.244671,0.864858,0.426268
1629800400141,-0.245586,0.865346,0.425719
1629800400151,-0.243634,0.867115,0.425597
1629800400161,-0.244,0.866932,0.42645099999999997
1629800400170,-0.244244,0.865163,0.425719
1629800400180,-0.24357299999999998,0.8651019999999999,0.42517
1629800400189,-0.244122,0.86498,0.42578
1629800400199,-0.243146,0.865346,0.424438
1629800400209,-0.243634,0.86437,0.425292
1629800400218,-0.24296299999999998,0.863516,0.42401099999999997
1629800400228,-0.242902,0.863821,0.42395
1629800400237,-0.242414,0.864919,0.42492599999999997
1629800400247,-0.24461,0.86437,0.427122
1629800400257,-0.24278,0.865529,0.426207
1629800400266,-0.241926,0.866566,0.42584099999999997
1629800400276,-0.24204799999999999,0.867786,0.42492599999999997
1629800400285,-0.243146,0.865163,0.424194
1629800400295,-0.24326799999999998,0.865407,0.424987
1629800400305,-0.243756,0.865834,0.42614599999999997
1629800400314,-0.24339,0.865651,0.425719
1629800400324,-0.24448799999999998,0.869067,0.427732
1629800400333,-0.244305,0.869189,0.427305
1629800400343,-0.245464,0.867603,0.426695
1629800400353,-0.245464,0.867725,0.42767099999999997
1629800400362,-0.24631799999999998,0.867725,0.43127
1629800400372,-0.247721,0.864309,0.43127
1629800400381,-0.246745,0.866139,0.43224599999999996
1629800400391,-0.24912399999999998,0.870165,0.434747
1629800400401,-0.24973399999999998,0.86742,0.436516
1629800400410,-0.25315,0.86803,0.43981
1629800400420,-0.254675,0.868091,0.442006
1629800400429,-0.255712,0.866444,0.442921
1629800400439,-0.255956,0.865468,0.446398
1629800400449,-0.26108,0.85827,0.45261999999999997
1629800400458,-0.25821299999999997,0.8513769999999999,0.45414499999999997
1629800400468,-0.262483,0.849059,0.458781
1629800400477,-0.260836,0.848754,0.460184
1629800400487,-0.265228,0.834846,0.468541
1629800400497,-0.268766,0.830942,0.475495
1629800400506,-0.274378,0.827465,0.483364
1629800400516,-0.275171,0.824171,0.48684099999999997
1629800400525,-0.28255199999999997,0.81923,0.491904
1629800400535,-0.285968,0.8155089999999999,0.494222
1629800400545,-0.29243399999999997,0.8094089999999999,0.499407
1629800400554,-0.295972,0.801906,0.504287
1629800400564,-0.30506099999999997,0.794037,0.513132
1629800400573,-0.310978,0.7847649999999999,0.5176459999999999
1629800400583,-0.315675,0.785924,0.521672
1629800400593,-0.322324,0.784643,0.532164
1629800400602,-0.323361,0.773602,0.532713
1629800400612,-0.33122999999999997,0.764879,0.539667
1629800400621,-0.3355,0.750605,0.543449
1629800400631,-0.34385699999999997,0.744993,0.5477799999999999
1629800400641,-0.350811,0.739259,0.553148
1629800400650,-0.356545,0.7363919999999999,0.558028
1629800400660,-0.360327,0.733708,0.56425
1629800400669,-0.36667099999999997,0.7275469999999999,0.5712039999999999
1629800400679,-0.372283,0.7172379999999999,0.574193
1629800400689,-0.37746799999999997,0.715896,0.576511
1629800400698,-0.379237,0.717482,0.578829
1629800400708,-0.382836,0.709796,0.58316
1629800400717,-0.38491,0.699426,0.585539
1629800400727,-0.391193,0.691252,0.5927979999999999
1629800400737,-0.397293,0.687043,0.595909
1629800400746,-0.397781,0.685518,0.596214
1629800400756,-0.403576,0.6867989999999999,0.602009
1629800400765,-0.401868,0.68503,0.603107
1629800400775,-0.40565,0.6810039999999999,0.605547
1629800400785,-0.408822,0.670695,0.609695
1629800400794,-0.411445,0.659898,0.610061
1629800400804,-0.420656,0.651419,0.612745
1629800400813,-0.420351,0.649284,0.6134769999999999
1629800400823,-0.42675599999999997,0.65026,0.62098
1629800400833,-0.427305,0.648552,0.62464
1629800400842,-0.42889099999999997,0.647759,0.629093
1629800400852,-0.433283,0.644587,0.6341559999999999
1629800400861,-0.434076,0.641903,0.6396459999999999
1629800400871,-0.437797,0.635559,0.644648
1629800400881,-0.443836,0.6329359999999999,0.645868
1629800400890,-0.445849,0.6329359999999999,0.646844
1629800400900,-0.450546,0.629703,0.649162
1629800400909,-0.44365299999999996,0.62464,0.651114
1629800400919,-0.455426,0.617076,0.6587999999999999
1629800400929,-0.45475499999999996,0.608109,0.6587999999999999
1629800400938,-0.456768,0.598654,0.660996
1629800400948,-0.459696,0.591151,0.660203
1629800400957,-0.461648,0.58621,0.661789
1629800400967,-0.464149,0.578341,0.662094
1629800400977,-0.467138,0.572912,0.663314
1629800400986,-0.463783,0.570106,0.662216
1629800400996,-0.466894,0.56425,0.665998
1629800401005,-0.468419,0.557662,0.668743
1629800401015,-0.470127,0.553392,0.672342
1629800401025,-0.469944,0.549732,0.673562
1629800401034,-0.470005,0.547597,0.676856
1629800401044,-0.470798,0.548939,0.678686
1629800401053,-0.46848,0.548268,0.678808
1629800401063,-0.466528,0.547719,0.678869
1629800401073,-0.465613,0.544547,0.680516
1629800401082,-0.467809,0.541192,0.683932
1629800401092,-0.466833,0.540216,0.6816139999999999
1629800401101,-0.46665,0.536678,0.678808
1629800401111,-0.464759,0.540216,0.677832
1629800401121,-0.462868,0.544303,0.676246
1629800401130,-0.461953,0.547292,0.677283
1629800401140,-0.459513,0.554002,0.680272
1629800401149,-0.459696,0.559492,0.684298
1629800401159,-0.457866,0.5635789999999999,0.6852739999999999
1629800401169,-0.458537,0.564677,0.6874089999999999
1629800401178,-0.456158,0.565165,0.685152
1629800401188,-0.45536499999999996,0.564006,0.684237
1629800401197,-0.454328,0.56608,0.680882
1629800401207,-0.453413,0.567971,0.679052
1629800401217,-0.452498,0.569191,0.679052
1629800401226,-0.450668,0.57157,0.677832
1629800401236,-0.449692,0.575047,0.676795
1629800401245,-0.449082,0.577975,0.67771
1629800401255,-0.44773999999999997,0.579622,0.678503
1629800401265,-0.449326,0.580659,0.681736
1629800401274,-0.450912,0.580842,0.6822239999999999
1629800401284,-0.451156,0.580537,0.674294
1629800401293,-0.448228,0.5842579999999999,0.668072
1629800401303,-0.44426299999999996,0.589199,0.669963
1629800401313,-0.445361,0.592005,0.675636
1629800401322,-0.442311,0.594262,0.678747
1629800401332,-0.44164,0.59353,0.683688
1629800401341,-0.441579,0.5882229999999999,0.684847
1629800401351,-0.443165,0.582855,0.686982
1629800401361,-0.442372,0.577975,0.686616
1629800401370,-0.44408,0.572485,0.690276
1629800401380,-0.4453,0.568032,0.688873
1629800401389,-0.445605,0.569313,0.685091
1629800401399,-0.444812,0.571936,0.682102
1629800401409,-0.44121299999999997,0.574376,0.681736
1629800401418,-0.441335,0.574986,0.680638
1629800401428,-0.44151799999999997,0.573888,0.683627
1629800401437,-0.441335,0.5718139999999999,0.686921
1629800401447,-0.441579,0.56608,0.689056
1629800401457,-0.442067,0.560956,0.6877139999999999
1629800401466,-0.44151799999999997,0.559431,0.690642
1629800401476,-0.441884,0.558394,0.6922889999999999
1629800401485,-0.440725,0.555344,0.691496
1629800401495,-0.44225,0.551806,0.693082
1629800401505,-0.440847,0.550098,0.6925939999999999
1629800401514,-0.44286,0.549,0.693326
1629800401524,-0.442494,0.550525,0.692716
1629800401533,-0.443714,0.552843,0.694241
1629800401543,-0.443287,0.555588,0.696437
1629800401553,-0.44121299999999997,0.557418,0.6954
1629800401562,-0.44212799999999997,0.560285,0.694058
1629800401572,-0.441274,0.5605289999999999,0.6925939999999999
1629800401581,-0.44060299999999997,0.560651,0.693082
1629800401591,-0.441701,0.559858,0.693082
1629800401601,-0.440054,0.559065,0.69113
1629800401610,-0.442006,0.558638,0.689483
1629800401620,-0.441152,0.557357,0.687531
1629800401629,-0.44090799999999997,0.559675,0.6889339999999999
1629800401639,-0.44273799999999996,0.561017,0.692167
1629800401649,-0.44225,0.562786,0.692228
1629800401658,-0.443287,0.563762,0.694607
1629800401668,-0.444812,0.564616,0.696803
1629800401677,-0.445544,0.5632739999999999,0.695705
1629800401687,-0.444324,0.5617489999999999,0.6928989999999999
1629800401697,-0.445483,0.560041,0.692228
1629800401706,-0.444873,0.559065,0.6880189999999999
1629800401716,-0.445483,0.560956,0.685518
1629800401725,-0.445727,0.561261,0.684542
1629800401735,-0.445178,0.564372,0.682956
1629800401745,-0.444446,0.568032,0.686128
1629800401754,-0.444873,0.567788,0.687226
1629800401764,-0.44591,0.565531,0.6877139999999999
1629800401773,-0.447557,0.56486,0.692533
1629800401783,-0.44956999999999997,0.561993,0.693997
1629800401793,-0.453596,0.561871,0.699182
1629800401802,-0.454206,0.557601,0.698572
1629800401812,-0.457805,0.555283,0.698206
1629800401821,-0.458232,0.55205,0.694302
1629800401831,-0.460794,0.550586,0.693692
1629800401841,-0.463295,0.550525,0.691618
1629800401850,-0.465308,0.551257,0.691252
1629800401860,-0.46433199999999997,0.552477,0.6907639999999999
1629800401869,-0.467748,0.552416,0.6913739999999999
1629800401879,-0.468175,0.552782,0.693082
1629800401889,-0.46890699999999996,0.553453,0.694241
1629800401898,-0.470066,0.554124,0.696681
1629800401908,-0.47207899999999997,0.551501,0.696925
1629800401917,-0.472506,0.548024,0.69418
1629800401927,-0.474275,0.545462,0.6928989999999999
1629800401937,-0.47390899999999997,0.542717,0.691252
1629800401946,-0.473787,0.539911,0.6892389999999999
1629800401956,-0.474275,0.537532,0.688568
1629800401965,-0.475373,0.535641,0.688751
1629800401975,-0.474946,0.536556,0.688263
1629800401985,-0.47421399999999997,0.537044,0.688141
1629800401994,-0.47665399999999997,0.537166,0.688202
1629800402004,-0.475922,0.5380199999999999,0.687287
1629800402013,-0.475373,0.540521,0.68686
1629800402023,-0.476227,0.540887,0.6846639999999999
1629800402033,-0.477203,0.542656,0.67954
1629800402042,-0.477508,0.543754,0.677893
1629800402052,-0.477935,0.543022,0.678259
1629800402061,-0.476837,0.543876,0.683261
1629800402071,-0.476898,0.545523,0.6855789999999999
1629800402081,-0.476166,0.546499,0.686555
1629800402090,-0.476715,0.546926,0.689422
1629800402100,-0.478118,0.548512,0.69052
1629800402109,-0.475983,0.551745,0.68808
1629800402119,-0.47519,0.550891,0.684237
1629800402129,-0.476837,0.550891,0.6800889999999999
1629800402138,-0.47390899999999997,0.553392,0.676124
1629800402148,-0.475617,0.555283,0.675087
1629800402157,-0.475556,0.556747,0.674416
1629800402167,-0.476898,0.556503,0.676063
1629800402177,-0.475312,0.556991,0.6771
1629800402186,-0.475495,0.559614,0.678808
1629800402196,-0.47519,0.560346,0.67954
1629800402205,-0.476227,0.559858,0.68076
1629800402215,-0.476898,0.560651,0.6791739999999999
1629800402225,-0.474031,0.561078,0.674904
1629800402234,-0.47329899999999997,0.5626639999999999,0.671488
1629800402244,-0.471896,0.56425,0.6685599999999999
1629800402253,-0.471896,0.56547,0.665266
1629800402263,-0.470493,0.569008,0.6636799999999999
1629800402273,-0.468724,0.572302,0.663192
1629800402282,-0.468419,0.573949,0.6624599999999999
1629800402292,-0.46665,0.577182,0.659593
1629800402301,-0.466955,0.57828,0.6600199999999999
1629800402311,-0.465186,0.580903,0.657336
1629800402321,-0.468419,0.580171,0.657214
1629800402330,-0.468175,0.579012,0.6606299999999999
1629800402340,-0.470249,0.580232,0.6630699999999999
1629800402349,-0.46909,0.581574,0.665449
1629800402359,-0.470188,0.58316,0.666791
1629800402369,-0.469151,0.585051,0.665022
1629800402378,-0.468663,0.586942,0.661789
1629800402388,-0.46768699999999996,0.588284,0.657702
1629800402397,-0.466223,0.590724,0.654225
1629800402407,-0.466223,0.593347,0.655323
1629800402417,-0.464088,0.591761,0.652883
1629800402426,-0.462624,0.594445,0.650626
1629800402436,-0.463478,0.595726,0.650687
1629800402445,-0.462563,0.596946,0.65148
1629800402455,-0.461465,0.598288,0.653127
1629800402465,-0.46219699999999997,0.595665,0.653005
1629800402474,-0.461465,0.593774,0.651907
1629800402484,-0.461038,0.594811,0.651663
1629800402493,-0.462319,0.59292,0.652273
1629800402503,-0.461831,0.591395,0.652151
1629800402513,-0.461038,0.5915779999999999,0.650931
1629800402522,-0.459025,0.59231,0.650809
1629800402532,-0.458415,0.596702,0.65087
1629800402541,-0.458415,0.598166,0.655018
1629800402551,-0.460489,0.59597,0.655018
1629800402561,-0.460184,0.595482,0.654835
1629800402570,-0.461953,0.5937129999999999,0.65209
1629800402580,-0.461953,0.592859,0.654164
1629800402589,-0.460855,0.595116,0.653127
1629800402599,-0.46128199999999997,0.594994,0.653188
1629800402609,-0.460001,0.59597,0.653066
1629800402618,-0.462319,0.595421,0.65392
1629800402628,-0.462258,0.595421,0.653188
1629800402637,-0.46128199999999997,0.594872,0.653493
1629800402647,-0.461831,0.594384,0.651785
1629800402657,-0.461038,0.594384,0.650199
1629800402666,-0.461404,0.594384,0.64965
1629800402676,-0.462685,0.594262,0.65148
1629800402685,-0.462624,0.594445,0.652822
1629800402695,-0.462685,0.595421,0.653676
1629800402705,-0.46280699999999997,0.595177,0.651236
1629800402714,-0.460855,0.596519,0.647881
1629800402724,-0.45884199999999997,0.600972,0.646722
1629800402733,-0.459635,0.60085,0.647088
1629800402743,-0.45933,0.603473,0.645258
1629800402753,-0.457622,0.606767,0.644343
1629800402762,-0.457195,0.607499,0.643367
1629800402772,-0.458293,0.606035,0.642635
1629800402781,-0.45811,0.606767,0.6430009999999999
1629800402791,-0.457134,0.608231,0.642269
1629800402801,-0.457744,0.607255,0.6433059999999999
1629800402810,-0.458659,0.607072,0.64172
1629800402820,-0.45884199999999997,0.607804,0.640195
1629800402829,-0.458232,0.608536,0.6402559999999999
1629800402839,-0.45884199999999997,0.610061,0.640622
1629800402849,-0.459391,0.609878,0.639463
1629800402858,-0.460001,0.610854,0.640134
1629800402868,-0.459025,0.611891,0.640134
1629800402877,-0.45994,0.610549,0.639829
1629800402887,-0.460306,0.611464,0.640439
1629800402897,-0.46006199999999997,0.612379,0.640317
1629800402906,-0.460123,0.610549,0.639158
1629800402916,-0.459269,0.6104269999999999,0.6387309999999999
1629800402925,-0.460611,0.611403,0.6387309999999999
1629800402935,-0.460184,0.612013,0.638182
1629800402945,-0.460001,0.612745,0.6378159999999999
1629800402954,-0.459818,0.6137819999999999,0.637633
1629800402964,-0.459696,0.615795,0.637328
1629800402973,-0.459818,0.616466,0.637572
1629800402983,-0.459513,0.6159169999999999,0.638182
1629800402993,-0.45872,0.6146969999999999,0.6369009999999999
1629800403002,-0.458659,0.614941,0.635498
1629800403012,-0.45945199999999997,0.616771,0.63562
1629800403021,-0.458964,0.616283,0.634827
1629800403031,-0.458781,0.616588,0.6347659999999999
1629800403041,-0.458415,0.616466,0.6353759999999999
1629800403050,-0.45933,0.615063,0.636718
1629800403060,-0.459635,0.61549,0.63623
1629800403069,-0.46036699999999997,0.616283,0.636352
1629800403079,-0.46036699999999997,0.616161,0.636169
1629800403089,-0.46067199999999997,0.614941,0.635498
1629800403098,-0.459635,0.613355,0.635315
1629800403108,-0.460611,0.613965,0.636047
1629800403117,-0.459513,0.613721,0.635498
1629800403127,-0.460428,0.612745,0.634095
1629800403137,-0.46036699999999997,0.61244,0.634217
1629800403146,-0.46006199999999997,0.6134769999999999,0.6347659999999999
1629800403156,-0.460794,0.613111,0.634888
1629800403165,-0.46006199999999997,0.613294,0.6344
1629800403175,-0.459696,0.6140869999999999,0.6350709999999999
1629800403185,-0.460245,0.6137819999999999,0.6353759999999999
1629800403194,-0.459818,0.612501,0.633973
1629800403204,-0.46036699999999997,0.612318,0.6335459999999999
1629800403213,-0.459635,0.612074,0.633058
1629800403223,-0.460428,0.612989,0.633668
1629800403233,-0.45994,0.612684,0.6326309999999999
1629800403242,-0.45933,0.6146969999999999,0.633363
1629800403252,-0.460489,0.614819,0.633607
1629800403261,-0.462258,0.6140869999999999,0.632692
1629800403271,-0.461648,0.61549,0.6326309999999999
1629800403281,-0.46128199999999997,0.612623,0.63379
1629800403290,-0.460611,0.614575,0.6320209999999999
1629800403300,-0.463234,0.6140869999999999,0.6320209999999999
1629800403309,-0.46299,0.614331,0.6335459999999999
1629800403319,-0.463234,0.617198,0.634644
1629800403329,-0.464698,0.617198,0.6359859999999999
1629800403338,-0.46299,0.618418,0.637023
1629800403348,-0.462746,0.617869,0.636352
1629800403357,-0.461831,0.616771,0.6344609999999999
1629800403367,-0.46189199999999997,0.617076,0.633424
1629800403377,-0.461648,0.616344,0.631838
1629800403386,-0.46219699999999997,0.617259,0.632814
1629800403396,-0.460855,0.618235,0.632265
1629800403405,-0.46116,0.618784,0.6320209999999999
1629800403415,-0.461404,0.617869,0.633058
1629800403425,-0.45994,0.619028,0.632753
1629800403434,-0.45994,0.618235,0.632387
1629800403444,-0.459513,0.6180519999999999,0.630618
1629800403453,-0.458354,0.6174419999999999,0.629276
1629800403463,-0.458171,0.618479,0.628422
1629800403473,-0.459696,0.61915,0.629825
1629800403482,-0.458903,0.618479,0.62891
1629800403492,-0.457317,0.620065,0.627873
1629800403501,-0.458049,0.620431,0.628422
1629800403511,-0.459818,0.62037,0.63013
1629800403521,-0.459574,0.620004,0.627629
1629800403530,-0.45933,0.621712,0.628422
1629800403540,-0.459635,0.623664,0.628422
1629800403549,-0.458659,0.622322,0.625982
1629800403559,-0.45975699999999997,0.621224,0.627568
1629800403569,-0.45914699999999997,0.622322,0.626043
1629800403578,-0.458903,0.623176,0.625311
1629800403588,-0.45872,0.622993,0.626043
1629800403597,-0.458354,0.623359,0.626287
1629800403607,-0.457988,0.624884,0.625982
1629800403617,-0.458781,0.624213,0.625677
1629800403626,-0.457622,0.626409,0.624152
1629800403636,-0.458049,0.625738,0.625189
1629800403645,-0.457744,0.624762,0.625616
1629800403655,-0.455487,0.626043,0.622444
1629800403665,-0.455792,0.627568,0.622993
1629800403674,-0.454328,0.627751,0.621712
1629800403684,-0.455792,0.630557,0.621529
1629800403693,-0.452498,0.634522,0.6204919999999999
1629800403703,-0.450607,0.6384259999999999,0.620553
1629800403713,-0.449509,0.640683,0.619028
1629800403722,-0.447557,0.644648,0.618235
1629800403732,-0.44347,0.647088,0.616039
1629800403741,-0.44408,0.649223,0.615185
1629800403751,-0.439932,0.65209,0.612074
1629800403761,-0.44103,0.655384,0.608719
1629800403770,-0.435601,0.658434,0.604388
1629800403780,-0.433893,0.661972,0.601643
1629800403789,-0.43188,0.666059,0.597373
1629800403799,-0.43041599999999997,0.670817,0.591334
1629800403809,-0.424987,0.67893,0.587552
1629800403818,-0.424987,0.689361,0.587064
1629800403828,-0.413946,0.696864,0.580476
1629800403837,-0.41175,0.705221,0.5795
1629800403847,-0.409981,0.708759,0.577304
1629800403857,-0.404125,0.7076,0.570167
1629800403866,-0.40211199999999997,0.707844,0.565531
1629800403876,-0.398879,0.708881,0.560346
1629800403885,-0.396317,0.712724,0.555466
1629800403895,-0.390522,0.7166279999999999,0.549793
1629800403905,-0.389302,0.72529,0.5468649999999999
1629800403914,-0.381067,0.736209,0.540277
1629800403924,-0.378932,0.742858,0.537898
1629800403933,-0.375882,0.745176,0.532347
1629800403943,-0.371978,0.752435,0.526491
1629800403953,-0.36789099999999997,0.760243,0.5225259999999999
1629800403962,-0.364292,0.767807,0.518378
1629800403972,-0.354288,0.774212,0.512034
1629800403981,-0.35563,0.7814099999999999,0.511485
1629800403991,-0.344223,0.787083,0.502274
1629800404001,-0.34477199999999997,0.790804,0.500261
1629800404010,-0.341051,0.791658,0.494771
1629800404020,-0.337757,0.793549,0.490379
1629800404029,-0.337147,0.795196,0.488427
1629800404039,-0.335622,0.797026,0.486475
1629800404049,-0.333426,0.800808,0.484828
1629800404058,-0.332511,0.803248,0.482449
1629800404068,-0.331352,0.805078,0.477447
1629800404077,-0.327326,0.808982,0.47299399999999997
1629800404087,-0.325496,0.8121539999999999,0.47146899999999997
1629800404097,-0.3233,0.816485,0.470432
1629800404106,-0.319884,0.819779,0.467809
1629800404116,-0.319274,0.821609,0.467504
1629800404125,-0.319884,0.81984,0.46848
1629800404135,-0.319091,0.820633,0.466955
1629800404145,-0.318847,0.821121,0.465979
1629800404154,-0.317444,0.82228,0.465491
1629800404164,-0.316285,0.822829,0.463783
1629800404173,-0.316224,0.821914,0.463051
1629800404183,-0.315797,0.8245979999999999,0.460916
1629800404193,-0.314943,0.826794,0.460306
1629800404202,-0.314577,0.829539,0.460001
