timestamp,ax,ay,az
1629800454390,-0.211609,-0.19794499999999998,0.943792
1629800454400,-0.210511,-0.19763999999999998,0.94367
1629800454410,-0.210572,-0.198189,0.944585
1629800454419,-0.210389,-0.198067,0.94489
1629800454429,-0.209413,-0.198921,0.941901
1629800454438,-0.20935199999999998,-0.201178,0.941535
1629800454448,-0.20801,-0.198616,0.942572
1629800454458,-0.20630199999999999,-0.198555,0.94123
1629800454467,-0.20630199999999999,-0.197884,0.939644
1629800454477,-0.20557,-0.196359,0.940132
1629800454486,-0.20569199999999999,-0.195017,0.943487
1629800454496,-0.206058,-0.196176,0.946232
1629800454506,-0.205265,-0.197823,0.945012
1629800454515,-0.20721699999999998,-0.198799,0.944036
1629800454525,-0.205753,-0.200568,0.942816
1629800454534,-0.204838,-0.20166599999999998,0.942145
1629800454544,-0.204777,-0.200507,0.939888
1629800454554,-0.205387,-0.201178,0.939034
1629800454563,-0.2074,-0.2013,0.937387
1629800454573,-0.20782699999999998,-0.199165,0.934703
1629800454582,-0.209413,-0.198494,0.934215
1629800454592,-0.211609,-0.197579,0.932202
1629800454602,-0.21337799999999998,-0.197091,0.931958
1629800454611,-0.213744,-0.196969,0.9333
1629800454621,-0.215269,-0.195932,0.9329339999999999
1629800454630,-0.216916,-0.195932,0.933056
1629800454640,-0.217831,-0.196176,0.934581
1629800454650,-0.218197,-0.196237,0.934276
1629800454659,-0.219478,-0.19702999999999998,0.935801
1629800454669,-0.22014899999999998,-0.196054,0.935252
1629800454678,-0.219478,-0.19672499999999998,0.935435
1629800454688,-0.21953899999999998,-0.198372,0.936167
1629800379784,-0.170312,-0.16500499999999999,0.9542229999999999
1629800379793,-0.170129,-0.166103,0.953125
1629800379803,-0.16994599999999999,-0.167994,0.953796
1629800379813,-0.169275,-0.168665,0.9533079999999999
1629800379822,-0.169397,-0.170007,0.954467
1629800379832,-0.16958,-0.169336,0.956419
1629800379841,-0.170312,-0.168177,0.955992
1629800379851,-0.168665,-0.168909,0.955321
1629800379861,-0.170739,-0.167262,0.956236
1629800379870,-0.169763,-0.166042,0.955992
1629800379880,-0.170007,-0.167201,0.954284
1629800379889,-0.17025099999999999,-0.165432,0.95282
1629800379899,-0.171349,-0.164944,0.952942
1629800379909,-0.171044,-0.165859,0.95343
1629800379918,-0.170129,-0.163785,0.952637
1629800379928,-0.169885,-0.162626,0.954467
1629800379937,-0.170434,-0.162748,0.95465
1629800379947,-0.171105,-0.161162,0.953247
1629800379957,-0.172325,-0.162443,0.9514779999999999
1629800379966,-0.170922,-0.162809,0.949709
1629800379976,-0.17025099999999999,-0.163419,0.9502579999999999
1629800379985,-0.170312,-0.162199,0.951356
1629800379995,-0.170068,-0.162443,0.952515
1629800380005,-0.169336,-0.162321,0.952637
1629800380014,-0.169214,-0.162504,0.953369
1629800380024,-0.16897,-0.164456,0.952881
1629800380033,-0.16897,-0.164883,0.954467
1629800380043,-0.168848,-0.165798,0.954772
1629800380053,-0.168177,-0.167384,0.955321
1629800380062,-0.16836,-0.166957,0.95404
1629800380072,-0.168299,-0.166896,0.953857
1629800380081,-0.168421,-0.166164,0.9533079999999999
1629800380091,-0.168055,-0.165066,0.955199
1629800380101,-0.167933,-0.164944,0.9539179999999999
1629800380110,-0.168604,-0.16530999999999998,0.953125
1629800380120,-0.168665,-0.166103,0.953491
1629800380129,-0.16836,-0.16591999999999998,0.953491
1629800380139,-0.168238,-0.167994,0.955016
1629800380149,-0.168665,-0.166042,0.955504
1629800380158,-0.169214,-0.165798,0.955199
1629800380168,-0.168665,-0.16652999999999998,0.952637
1629800380177,-0.170007,-0.166408,0.953979
1629800380187,-0.169336,-0.166042,0.953796
1629800380197,-0.168909,-0.166286,0.951966
1629800380206,-0.16897,-0.167262,0.95282
1629800380216,-0.169214,-0.166408,0.951722
1629800380225,-0.170007,-0.16530999999999998,0.951722
1629800380235,-0.170617,-0.164944,0.952942
1629800380245,-0.169763,-0.165676,0.95221
1629800380254,-0.169275,-0.166408,0.95343
1629800380264,-0.168787,-0.16561499999999998,0.9542229999999999
1629800380273,-0.168726,-0.166896,0.953552
1629800380283,-0.168482,-0.167262,0.954101
1629800380293,-0.167872,-0.167567,0.95282
1629800380302,-0.167811,-0.166591,0.9530029999999999
1629800380312,-0.168482,-0.165798,0.953186
1629800380321,-0.167689,-0.16561499999999998,0.953247
1629800380331,-0.167323,-0.165249,0.949892
1629800380341,-0.16836,-0.164334,0.9478179999999999
1629800380350,-0.168055,-0.16439499999999999,0.9487329999999999
1629800380360,-0.166591,-0.163968,0.950929
1629800380369,-0.168116,-0.163114,0.952515
1629800380379,-0.167201,-0.164212,0.953552
1629800380389,-0.167689,-0.165798,0.952515
1629800380398,-0.167689,-0.167689,0.951295
1629800380408,-0.166896,-0.168482,0.952271
1629800380417,-0.165798,-0.170373,0.9530029999999999
1629800380427,-0.165066,-0.17116599999999998,0.954406
1629800380437,-0.16652999999999998,-0.17202,0.954589
1629800380446,-0.165981,-0.173667,0.955199
1629800380456,-0.16652999999999998,-0.174033,0.955016
1629800380465,-0.166591,-0.175192,0.953186
1629800380475,-0.166286,-0.176473,0.953857
1629800380485,-0.165859,-0.17885199999999998,0.95465
1629800380494,-0.167018,-0.17751,0.9542229999999999
1629800380504,-0.16561499999999998,-0.17641199999999999,0.954467
1629800380513,-0.166347,-0.175741,0.955565
1629800380523,-0.167628,-0.173484,0.95526
1629800380533,-0.167933,-0.174887,0.9548329999999999
1629800380542,-0.166774,-0.17641199999999999,0.954894
1629800380552,-0.167384,-0.175558,0.95404
1629800380561,-0.168482,-0.175009,0.954955
1629800380571,-0.168909,-0.174887,0.9542229999999999
1629800380581,-0.168909,-0.173545,0.952149
1629800380590,-0.16713999999999998,-0.170312,0.952515
1629800380600,-0.16775,-0.169519,0.955077
1629800380609,-0.168848,-0.16836,0.952576
1629800380619,-0.16897,-0.167933,0.949709
1629800380629,-0.169824,-0.167628,0.949465
1629800380638,-0.170068,-0.16683499999999998,0.94855
1629800380648,-0.169702,-0.16836,0.949831
1629800380657,-0.170922,-0.168543,0.951417
1629800380667,-0.169519,-0.168482,0.952942
1629800380677,-0.169336,-0.168299,0.9516
1629800380686,-0.168665,-0.169458,0.952149
1629800380696,-0.168482,-0.170678,0.952942
1629800380705,-0.167933,-0.170129,0.9526979999999999
1629800380715,-0.167201,-0.170068,0.9517829999999999
1629800380725,-0.167262,-0.171044,0.951417
1629800380734,-0.166774,-0.171288,0.951661
1629800380744,-0.168726,-0.170495,0.952942
1629800380753,-0.168238,-0.169336,0.9520879999999999
1629800380763,-0.168604,-0.169702,0.953552
1629800380773,-0.168482,-0.168604,0.951966
1629800380782,-0.168604,-0.16836,0.952576
1629800380792,-0.168543,-0.169336,0.953064
1629800380801,-0.169763,-0.16958,0.954162
1629800380811,-0.16836,-0.16958,0.953186
1629800380821,-0.168482,-0.170434,0.951722
1629800380830,-0.168726,-0.171959,0.953796
1629800380840,-0.16836,-0.172447,0.955626
1629800380849,-0.168543,-0.172569,0.9526979999999999
1629800380859,-0.168787,-0.171654,0.952149
1629800380869,-0.168909,-0.171044,0.952759
1629800380878,-0.168665,-0.16958,0.952759
1629800380888,-0.168116,-0.171044,0.952027
1629800380897,-0.169397,-0.171349,0.950014
1629800380907,-0.169397,-0.170678,0.951539
1629800380917,-0.169275,-0.171898,0.9517829999999999
1629800380926,-0.169275,-0.172264,0.951295
1629800380936,-0.169031,-0.173179,0.951722
1629800380945,-0.169397,-0.174155,0.952637
1629800380955,-0.16958,-0.173545,0.954589
1629800380965,-0.169519,-0.17269099999999998,0.95587
1629800380974,-0.170007,-0.173362,0.953674
1629800380984,-0.17019,-0.17360599999999998,0.951661
1629800380993,-0.17025099999999999,-0.17269099999999998,0.953369
1629800381003,-0.16958,-0.17324,0.953552
1629800381013,-0.169336,-0.172203,0.952454
1629800381022,-0.169641,-0.171654,0.951966
1629800381032,-0.170434,-0.169397,0.949892
1629800381041,-0.169153,-0.16836,0.947635
1629800381051,-0.16836,-0.167262,0.950685
1629800381061,-0.167933,-0.16775,0.9517829999999999
1629800381070,-0.168482,-0.16836,0.949831
1629800381080,-0.168787,-0.17055599999999999,0.9490379999999999
1629800381089,-0.169641,-0.172569,0.94916
1629800381099,-0.169702,-0.172752,0.951295
1629800381109,-0.170129,-0.173911,0.952454
1629800381118,-0.169641,-0.173728,0.953247
1629800381128,-0.169824,-0.17385,0.953979
1629800381137,-0.169824,-0.175558,0.952942
1629800381147,-0.17019,-0.175253,0.95282
1629800381157,-0.169885,-0.176534,0.952271
1629800381166,-0.170739,-0.177815,0.952759
1629800381176,-0.17055599999999999,-0.178913,0.952149
1629800381185,-0.17019,-0.17946199999999998,0.952332
1629800381195,-0.17019,-0.177083,0.951722
1629800381205,-0.170617,-0.176046,0.951356
1629800381214,-0.17055599999999999,-0.17610699999999999,0.952576
1629800381224,-0.17086099999999999,-0.17446,0.9516
1629800381233,-0.170678,-0.173972,0.95099
1629800381243,-0.169763,-0.174033,0.949587
1629800381253,-0.170068,-0.175314,0.951539
1629800381262,-0.171532,-0.173728,0.951844
1629800381272,-0.16958,-0.17330099999999998,0.950685
1629800381281,-0.167994,-0.171593,0.950136
1629800381291,-0.169275,-0.171044,0.951356
1629800381301,-0.168482,-0.17147099999999998,0.950807
1629800381310,-0.168238,-0.172569,0.95038
1629800381320,-0.16775,-0.173423,0.94916
1629800381329,-0.167506,-0.175314,0.948672
1629800381339,-0.167506,-0.176534,0.950014
1629800381349,-0.165737,-0.17824199999999998,0.951844
1629800381358,-0.166774,-0.178364,0.951722
1629800381368,-0.165371,-0.17976699999999998,0.949831
1629800381377,-0.164029,-0.180499,0.950014
1629800381387,-0.164334,-0.180682,0.9526979999999999
1629800381397,-0.163419,-0.18178,0.952149
1629800381406,-0.16500499999999999,-0.18239,0.949404
1629800381416,-0.165371,-0.18409799999999998,0.9505629999999999
1629800381425,-0.167506,-0.184159,0.951112
1629800381435,-0.168177,-0.18531799999999998,0.953735
1629800381445,-0.170312,-0.185745,0.955504
1629800381454,-0.171837,-0.185684,0.954345
1629800381464,-0.173728,-0.186904,0.951051
1629800381473,-0.17641199999999999,-0.187941,0.948367
1629800381483,-0.176656,-0.18995399999999998,0.949892
1629800381493,-0.17732699999999998,-0.191906,0.954284
1629800381502,-0.177571,-0.19276,0.955931
1629800381512,-0.176778,-0.195444,0.9533079999999999
1629800381521,-0.176534,-0.196481,0.951234
1629800381531,-0.174948,-0.196847,0.951112
1629800381541,-0.174643,-0.199409,0.952942
1629800381550,-0.174643,-0.202459,0.956541
1629800381560,-0.17360599999999998,-0.206546,0.961909
1629800381569,-0.172752,-0.212036,0.965935
1629800381579,-0.171532,-0.216916,0.964898
1629800381589,-0.171044,-0.22075899999999998,0.961299
1629800381598,-0.17086099999999999,-0.223992,0.9615429999999999
1629800381608,-0.170373,-0.226066,0.961726
1629800381617,-0.171715,-0.22569999999999998,0.9612379999999999
1629800381627,-0.174155,-0.223138,0.961116
1629800381637,-0.177205,-0.218807,0.960567
1629800381646,-0.180865,-0.214842,0.958554
1629800381656,-0.18470799999999998,-0.211304,0.959835
1629800381665,-0.187026,-0.20721699999999998,0.962702
1629800381675,-0.191052,-0.203984,0.960872
1629800381685,-0.194346,-0.199348,0.9569679999999999
1629800381694,-0.197396,-0.195383,0.951844
1629800381704,-0.19763999999999998,-0.192028,0.9472079999999999
1629800381713,-0.200629,-0.188246,0.941779
1629800381723,-0.204411,-0.18287799999999999,0.935191
1629800381733,-0.20862,-0.178303,0.92659
1629800381742,-0.210328,-0.174643,0.919392
1629800381752,-0.212097,-0.170922,0.912804
1629800381761,-0.213561,-0.169031,0.914878
1629800381771,-0.213439,-0.166713,0.924516
1629800381781,-0.216001,-0.168299,0.932141
1629800381790,-0.21770899999999999,-0.17208099999999998,0.93818
1629800381800,-0.21831899999999999,-0.172874,0.946415
1629800381809,-0.22204,-0.174826,0.943975
1629800381819,-0.224236,-0.17324,0.93818
1629800381829,-0.224602,-0.172935,0.936472
1629800381838,-0.228323,-0.174338,0.928908
1629800381848,-0.231068,-0.172447,0.926163
1629800381857,-0.234362,-0.172752,0.923052
1629800381867,-0.237473,-0.174704,0.925858
1629800381877,-0.23912,-0.177205,0.92476
1629800381886,-0.240096,-0.176351,0.9301889999999999
1629800381896,-0.24217,-0.176534,0.937387
1629800381905,-0.243451,-0.173911,0.939339
1629800381915,-0.244854,-0.169702,0.940376
1629800381925,-0.24583,-0.16652999999999998,0.94123
1629800381934,-0.247965,-0.162077,0.945195
1629800381944,-0.250161,-0.16067399999999998,0.948489
1629800381953,-0.254309,-0.156709,0.9511729999999999
1629800381963,-0.256871,-0.154025,0.95221
1629800381973,-0.261446,-0.14945,0.950014
1629800381982,-0.266204,-0.14219099999999998,0.9429379999999999
1629800381992,-0.27022999999999997,-0.137189,0.935862
1629800382001,-0.274134,-0.132248,0.9353739999999999
1629800382011,-0.273707,-0.130906,0.936838
1629800382021,-0.271328,-0.127673,0.940742
1629800382030,-0.27083999999999997,-0.12444,0.942389
1629800382040,-0.268827,-0.120902,0.9516
1629800382049,-0.265899,-0.11730299999999999,0.955809
1629800382059,-0.263764,-0.114985,0.95892
1629800382069,-0.261812,-0.115534,0.952576
1629800382078,-0.260409,-0.11895,0.948855
1629800382088,-0.259311,-0.119377,0.9545279999999999
1629800382097,-0.25498,-0.119499,0.957334
1629800382107,-0.251442,-0.113826,0.9606279999999999
1629800382117,-0.249795,-0.104127,0.963556
1629800382126,-0.247172,-0.094855,0.96868
1629800382136,-0.24235299999999999,-0.086071,0.966118
1629800382145,-0.23954699999999998,-0.078263,0.955077
1629800382155,-0.236558,-0.072773,0.944951
1629800382165,-0.229543,-0.073444,0.940315
1629800382174,-0.221125,-0.069357,0.94001
1629800382184,-0.214842,-0.064538,0.930311
1629800382193,-0.210572,-0.059597,0.916403
1629800382203,-0.206424,-0.055388,0.912499
1629800382213,-0.199653,-0.052948,0.914634
1629800382222,-0.19641999999999998,-0.052521,0.916403
1629800382232,-0.192028,-0.053801999999999996,0.915854
1629800382241,-0.186416,-0.051057,0.9211
1629800382251,-0.182146,-0.051118,0.923601
1629800382261,-0.17934,-0.047214,0.922381
1629800382270,-0.175619,-0.038551999999999996,0.920856
1629800382280,-0.1708,-0.026657,0.91683
1629800382289,-0.168909,-0.012505,0.913231
1629800382299,-0.164517,0.001037,0.9079849999999999
1629800382309,-0.159698,0.016714,0.906826
1629800382318,-0.15921,0.029096999999999998,0.903227
1629800382328,-0.15975899999999998,0.032025,0.899811
1629800382337,-0.158295,0.025863999999999998,0.9088999999999999
1629800382347,-0.156465,0.022265,0.943914
1629800382357,-0.150304,0.012871,0.976183
1629800382366,-0.144204,0.0073809999999999995,0.991494
1629800382376,-0.143716,0.006161,1.000644
1629800382385,-0.139141,0.004026,1.013881
1629800382395,-0.133712,0.002806,1.023702
1629800382405,-0.128283,-0.004758,1.027423
1629800382414,-0.125416,-0.008967,1.0349869999999999
1629800382424,-0.122915,-0.011346,1.04188
1629800382433,-0.122366,-0.011285,1.048956
1629800382443,-0.12254899999999999,-0.008784,1.051579
1629800382453,-0.120841,-0.007808,1.046333
1629800382462,-0.11962099999999999,-0.008173999999999999,1.03639
1629800382472,-0.11809599999999999,-0.010248,1.02785
1629800382481,-0.116815,-0.012383,1.01504
1629800382491,-0.118157,-0.010614,1.002901
1629800382501,-0.118645,-0.014152,0.9980209999999999
1629800382510,-0.118035,-0.018056,0.99491
1629800382520,-0.11895,-0.022692,0.995703
1629800382529,-0.120597,-0.02989,0.997838
1629800382539,-0.124318,-0.036356,0.996374
1629800382549,-0.127795,-0.047275,0.993812
1629800382558,-0.131821,-0.056303,0.985516
1629800382568,-0.136579,-0.063806,0.977891
1629800382577,-0.141642,-0.069601,0.968253
1629800382587,-0.146949,-0.06527,0.9594079999999999
1629800382597,-0.15451299999999998,-0.058255,0.949831
1629800382606,-0.161711,-0.052337999999999996,0.944341
1629800382616,-0.16836,-0.043432,0.9429379999999999
1629800382625,-0.174399,-0.033367,0.940986
1629800382635,-0.180072,-0.024399999999999998,0.945134
1629800382645,-0.182695,-0.021106,0.952759
1629800382654,-0.18531799999999998,-0.016409,0.956175
1629800382664,-0.188917,-0.010309,0.955809
1629800382673,-0.191723,-0.0062829999999999995,0.9551379999999999
1629800382683,-0.19178399999999998,-0.003294,0.952454
1629800382693,-0.190625,0.002745,0.948977
1629800382702,-0.19154,0.0073809999999999995,0.944097
1629800382712,-0.19025899999999998,0.011712,0.941596
1629800382721,-0.189283,0.011346,0.9414129999999999
1629800382731,-0.186538,0.010858,0.941779
1629800382741,-0.184769,0.0070149999999999995,0.943731
1629800382750,-0.183976,-0.001098,0.948184
1629800382760,-0.18501299999999998,-0.012322,0.953186
1629800382769,-0.186416,-0.021716,0.958127
1629800382779,-0.18788,-0.026900999999999998,0.961421
1629800382789,-0.19178399999999998,-0.03538,0.96502
1629800382798,-0.19215,-0.043676,0.96502
1629800382808,-0.194102,-0.050263999999999996,0.96624
1629800382817,-0.196359,-0.056119999999999996,0.966789
1629800382827,-0.197091,-0.060268,0.967643
1629800382837,-0.198677,-0.063867,0.971425
1629800382846,-0.200812,-0.06649,0.97295
1629800382856,-0.202642,-0.071187,0.970998
1629800382865,-0.204167,-0.07259,0.9675819999999999
1629800382875,-0.20782699999999998,-0.072712,0.967826
1629800382885,-0.209474,-0.071614,0.970144
1629800382894,-0.211182,-0.069662,0.97173
1629800382904,-0.213256,-0.066429,0.97539
1629800382913,-0.214842,-0.06466,0.9785619999999999
1629800382923,-0.21777,-0.06283,0.978928
1629800382933,-0.218563,-0.061671,0.977708
1629800382942,-0.219112,-0.059352999999999996,0.974719
1629800382952,-0.219661,-0.057583999999999996,0.974109
1629800382961,-0.21953899999999998,-0.054839,0.97295
1629800382971,-0.219112,-0.053009,0.9699
1629800382981,-0.21923399999999998,-0.049958999999999996,0.965874
1629800382990,-0.218502,-0.046299,0.962031
1629800383000,-0.217587,-0.043798,0.9594079999999999
1629800383009,-0.215635,-0.040138,0.956419
1629800383019,-0.216306,-0.036722,0.95282
1629800383029,-0.216184,-0.033611,0.9478179999999999
1629800383038,-0.216245,-0.032452,0.942816
1629800383048,-0.21801399999999999,-0.030439,0.939888
1629800383057,-0.218502,-0.027694,0.937875
1629800383067,-0.219356,-0.02623,0.937692
1629800383077,-0.221918,-0.023729,0.939644
1629800383086,-0.222894,-0.023119,0.945256
1629800383096,-0.224968,-0.025071,0.949587
1629800383105,-0.225151,-0.024278,0.950014
1629800383115,-0.22569999999999998,-0.021899,0.948672
1629800383125,-0.228262,-0.019398,0.951356
1629800383134,-0.228994,-0.017995,0.953796
1629800383144,-0.229543,-0.018605,0.9526979999999999
1629800383153,-0.23033599999999999,-0.018543999999999998,0.949892
1629800383163,-0.230458,-0.019764,0.948916
1629800383173,-0.229665,-0.024278,0.950075
1629800383182,-0.228811,-0.02745,0.952515
1629800383192,-0.228933,-0.027999,0.951844
1629800383201,-0.228933,-0.030560999999999998,0.954589
1629800383211,-0.226066,-0.034282,0.959042
1629800383221,-0.225212,-0.039894,0.9624579999999999
1629800383230,-0.225578,-0.040748,0.962519
1629800383240,-0.225883,-0.043798,0.962031
1629800383249,-0.225456,-0.045384,0.962885
1629800383259,-0.225944,-0.047397,0.962214
1629800383269,-0.225151,-0.051422999999999996,0.963129
1629800383278,-0.226066,-0.052337999999999996,0.963068
1629800383288,-0.227286,-0.05185,0.962885
1629800383297,-0.22875,-0.051606,0.964227
1629800383307,-0.229665,-0.050568999999999996,0.964044
1629800383317,-0.231983,-0.049044,0.963129
1629800383326,-0.23308099999999998,-0.047763,0.962397
1629800383336,-0.233569,-0.046787,0.96136
1629800383345,-0.232532,-0.043676,0.961604
1629800383355,-0.23308099999999998,-0.041541,0.963556
1629800383365,-0.23302,-0.038979,0.967399
1629800383374,-0.233752,-0.042822,0.969473
1629800383384,-0.232288,-0.045506,0.967155
1629800383393,-0.232105,-0.047640999999999996,0.961604
1629800383403,-0.229543,-0.050996,0.955687
1629800383413,-0.228018,-0.052643,0.951905
1629800383422,-0.22539499999999998,-0.055022,0.9496479999999999
1629800383432,-0.22197899999999998,-0.056729999999999996,0.9502579999999999
1629800383441,-0.22106399999999998,-0.054473,0.953247
1629800383451,-0.220271,-0.052337999999999996,0.955687
1629800383461,-0.219295,-0.052337999999999996,0.953674
1629800383470,-0.21777,-0.053496999999999996,0.952576
1629800383480,-0.217526,-0.05734,0.952515
1629800383489,-0.216062,-0.05795,0.952515
1629800383499,-0.215086,-0.059047999999999996,0.9530029999999999
1629800383509,-0.215757,-0.05978,0.951356
1629800383518,-0.214659,-0.058926,0.951722
1629800383528,-0.215696,-0.058498999999999995,0.952027
1629800383537,-0.217404,-0.058377,0.9516
1629800383547,-0.217648,-0.058193999999999996,0.951905
1629800383557,-0.217648,-0.058193999999999996,0.9542229999999999
1629800383566,-0.216916,-0.060939,0.956236
1629800383576,-0.217892,-0.060024,0.9560529999999999
1629800383585,-0.218502,-0.060695,0.952332
1629800383595,-0.219356,-0.062647,0.950685
1629800383605,-0.218502,-0.064294,0.949099
1629800383614,-0.216794,-0.066856,0.948062
1629800383624,-0.216733,-0.069418,0.949526
1629800383633,-0.21770899999999999,-0.06893,0.950685
1629800383643,-0.21923399999999998,-0.068198,0.952149
1629800383653,-0.220393,-0.068137,0.953552
1629800383662,-0.222528,-0.068686,0.954406
1629800383672,-0.22386999999999999,-0.068564,0.956907
1629800383681,-0.225029,-0.06893,0.958554
1629800383691,-0.22813999999999998,-0.066795,0.960079
1629800383701,-0.228628,-0.065514,0.962397
1629800383710,-0.23058,-0.063684,0.962214
1629800383720,-0.230824,-0.063928,0.95953
1629800383729,-0.23155599999999998,-0.065331,0.9557479999999999
1629800383739,-0.2318,-0.066002,0.9542229999999999
1629800383749,-0.232898,-0.066002,0.953674
1629800383758,-0.232349,-0.066856,0.954284
1629800383768,-0.234179,-0.066551,0.948611
1629800383777,-0.235216,-0.065331,0.945866
1629800383787,-0.237473,-0.06161,0.951722
1629800383797,-0.23802199999999998,-0.061,0.957822
1629800383806,-0.239181,-0.061793,0.9594079999999999
1629800383816,-0.24015699999999998,-0.060939,0.957151
1629800383825,-0.240035,-0.063806,0.956602
1629800383835,-0.239059,-0.063745,0.95831
1629800383845,-0.23771699999999998,-0.063196,0.9572729999999999
1629800383854,-0.235521,-0.065697,0.9575779999999999
1629800383864,-0.235155,-0.064538,0.9578829999999999
1629800383873,-0.234362,-0.06405,0.957212
1629800383883,-0.23277599999999998,-0.062159,0.9542229999999999
1629800383893,-0.23119,-0.058743,0.950929
1629800383902,-0.231434,-0.056974,0.947025
1629800383912,-0.231312,-0.054351,0.946781
1629800383921,-0.230702,-0.049654,0.947269
1629800383931,-0.232105,-0.044225,0.946476
1629800383941,-0.23003099999999999,-0.041174999999999996,0.948489
1629800383950,-0.230824,-0.035623999999999996,0.95221
1629800383960,-0.2318,-0.030439,0.955626
1629800383969,-0.23607,-0.025376,0.955687
1629800383979,-0.23460599999999998,-0.021899,0.95465
1629800383989,-0.235216,-0.023485,0.95526
1629800383998,-0.23729,-0.021777,0.95587
1629800384008,-0.23588699999999999,-0.025559,0.95343
1629800384017,-0.2379,-0.026535,0.950136
1629800384027,-0.23741199999999998,-0.023972999999999998,0.951905
1629800384037,-0.237534,-0.024034,0.949404
1629800384046,-0.235826,-0.022509,0.948977
1629800384056,-0.234057,-0.023912,0.949526
1629800384065,-0.233264,-0.02257,0.9493429999999999
1629800384075,-0.22997,-0.025254,0.951234
1629800384085,-0.229299,-0.026657,0.9520879999999999
1629800384094,-0.227591,-0.028609,0.952454
1629800384104,-0.225822,-0.030927,0.951234
1629800384113,-0.225639,-0.035136,0.950807
1629800384123,-0.225822,-0.040138,0.950807
1629800384133,-0.225212,-0.044164,0.949221
1629800384142,-0.224114,-0.05063,0.948489
1629800384152,-0.224236,-0.058316,0.952271
1629800384161,-0.226249,-0.059841,0.953979
1629800384171,-0.224419,-0.064599,0.954711
1629800384181,-0.222833,-0.069662,0.960872
1629800384190,-0.222162,-0.073993,0.965081
1629800384200,-0.219356,-0.078995,0.97295
1629800384209,-0.219478,-0.084119,0.9788669999999999
1629800384219,-0.216855,-0.091683,0.9852719999999999
1629800384229,-0.214415,-0.099796,0.987407
1629800384238,-0.212646,-0.109373,0.990579
1629800384248,-0.209535,-0.119255,0.99369
1629800384257,-0.205753,-0.128527,0.9949709999999999
1629800384267,-0.201788,-0.137982,0.9983259999999999
1629800384277,-0.19794499999999998,-0.146949,1.000644
1629800384286,-0.191662,-0.158356,1.000766
1629800384296,-0.186477,-0.16958,0.9986309999999999
1629800384305,-0.180621,-0.178608,0.9977159999999999
1629800384315,-0.17610699999999999,-0.184769,0.99552
1629800384325,-0.172264,-0.184891,0.985089
1629800384334,-0.168665,-0.184159,0.9697169999999999
1629800384344,-0.165676,-0.186355,0.953857
1629800384353,-0.160552,-0.192333,0.943426
1629800384363,-0.162504,-0.18379299999999998,0.941352
1629800384373,-0.16713999999999998,-0.174155,0.9307989999999999
1629800384382,-0.168299,-0.162992,0.915488
1629800384392,-0.168238,-0.155794,0.905057
1629800384401,-0.168482,-0.14804699999999998,0.906033
1629800384411,-0.170678,-0.139385,0.905728
1629800384421,-0.168848,-0.136457,0.904874
1629800384430,-0.16469999999999999,-0.14097099999999999,0.905728
1629800384440,-0.16408999999999999,-0.147376,0.914512
1629800384449,-0.162931,-0.15311,0.920673
1629800384459,-0.162138,-0.158295,0.920917
1629800384469,-0.158783,-0.161467,0.918965
1629800384478,-0.157075,-0.159637,0.913719
1629800384488,-0.153537,-0.158722,0.911157
1629800384497,-0.153049,-0.155306,0.9006649999999999
1629800384507,-0.151158,-0.150426,0.887855
1629800384517,-0.149389,-0.145912,0.880169
1629800384526,-0.145424,-0.146766,0.867176
1629800384536,-0.140788,-0.148413,0.858819
1629800384545,-0.14005599999999999,-0.144692,0.876082
1629800384555,-0.140483,-0.145241,0.892003
1629800384565,-0.139812,-0.154757,0.894016
1629800384574,-0.13511499999999999,-0.162748,0.889014
1629800384584,-0.133224,-0.172508,0.881572
1629800384593,-0.132675,-0.175436,0.880413
1629800384603,-0.128527,-0.18727,0.893345
1629800384613,-0.11895,-0.21984399999999998,0.926956
1629800384622,-0.117242,-0.245464,0.956724
1629800384632,-0.127063,-0.254187,0.975695
1629800384641,-0.134139,-0.25376,0.976976
1629800384651,-0.136213,-0.250954,0.971059
1629800384661,-0.136518,-0.253821,0.968436
1629800384670,-0.132065,-0.255041,0.973804
1629800384680,-0.130662,-0.252601,0.985699
1629800384689,-0.132614,-0.25071,0.9952759999999999
1629800384699,-0.134322,-0.255956,1.003023
1629800384709,-0.134139,-0.279075,1.024251
1629800384718,-0.135786,-0.307623,1.053226
1629800384728,-0.142557,-0.31707799999999997,1.076711
1629800384737,-0.15237799999999999,-0.30719599999999997,1.088179
1629800384747,-0.156648,-0.295545,1.088362
1629800384757,-0.161711,-0.282796,1.095621
1629800384766,-0.164883,-0.267668,1.096292
1629800384776,-0.169214,-0.250527,1.092327
1629800384785,-0.172203,-0.23155599999999998,1.085861
1629800384795,-0.172874,-0.214049,1.075186
1629800384805,-0.17269099999999998,-0.195444,1.0614
1629800384814,-0.171837,-0.177815,1.047614
1629800384824,-0.172813,-0.161589,1.027301
1629800384833,-0.172874,-0.147864,1.000522
1629800384843,-0.17324,-0.13298,0.9745969999999999
1629800384853,-0.17202,-0.118279,0.960811
1629800384862,-0.1708,-0.104615,0.9557479999999999
1629800384872,-0.170678,-0.090463,0.9505629999999999
1629800384881,-0.170068,-0.076067,0.947147
1629800384891,-0.169702,-0.058377,0.947147
1629800384901,-0.170495,-0.043798,0.942694
1629800384910,-0.171288,-0.032695999999999996,0.934398
1629800384920,-0.172874,-0.020496,0.9271389999999999
1629800384929,-0.17580199999999999,-0.008967,0.917928
1629800384939,-0.178974,0.0030499999999999998,0.913536
1629800384949,-0.180987,0.013297999999999999,0.911462
1629800384958,-0.184769,0.02257,0.9067649999999999
1629800384968,-0.189161,0.035258,0.906643
1629800384977,-0.192333,0.043737,0.907131
1629800384987,-0.194773,0.05246,0.908717
1629800384997,-0.19763999999999998,0.062525,0.9073749999999999
1629800385006,-0.20166599999999998,0.07137,0.9070699999999999
1629800385016,-0.20618,0.078568,0.908534
1629800385025,-0.209901,0.085339,0.9107299999999999
1629800385035,-0.21520799999999998,0.092781,0.911584
1629800385045,-0.224053,0.097539,0.909144
1629800385054,-0.230702,0.102907,0.911401
1629800385064,-0.237534,0.1098,0.9192089999999999
1629800385073,-0.245159,0.114802,0.9301889999999999
1629800385083,-0.250771,0.118157,0.940376
1629800385093,-0.255346,0.124196,0.95038
1629800385102,-0.257786,0.12932,0.957456
1629800385112,-0.260226,0.130662,0.962519
1629800385121,-0.263398,0.125416,0.964044
1629800385131,-0.266326,0.114558,0.969961
1629800385141,-0.268339,0.10931199999999999,0.975146
1629800385150,-0.26931499999999997,0.11254499999999999,0.97295
1629800385160,-0.271267,0.11992599999999999,0.965996
1629800385169,-0.272304,0.128771,0.955931
1629800385179,-0.271999,0.137799,0.947086
1629800385189,-0.270169,0.142557,0.943487
1629800385198,-0.26718,0.144143,0.947635
1629800385208,-0.263703,0.142435,0.955931
1629800385217,-0.26004299999999997,0.13663999999999998,0.9594079999999999
1629800385227,-0.257237,0.13176,0.961116
1629800385237,-0.255102,0.126514,0.964715
1629800385246,-0.255895,0.129381,0.960872
1629800385256,-0.258091,0.132187,0.9621529999999999
1629800385265,-0.259982,0.137921,0.9603229999999999
1629800385275,-0.261202,0.14457,0.953796
1629800385285,-0.261629,0.149572,0.953796
1629800385294,-0.26169,0.151402,0.950502
1629800385304,-0.260409,0.151524,0.945256
1629800385313,-0.26156799999999997,0.150182,0.93391
1629800385323,-0.261385,0.149999,0.923906
1629800385333,-0.258457,0.150426,0.9185989999999999
1629800385342,-0.254187,0.150853,0.915976
1629800385352,-0.253394,0.150853,0.913597
1629800385361,-0.24973399999999998,0.151036,0.914634
1629800385371,-0.248758,0.1525,0.914756
1629800385381,-0.247843,0.155489,0.9122549999999999
1629800385390,-0.248026,0.156404,0.908412
1629800385400,-0.250771,0.15420799999999998,0.908656
1629800385409,-0.25132,0.1525,0.913841
1629800385419,-0.253028,0.152256,0.9182939999999999
1629800385429,-0.254126,0.150426,0.917928
1629800385438,-0.254492,0.149206,0.91439
1629800385448,-0.255834,0.149694,0.910974
1629800385457,-0.257481,0.151097,0.910791
1629800385467,-0.258335,0.151463,0.913353
1629800385477,-0.259189,0.15372,0.91439
1629800385486,-0.258884,0.154086,0.922686
1629800385496,-0.258884,0.15298799999999999,0.926956
1629800385505,-0.259311,0.15451299999999998,0.930128
1629800385515,-0.25882299999999997,0.154086,0.9298839999999999
1629800385525,-0.261629,0.154147,0.9323239999999999
1629800385534,-0.263398,0.150365,0.932995
1629800385544,-0.265716,0.149572,0.934886
1629800385553,-0.267912,0.148901,0.938973
1629800385563,-0.26900999999999997,0.147193,0.941657
1629800385573,-0.27022999999999997,0.145302,0.946415
1629800385582,-0.270413,0.143472,0.948672
1629800385592,-0.271084,0.144875,0.95038
1629800385601,-0.271206,0.148901,0.950807
1629800385611,-0.270108,0.15237799999999999,0.952271
1629800385621,-0.267973,0.15311,0.9587979999999999
1629800385630,-0.269437,0.153476,0.965325
1629800385640,-0.268949,0.153964,0.968924
1629800385649,-0.26809499999999997,0.15268299999999999,0.9715469999999999
1629800385659,-0.268217,0.149816,0.972035
1629800385669,-0.26900999999999997,0.150243,0.971059
1629800385678,-0.269193,0.151829,0.967399
1629800385688,-0.269132,0.152195,0.963129
1629800385697,-0.268034,0.153354,0.959896
1629800385707,-0.266997,0.15390299999999998,0.955687
1629800385717,-0.263947,0.15481799999999998,0.950136
1629800385726,-0.264008,0.158173,0.946171
1629800385736,-0.26352,0.161528,0.943792
1629800385745,-0.26291,0.16439499999999999,0.940864
1629800385755,-0.262788,0.165371,0.936411
1629800385765,-0.262666,0.165737,0.937326
1629800385774,-0.262849,0.167567,0.9344589999999999
1629800385784,-0.263642,0.16713999999999998,0.9298839999999999
1629800385793,-0.263032,0.167323,0.923906
1629800385803,-0.263154,0.16652999999999998,0.9192089999999999
1629800385813,-0.26108,0.166042,0.917501
1629800385822,-0.260775,0.165676,0.913048
1629800385832,-0.261019,0.165554,0.9116449999999999
1629800385841,-0.261812,0.167506,0.911523
1629800385851,-0.262056,0.167994,0.910852
1629800385861,-0.262849,0.171044,0.908351
1629800385870,-0.263703,0.174826,0.906948
1629800385880,-0.264801,0.17629,0.9055449999999999
1629800385889,-0.267302,0.178181,0.905911
1629800385899,-0.269071,0.178974,0.907863
1629800385909,-0.27175499999999997,0.180499,0.908656
1629800385918,-0.27419499999999997,0.180072,0.911706
1629800385928,-0.277794,0.178486,0.913414
1629800385937,-0.280295,0.17610699999999999,0.916891
1629800385947,-0.282796,0.173362,0.921466
1629800385957,-0.28438199999999997,0.169031,0.9274439999999999
1629800385966,-0.286578,0.164944,0.932202
1629800385976,-0.287676,0.164212,0.9323239999999999
1629800385985,-0.28853,0.162199,0.93391
1629800385995,-0.288469,0.157502,0.9353739999999999
1629800386005,-0.290177,0.15792899999999999,0.939278
1629800386014,-0.291641,0.160186,0.9394
1629800386024,-0.29158,0.156343,0.938729
1629800386033,-0.29097,0.156892,0.94123
1629800386043,-0.29036,0.155184,0.9455
1629800386053,-0.292068,0.15329299999999998,0.947147
1629800386062,-0.293776,0.151158,0.94733
1629800386072,-0.29487399999999997,0.147681,0.9459879999999999
1629800386081,-0.29700899999999997,0.14579,0.944585
1629800386091,-0.29585,0.143838,0.943975
1629800386101,-0.29524,0.145668,0.944402
1629800386110,-0.295667,0.147986,0.944585
1629800386120,-0.296826,0.148169,0.9417179999999999
1629800386129,-0.297497,0.14865699999999998,0.939339
1629800386139,-0.299754,0.149389,0.934032
1629800386149,-0.300364,0.150304,0.92903
1629800386158,-0.30256,0.152134,0.926712
1629800386168,-0.303414,0.154025,0.924943
1629800386177,-0.305122,0.155794,0.924272
1629800386187,-0.303536,0.156221,0.9237839999999999
1629800386197,-0.307623,0.164578,0.923357
1629800386206,-0.30561,0.163968,0.9204289999999999
1629800386216,-0.303353,0.162992,0.9240889999999999
1629800386225,-0.303414,0.163785,0.9271389999999999
1629800386235,-0.30384099999999997,0.16591999999999998,0.924821
1629800386245,-0.302926,0.166469,0.921222
1629800386254,-0.302621,0.165188,0.919026
1629800386264,-0.302682,0.164944,0.917074
1629800386273,-0.300547,0.168177,0.918111
1629800386283,-0.300913,0.170373,0.918721
1629800386293,-0.29853399999999997,0.170434,0.916586
1629800386302,-0.296582,0.167872,0.915488
1629800386312,-0.294752,0.16408999999999999,0.9131699999999999
1629800386321,-0.294752,0.16348,0.912438
1629800386331,-0.292922,0.163236,0.912316
1629800386341,-0.292068,0.162138,0.9119499999999999
1629800386350,-0.291824,0.161162,0.915183
1629800386360,-0.29304399999999997,0.16097899999999998,0.9182939999999999
1629800386369,-0.29036,0.15738,0.9198189999999999
1629800386379,-0.289262,0.153781,0.9211
1629800386389,-0.289628,0.153049,0.925736
1629800386398,-0.290848,0.152561,0.9283589999999999
1629800386408,-0.291397,0.150243,0.928603
1629800386417,-0.292312,0.14945,0.932385
1629800386427,-0.291702,0.149572,0.934581
1629800386437,-0.291397,0.14396,0.93574
1629800386446,-0.292068,0.142862,0.939644
1629800386456,-0.291092,0.14005599999999999,0.940315
1629800386465,-0.291153,0.142008,0.936716
1629800386475,-0.290848,0.143594,0.932385
1629800386485,-0.290055,0.146766,0.930738
1629800386494,-0.290421,0.147498,0.928237
1629800386504,-0.291336,0.150243,0.926956
1629800386513,-0.291702,0.152195,0.9292739999999999
1629800386523,-0.290787,0.151951,0.932568
1629800386533,-0.288957,0.148779,0.93391
1629800386542,-0.288408,0.146278,0.934032
1629800386552,-0.288164,0.143777,0.933788
1629800386561,-0.287798,0.14274,0.9350689999999999
1629800386571,-0.288042,0.143472,0.934947
1629800386581,-0.287798,0.143411,0.935008
1629800386590,-0.287188,0.142679,0.934886
1629800386600,-0.28792,0.14188599999999998,0.936411
1629800386609,-0.288286,0.142374,0.9362889999999999
1629800386619,-0.288286,0.143472,0.9329339999999999
1629800386629,-0.288957,0.143472,0.932812
1629800386638,-0.287615,0.143167,0.932202
1629800386648,-0.28853,0.143716,0.932507
1629800386657,-0.288042,0.143655,0.9323239999999999
1629800386667,-0.28792,0.14457,0.930677
1629800386677,-0.287554,0.144814,0.929457
1629800386686,-0.286578,0.143716,0.926651
1629800386696,-0.28548,0.146034,0.925797
1629800386705,-0.285663,0.144204,0.924455
1629800386715,-0.284138,0.142069,0.926346
1629800386725,-0.284565,0.144326,0.924943
1629800386734,-0.28621199999999997,0.144326,0.923845
1629800386744,-0.282674,0.14036099999999999,0.927261
1629800386753,-0.28365,0.141337,0.92842
1629800386763,-0.285114,0.141032,0.932568
1629800386773,-0.28438199999999997,0.139934,0.9320189999999999
1629800386782,-0.284626,0.137006,0.9323239999999999
1629800386792,-0.28243,0.131394,0.9329339999999999
1629800386801,-0.28163699999999997,0.127978,0.933178
1629800386811,-0.281149,0.127063,0.931958
1629800386821,-0.28194199999999997,0.127185,0.9341539999999999
1629800386830,-0.281271,0.125477,0.9338489999999999
1629800386840,-0.282064,0.125355,0.933117
1629800386849,-0.281088,0.123586,0.937387
1629800386859,-0.28121,0.122427,0.9359839999999999
1629800386869,-0.280905,0.122915,0.937143
1629800386878,-0.282491,0.122915,0.936045
1629800386888,-0.283589,0.123342,0.937936
1629800386897,-0.28365,0.123281,0.939583
1629800386907,-0.282125,0.122732,0.940742
1629800386917,-0.28529699999999997,0.125538,0.937936
1629800386926,-0.284443,0.126941,0.9362889999999999
1629800386936,-0.283528,0.12627,0.938241
1629800386945,-0.287066,0.13017399999999998,0.9372039999999999
1629800386955,-0.286456,0.13017399999999998,0.93635
1629800386965,-0.28621199999999997,0.128039,0.937631
1629800386974,-0.285358,0.129503,0.936106
1629800386984,-0.284504,0.132858,0.937265
1629800386993,-0.28609,0.13237,0.937021
1629800387003,-0.28499199999999997,0.132614,0.938058
1629800387013,-0.284443,0.131211,0.933117
1629800387022,-0.283711,0.130052,0.93208
1629800387032,-0.282674,0.126941,0.9317139999999999
1629800387041,-0.282064,0.128893,0.933117
1629800387051,-0.282491,0.127612,0.934398
1629800387061,-0.281698,0.128039,0.9350689999999999
1629800387070,-0.280356,0.129381,0.936777
1629800387080,-0.279014,0.127734,0.936472
1629800387089,-0.277245,0.125721,0.9384239999999999
1629800387099,-0.276513,0.123098,0.938302
1629800387109,-0.275781,0.12078,0.934825
1629800387118,-0.274988,0.120475,0.932202
1629800387128,-0.274317,0.119865,0.933117
1629800387137,-0.274073,0.119743,0.937021
1629800387147,-0.27358499999999997,0.118889,0.935923
1629800387157,-0.273951,0.118584,0.935008
1629800387166,-0.272243,0.116571,0.935191
1629800387176,-0.27205999999999997,0.115351,0.93635
1629800387185,-0.27205999999999997,0.116632,0.9381189999999999
1629800387195,-0.271694,0.11486299999999999,0.9372039999999999
1629800387205,-0.271267,0.115534,0.938302
1629800387214,-0.269742,0.11163,0.939095
1629800387224,-0.268888,0.11022699999999999,0.938302
1629800387233,-0.267424,0.11041,0.939583
1629800387243,-0.268034,0.111447,0.936411
1629800387253,-0.266021,0.109068,0.936045
1629800387262,-0.263947,0.10668899999999999,0.936472
1629800387272,-0.263642,0.105347,0.937997
1629800387281,-0.263337,0.103578,0.940742
1629800387291,-0.263154,0.10406599999999999,0.941352
1629800387301,-0.262849,0.103517,0.941291
1629800387310,-0.259006,0.097844,0.940437
1629800387320,-0.257237,0.09272,0.941169
1629800387329,-0.254736,0.087108,0.943731
1629800387339,-0.252174,0.079605,0.9478179999999999
1629800387349,-0.252296,0.075579,0.9481229999999999
1629800387358,-0.248758,0.07326099999999999,0.948794
1629800387368,-0.24973399999999998,0.073749,0.949282
1629800387377,-0.247538,0.07198,0.9496479999999999
1629800387387,-0.243817,0.066978,0.956419
1629800387397,-0.23912,0.059902,0.9666669999999999
1629800387406,-0.234362,0.056547,0.966484
1629800387416,-0.22997,0.053801999999999996,0.967216
1629800387425,-0.226432,0.047945999999999996,0.960994
1629800387435,-0.22386999999999999,0.048129,0.958676
1629800387445,-0.22075899999999998,0.043432,0.955626
1629800387454,-0.21838,0.043248999999999996,0.95404
1629800387464,-0.21472,0.044225,0.9569679999999999
1629800387473,-0.21045,0.040443,0.964105
1629800387483,-0.20862,0.041479999999999996,0.963922
1629800387493,-0.208376,0.040809,0.9600179999999999
1629800387502,-0.20660699999999999,0.036782999999999996,0.957761
1629800387512,-0.205753,0.031842,0.959896
1629800387521,-0.203679,0.028548,0.957944
1629800387531,-0.198799,0.02257,0.959469
1629800387541,-0.198067,0.023424,0.961604
1629800387550,-0.194834,0.019154,0.9615429999999999
1629800387560,-0.195383,0.017202,0.96197
1629800387569,-0.190991,0.009455,0.970266
1629800387579,-0.191845,0.010309,0.966118
1629800387589,-0.191357,0.0070149999999999995,0.963434
1629800387598,-0.19056399999999998,0.0035989999999999998,0.9612379999999999
1629800387608,-0.18971,0.002196,0.965691
1629800387617,-0.189893,0.001647,0.96502
1629800387627,-0.188063,-0.000366,0.967155
1629800387637,-0.188612,0.000122,0.9624579999999999
1629800387646,-0.188551,-0.0013419999999999999,0.963068
1629800387656,-0.18544,-0.005978,0.979233
1629800387665,-0.187148,-0.003477,0.968009
1629800387675,-0.187209,-0.004392,0.966423
1629800387685,-0.187148,-0.00732,0.964532
1629800387694,-0.185562,-0.009394,0.9706319999999999
1629800387704,-0.186111,-0.007259,0.96807
1629800387713,-0.185928,-0.00732,0.967765
1629800387723,-0.18544,-0.007808,0.967094
1629800387733,-0.18422,-0.009333,0.967704
1629800387742,-0.181597,-0.013542,0.971974
1629800387752,-0.18409799999999998,-0.010858,0.966911
1629800387761,-0.182695,-0.011467999999999999,0.966728
1629800387771,-0.181597,-0.011956,0.967704
1629800387781,-0.182817,-0.014213,0.970754
1629800387790,-0.179889,-0.012627,0.9709369999999999
1629800387800,-0.18178,-0.012627,0.968741
1629800387809,-0.181292,-0.015189,0.967338
1629800387819,-0.180865,-0.01464,0.965935
1629800387829,-0.18178,-0.016104,0.9681919999999999
1629800387838,-0.180926,-0.017995,0.971669
1629800387848,-0.180865,-0.018605,0.9770369999999999
1629800387857,-0.18178,-0.015677,0.968863
1629800387867,-0.182939,-0.012627,0.966484
1629800387877,-0.181658,-0.013725,0.969534
1629800387886,-0.18178,-0.014945,0.9736819999999999
1629800387896,-0.182695,-0.013847,0.9700219999999999
1629800387905,-0.183854,-0.012078,0.9681919999999999
1629800387915,-0.183,-0.012139,0.9672769999999999
1629800387925,-0.183732,-0.011712,0.968619
1629800387934,-0.183,-0.01159,0.967216
1629800387944,-0.181597,-0.014884,0.9712419999999999
1629800387953,-0.183976,-0.012199999999999999,0.96685
1629800387963,-0.184525,-0.011407,0.9663619999999999
1629800387973,-0.18501299999999998,-0.010065,0.96624
1629800387982,-0.185196,-0.010187,0.968436
1629800387992,-0.183122,-0.010248,0.971425
1629800388001,-0.184586,-0.010614,0.967338
1629800388011,-0.185501,-0.008662,0.964898
1629800388021,-0.18544,-0.008784,0.963495
1629800388030,-0.184647,-0.007625,0.963312
1629800388040,-0.184525,-0.008662,0.964532
1629800388049,-0.184281,-0.010614,0.964898
1629800388059,-0.184281,-0.010003999999999999,0.967216
1629800388069,-0.183,-0.011041,0.970876
1629800388078,-0.183915,-0.010003999999999999,0.963922
1629800388088,-0.183732,-0.008539999999999999,0.963251
1629800388097,-0.183671,-0.008296,0.964044
1629800388107,-0.18318299999999998,-0.007991,0.962092
1629800388117,-0.183915,-0.009028,0.963861
1629800388126,-0.183671,-0.010248,0.965874
1629800388136,-0.18440299999999998,-0.009882,0.965935
1629800388145,-0.18470799999999998,-0.011224,0.965874
1629800388155,-0.184586,-0.012444,0.9669719999999999
1629800388165,-0.18440299999999998,-0.013725,0.9694119999999999
1629800388174,-0.185135,-0.01281,0.968253
1629800388184,-0.184647,-0.012322,0.968863
1629800388193,-0.18501299999999998,-0.011712,0.967826
1629800388203,-0.18470799999999998,-0.01159,0.967399
1629800388213,-0.184281,-0.012017,0.969534
1629800388222,-0.184342,-0.011651,0.9675819999999999
1629800388232,-0.184586,-0.012688,0.967948
1629800388241,-0.18422,-0.012322,0.96502
1629800388251,-0.184281,-0.011467999999999999,0.962702
1629800388261,-0.184342,-0.011407,0.964837
1629800388270,-0.184342,-0.009577,0.965996
1629800388280,-0.18531799999999998,-0.008113,0.967216
1629800388289,-0.184769,-0.010065,0.968131
1629800388299,-0.18483,-0.011101999999999999,0.96502
1629800388309,-0.18470799999999998,-0.014091,0.964288
1629800388318,-0.18379299999999998,-0.015555,0.966423
1629800388328,-0.184525,-0.016653,0.967216
1629800388337,-0.18409799999999998,-0.017385,0.9663619999999999
1629800388347,-0.183854,-0.017568,0.966606
1629800388357,-0.185196,-0.018056,0.965996
1629800388366,-0.185196,-0.018971,0.966484
1629800388376,-0.184952,-0.020923,0.9678869999999999
1629800388385,-0.18544,-0.02196,0.965264
1629800388395,-0.185501,-0.021106,0.966423
1629800388405,-0.186843,-0.020984,0.967643
1629800388414,-0.187514,-0.02013,0.968009
1629800388424,-0.18788,-0.019154,0.967643
1629800388433,-0.188185,-0.01769,0.966179
1629800388443,-0.189222,-0.015555,0.964044
1629800388453,-0.18842899999999999,-0.015677,0.9657519999999999
1629800388462,-0.188246,-0.016592,0.965996
1629800388472,-0.188673,-0.015738,0.967094
1629800388481,-0.19025899999999998,-0.016165,0.965996
1629800388491,-0.18934399999999998,-0.016836,0.964959
1629800388501,-0.1891,-0.01464,0.9663619999999999
1629800388510,-0.189283,-0.013847,0.968009
1629800388520,-0.188063,-0.01464,0.96685
1629800388529,-0.188185,-0.01464,0.964227
1629800388539,-0.188185,-0.015493999999999999,0.961482
1629800388549,-0.187758,-0.017263,0.9612379999999999
1629800388558,-0.18727,-0.018056,0.9606279999999999
1629800388568,-0.186294,-0.019275999999999998,0.96075
1629800388577,-0.186965,-0.020435,0.9621529999999999
1629800388587,-0.186904,-0.021716,0.9660569999999999
1629800388597,-0.187758,-0.023607,0.965813
1629800388606,-0.188063,-0.025254,0.966789
1629800388616,-0.18812399999999999,-0.026595999999999998,0.968619
1629800388625,-0.187575,-0.027389,0.967765
1629800388635,-0.188673,-0.027938,0.9678869999999999
1629800388645,-0.188795,-0.028548,0.968619
1629800388654,-0.189222,-0.029646,0.9706319999999999
1629800388664,-0.189832,-0.027999,0.970815
1629800388673,-0.19093,-0.027023,0.971486
1629800388683,-0.19056399999999998,-0.026657,0.972279
1629800388693,-0.192028,-0.025986,0.972401
1629800388702,-0.193187,-0.02562,0.974841
1629800388712,-0.19397999999999999,-0.023729,0.977281
1629800388721,-0.194956,-0.022387,0.977525
1629800388731,-0.195139,-0.020069,0.978745
1629800388741,-0.195383,-0.017873,0.977464
1629800388750,-0.194712,-0.013908,0.977769
1629800388760,-0.19397999999999999,-0.010187,0.973316
1629800388769,-0.193248,-0.008173999999999999,0.968863
1629800388779,-0.191723,-0.007869,0.968253
1629800388789,-0.18964899999999998,-0.0062829999999999995,0.966179
1629800388798,-0.18903899999999998,-0.0044529999999999995,0.963739
1629800388808,-0.188246,-0.002806,0.961482
1629800388817,-0.188307,-0.000915,0.960262
1629800388827,-0.186904,-0.000244,0.9606279999999999
1629800388837,-0.186172,-0.000122,0.962275
1629800388846,-0.184891,0.000122,0.960811
1629800388856,-0.185196,0.0,0.959957
1629800388865,-0.184586,0.0015249999999999999,0.956297
1629800388875,-0.184159,0.000305,0.9563579999999999
1629800388885,-0.183915,-6.1e-05,0.957456
1629800388894,-0.184891,-0.000915,0.958676
1629800388904,-0.186233,-0.002928,0.9577
1629800388913,-0.186355,-0.004026,0.957151
1629800388923,-0.187514,-0.00488,0.958981
1629800388933,-0.187575,-0.004514,0.9594079999999999
1629800388942,-0.18934399999999998,-0.005673,0.961177
1629800388952,-0.190137,-0.005246,0.960689
1629800388961,-0.192943,-0.003904,0.962275
1629800388971,-0.194102,-0.003843,0.965081
1629800388981,-0.195566,-0.005429,0.96563
1629800388990,-0.197213,-0.005795,0.96563
1629800389000,-0.198006,-0.003965,0.96563
1629800389009,-0.197884,-0.002379,0.9638
1629800389019,-0.197152,-0.0030499999999999998,0.958066
1629800389029,-0.195444,-0.004331,0.951417
1629800389038,-0.195078,-0.004941,0.9548329999999999
1629800389048,-0.198494,-0.0021349999999999997,0.960079
1629800389057,-0.196603,-0.001464,0.9624579999999999
1629800389067,-0.195688,-0.0025009999999999998,0.963739
1629800389077,-0.193431,-0.001769,0.9615429999999999
1629800389086,-0.192394,-0.001769,0.960201
1629800389096,-0.191052,-0.0025009999999999998,0.960994
1629800389105,-0.189161,-0.0028669999999999998,0.965081
1629800389115,-0.186294,-0.006771,0.966118
1629800389125,-0.184586,-0.010369999999999999,0.968253
1629800389134,-0.182024,-0.012931999999999999,0.968314
1629800389144,-0.17995,-0.014761999999999999,0.967765
1629800389153,-0.176351,-0.01891,0.965081
1629800389163,-0.172813,-0.021716,0.964654
1629800389173,-0.170739,-0.022509,0.9700219999999999
1629800389182,-0.172813,-0.023302,0.97234
1629800389192,-0.172203,-0.025986,0.972584
1629800389201,-0.171898,-0.028304,0.970144
1629800389211,-0.17360599999999998,-0.028791999999999998,0.966911
1629800389221,-0.173728,-0.029707,0.965081
1629800389230,-0.172935,-0.030073,0.963739
1629800389240,-0.17330099999999998,-0.029036,0.964044
1629800389249,-0.174521,-0.028426,0.96441
1629800389259,-0.174826,-0.028304,0.962702
1629800389269,-0.175924,-0.028791999999999998,0.963251
1629800389278,-0.177083,-0.028304,0.964044
1629800389288,-0.17854699999999998,-0.028121,0.96441
1629800389297,-0.178791,-0.030073,0.965081
1629800389307,-0.179401,-0.031842,0.965813
1629800389317,-0.180926,-0.031354,0.9663619999999999
1629800389326,-0.180743,-0.029768,0.970083
1629800389336,-0.182756,-0.029646,0.972401
1629800389345,-0.182512,-0.029951,0.9706319999999999
1629800389355,-0.182146,-0.03233,0.9706319999999999
1629800389365,-0.182756,-0.034282,0.9709369999999999
1629800389374,-0.182329,-0.035013999999999997,0.971486
1629800389384,-0.181536,-0.035502,0.973926
1629800389393,-0.181536,-0.037759,0.97478
1629800389403,-0.182024,-0.03904,0.975756
1629800389413,-0.182146,-0.039710999999999996,0.977098
1629800389422,-0.182146,-0.039345,0.9764269999999999
1629800389432,-0.183061,-0.040504,0.9761219999999999
1629800389441,-0.18318299999999998,-0.042029,0.978196
1629800389451,-0.183854,-0.042212,0.9773419999999999
1629800389461,-0.18409799999999998,-0.04087,0.974475
1629800389470,-0.18409799999999998,-0.039345,0.972523
1629800389480,-0.185379,-0.038308,0.971364
1629800389489,-0.185684,-0.03599,0.9699
1629800389499,-0.186721,-0.033549999999999996,0.969595
1629800389509,-0.186477,-0.032208,0.96746
1629800389518,-0.186111,-0.030805,0.96685
1629800389528,-0.186721,-0.028548,0.965203
1629800389537,-0.186355,-0.027084,0.963556
1629800389547,-0.186416,-0.026291,0.9618479999999999
1629800389557,-0.186843,-0.025436999999999998,0.963251
1629800389566,-0.185562,-0.025071,0.959652
1629800389576,-0.185501,-0.023912,0.9591029999999999
1629800389585,-0.18605,-0.023607,0.9594079999999999
1629800389595,-0.186843,-0.022387,0.9591029999999999
1629800389605,-0.186721,-0.022143,0.960201
1629800389614,-0.186355,-0.023912,0.961726
1629800389624,-0.185745,-0.024827,0.959347
1629800389633,-0.184891,-0.025863999999999998,0.961055
1629800389643,-0.18470799999999998,-0.027023,0.961482
1629800389653,-0.18361,-0.029341,0.961726
1629800389662,-0.182939,-0.030622,0.963068
1629800389672,-0.183122,-0.031964,0.963068
1629800389681,-0.183,-0.033489,0.9638
1629800389691,-0.182634,-0.034831,0.962641
1629800389701,-0.182695,-0.036661,0.96563
1629800389710,-0.182634,-0.036722,0.965935
1629800389720,-0.181475,-0.038551999999999996,0.969473
1629800389729,-0.181902,-0.037881,0.9688019999999999
1629800389739,-0.183305,-0.039284,0.96746
1629800389749,-0.183732,-0.038308,0.9681919999999999
1629800389758,-0.183732,-0.03782,0.969046
1629800389768,-0.184281,-0.036966,0.96868
1629800389777,-0.18483,-0.035502,0.967765
1629800389787,-0.184769,-0.034526,0.9691069999999999
1629800389797,-0.185928,-0.033977,0.968009
1629800389806,-0.186416,-0.03233,0.967033
1629800389816,-0.186538,-0.030805,0.968741
1629800389825,-0.187148,-0.030439,0.972035
1629800389835,-0.187697,-0.029646,0.970693
1629800389845,-0.187453,-0.030255999999999998,0.969778
1629800389854,-0.187209,-0.030134,0.96807
1629800389864,-0.186843,-0.030255999999999998,0.9663619999999999
1629800389873,-0.187148,-0.030012,0.967765
1629800389883,-0.185867,-0.029219,0.96929
1629800389893,-0.186111,-0.028853,0.967155
1629800389902,-0.186538,-0.029158,0.966423
1629800389912,-0.185745,-0.030560999999999998,0.964776
1629800389921,-0.185684,-0.031781,0.965203
1629800389931,-0.184342,-0.031537,0.964105
1629800389941,-0.184281,-0.032818,0.962885
1629800389950,-0.184769,-0.031598,0.964349
1629800389960,-0.183732,-0.031598,0.964105
1629800389969,-0.183671,-0.02928,0.963861
1629800389979,-0.18348799999999998,-0.027816,0.963251
1629800389989,-0.18422,-0.028914,0.9621529999999999
1629800389998,-0.184159,-0.027145,0.962214
1629800390008,-0.183976,-0.028059999999999998,0.962336
1629800390017,-0.184647,-0.027632999999999998,0.964349
1629800390027,-0.184586,-0.028975,0.963617
1629800390037,-0.18422,-0.028243,0.964288
1629800390046,-0.183061,-0.026168999999999998,0.9651419999999999
1629800390056,-0.18422,-0.027572,0.96502
1629800390065,-0.183732,-0.026718,0.964532
1629800390075,-0.183732,-0.028182,0.9638
1629800390085,-0.184281,-0.030378,0.96136
1629800390094,-0.184037,-0.030255999999999998,0.9621529999999999
1629800390104,-0.183,-0.031232,0.963373
1629800390113,-0.18226799999999999,-0.031476,0.966484
1629800390123,-0.182695,-0.03233,0.9669719999999999
1629800390133,-0.183366,-0.031964,0.968009
1629800390142,-0.18318299999999998,-0.031781,0.967765
1629800390152,-0.183244,-0.032635,0.967826
1629800390161,-0.18361,-0.034282,0.967216
1629800390171,-0.183976,-0.035318999999999996,0.966911
1629800390181,-0.18379299999999998,-0.035685,0.968558
1629800390190,-0.185196,-0.035075,0.968985
1629800390200,-0.18562299999999998,-0.035197,0.967948
1629800390209,-0.184586,-0.034587,0.968253
1629800390219,-0.18470799999999998,-0.033245,0.967948
1629800390229,-0.18501299999999998,-0.033611,0.968558
1629800390238,-0.184464,-0.033428,0.9678869999999999
1629800390248,-0.185196,-0.032635,0.96746
1629800390257,-0.18501299999999998,-0.032818,0.96685
1629800390267,-0.185196,-0.032085999999999996,0.965813
1629800390277,-0.185684,-0.03172,0.96441
1629800390286,-0.18483,-0.031598,0.96563
1629800390296,-0.186111,-0.031537,0.965386
1629800390305,-0.185135,-0.031354,0.9651419999999999
1629800390315,-0.185745,-0.031232,0.964715
1629800390325,-0.18562299999999998,-0.032269,0.964105
1629800390334,-0.185684,-0.031598,0.963251
1629800390344,-0.186111,-0.031537,0.962275
1629800390353,-0.185135,-0.030683,0.961726
1629800390363,-0.184952,-0.02989,0.963373
1629800390373,-0.18544,-0.030012,0.963007
1629800390382,-0.186355,-0.030378,0.964105
1629800390392,-0.184769,-0.031293,0.963556
1629800390401,-0.185562,-0.032574,0.964593
1629800390411,-0.18727,-0.032695999999999996,0.963129
1629800390421,-0.186782,-0.032695999999999996,0.9651419999999999
1629800390430,-0.186294,-0.033854999999999996,0.965203
1629800390440,-0.187026,-0.033123,0.968619
1629800390449,-0.187026,-0.032085999999999996,0.967948
1629800390459,-0.186843,-0.031842,0.9660569999999999
1629800390469,-0.186538,-0.03233,0.96563
1629800390478,-0.186416,-0.031537,0.964654
1629800390488,-0.186599,-0.031903,0.964898
1629800390497,-0.186294,-0.033062,0.965325
1629800390507,-0.186599,-0.032513,0.965203
1629800390517,-0.186782,-0.032085999999999996,0.962702
1629800390526,-0.186111,-0.030378,0.963434
1629800390536,-0.187026,-0.029585,0.965569
1629800390545,-0.187148,-0.029096999999999998,0.967521
1629800390555,-0.188063,-0.029707,0.966728
1629800390565,-0.18849,-0.031049,0.965081
1629800390574,-0.188795,-0.032208,0.966484
1629800390584,-0.190137,-0.03172,0.967948
1629800390593,-0.188612,-0.03294,0.967399
1629800390603,-0.189588,-0.033123,0.965996
1629800390613,-0.189588,-0.033733,0.965691
1629800390622,-0.188612,-0.034709,0.968375
1629800390632,-0.1891,-0.034526,0.968009
1629800390641,-0.189283,-0.035502,0.965081
1629800390651,-0.188978,-0.035807,0.964288
1629800390661,-0.189588,-0.035441,0.96441
1629800390670,-0.19056399999999998,-0.034526,0.964715
1629800390680,-0.189466,-0.033123,0.964044
1629800390689,-0.189588,-0.032513,0.963312
1629800390699,-0.19086899999999998,-0.032818,0.963983
1629800390709,-0.19117399999999998,-0.032147,0.963617
1629800390718,-0.191906,-0.031781,0.963434
1629800390728,-0.192882,-0.031842,0.96563
1629800390737,-0.194163,-0.030195,0.96746
1629800390747,-0.194102,-0.030866,0.967765
1629800390757,-0.193858,-0.030866,0.964044
1629800390766,-0.194163,-0.028548,0.964654
1629800390776,-0.194956,-0.025863999999999998,0.9675819999999999
1629800390785,-0.195139,-0.026718,0.967216
1629800390795,-0.194651,-0.024827,0.963373
1629800390805,-0.19428499999999999,-0.026474,0.963068
1629800390814,-0.193492,-0.027084,0.962885
1629800390824,-0.191723,-0.026900999999999998,0.961604
1629800390833,-0.19178399999999998,-0.025131999999999998,0.9600179999999999
1629800390843,-0.191052,-0.026413,0.960079
1629800390853,-0.190381,-0.026168999999999998,0.96014
1629800390862,-0.19056399999999998,-0.027694,0.963678
1629800390872,-0.191052,-0.027694,0.9621529999999999
1629800390881,-0.19093,-0.02867,0.963495
1629800390891,-0.190503,-0.030255999999999998,0.964532
1629800390901,-0.191113,-0.030195,0.964532
1629800390910,-0.191906,-0.030378,0.963251
1629800390920,-0.19178399999999998,-0.0305,0.964532
1629800390929,-0.192333,-0.030134,0.968009
1629800390939,-0.193858,-0.029646,0.969473
1629800390949,-0.193126,-0.029585,0.967338
1629800390958,-0.193126,-0.030987999999999998,0.966484
1629800390968,-0.192821,-0.030073,0.965386
1629800390977,-0.192577,-0.030317,0.964776
1629800390987,-0.193736,-0.029463,0.964654
1629800390997,-0.193004,-0.030073,0.964227
1629800391006,-0.192638,-0.02928,0.963983
1629800391016,-0.193004,-0.029951,0.963495
1629800391025,-0.193431,-0.028914,0.963434
1629800391035,-0.193309,-0.028914,0.964227
1629800391045,-0.19367499999999999,-0.029158,0.963007
1629800391054,-0.193919,-0.028791999999999998,0.963068
1629800391064,-0.193797,-0.029463,0.961055
1629800391073,-0.194163,-0.029219,0.9603229999999999
1629800391083,-0.194529,-0.028914,0.961787
1629800391093,-0.194041,-0.029585,0.9651419999999999
1629800391102,-0.194529,-0.030744,0.967643
1629800391112,-0.195322,-0.029402,0.964898
1629800391121,-0.194346,-0.030987999999999998,0.960872
1629800391131,-0.194041,-0.032695999999999996,0.962031
1629800391141,-0.194529,-0.030866,0.96197
1629800391150,-0.192638,-0.032574,0.96136
1629800391160,-0.192211,-0.034221,0.963068
1629800391169,-0.193187,-0.033062,0.963861
1629800391179,-0.191723,-0.034526,0.963617
1629800391189,-0.193248,-0.03538,0.963251
1629800391198,-0.19154,-0.035868,0.9627629999999999
1629800391208,-0.191601,-0.037271,0.963434
1629800391217,-0.191662,-0.037149,0.963678
1629800391227,-0.191113,-0.036417,0.96319
1629800391237,-0.191296,-0.037393,0.963312
1629800391246,-0.192089,-0.036539,0.96014
1629800391256,-0.192211,-0.035685,0.961299
1629800391265,-0.192455,-0.035258,0.96563
1629800391275,-0.19178399999999998,-0.034038,0.96563
1629800391285,-0.192333,-0.035013999999999997,0.9657519999999999
1629800391294,-0.192455,-0.037576,0.9654469999999999
1629800391304,-0.192882,-0.03721,0.96258
1629800391313,-0.19117399999999998,-0.040015999999999996,0.9638
1629800391323,-0.190686,-0.040565,0.963617
1629800391333,-0.191662,-0.039833,0.964959
1629800391342,-0.190686,-0.041236,0.963373
1629800391352,-0.18971,-0.041907,0.962641
1629800391361,-0.190381,-0.04331,0.96258
1629800391371,-0.191906,-0.047092,0.963434
1629800391381,-0.190198,-0.047275,0.963251
1629800391390,-0.190686,-0.047030999999999996,0.962702
1629800391400,-0.19215,-0.045871999999999996,0.9615429999999999
1629800391409,-0.191845,-0.045384,0.9609329999999999
1629800391419,-0.19337,-0.044591,0.960872
1629800391429,-0.19428499999999999,-0.043432,0.960201
1629800391438,-0.191906,-0.045811,0.963739
1629800391448,-0.194712,-0.04453,0.964776
1629800391457,-0.194712,-0.046176999999999996,0.96868
1629800391467,-0.19550499999999998,-0.045994,0.964471
1629800391477,-0.195017,-0.049837,0.9657519999999999
1629800391486,-0.196237,-0.048251,0.967216
1629800391496,-0.194102,-0.04819,0.97295
1629800391505,-0.194163,-0.047458,0.973316
1629800391515,-0.191967,-0.049593,0.961055
1629800391525,-0.189832,-0.054473,0.958981
1629800391534,-0.189771,-0.057462,0.9577
1629800391544,-0.188368,-0.060816999999999996,0.9572729999999999
1629800391553,-0.18727,-0.063684,0.9572729999999999
1629800391563,-0.18605,-0.064904,0.958615
1629800391573,-0.185928,-0.067527,0.959774
1629800391582,-0.186111,-0.072468,0.960384
1629800391592,-0.186782,-0.073688,0.960445
1629800391601,-0.18842899999999999,-0.075884,0.95831
1629800391611,-0.189832,-0.082228,0.9581879999999999
1629800391621,-0.19056399999999998,-0.087596,0.961116
1629800391630,-0.193187,-0.087962,0.966728
1629800391640,-0.197762,-0.087108,0.965935
1629800391649,-0.195566,-0.091927,0.968985
1629800391659,-0.20069,-0.083387,0.9684969999999999
1629800391669,-0.201178,-0.078324,0.965996
1629800391678,-0.201178,-0.070882,0.964288
1629800391688,-0.20136099999999998,-0.061061,0.955077
1629800391697,-0.198982,-0.056181,0.947574
1629800391707,-0.19825,-0.051667,0.944341
1629800391717,-0.196786,-0.048068,0.9426329999999999
1629800391726,-0.196054,-0.044286,0.941535
1629800391736,-0.197091,-0.041846,0.9423279999999999
1629800391745,-0.19825,-0.04026,0.94489
1629800391755,-0.198128,-0.038246999999999996,0.9447679999999999
1629800391765,-0.199775,-0.035685,0.943365
1629800391774,-0.200568,-0.0366,0.941047
1629800391784,-0.199531,-0.040382,0.9381189999999999
1629800391793,-0.197579,-0.047824,0.938607
1629800391803,-0.191723,-0.064904,0.93574
1629800391813,-0.18849,-0.084058,0.933056
1629800391822,-0.183976,-0.099064,0.929945
1629800391832,-0.180438,-0.11486299999999999,0.926468
1629800391841,-0.17629,-0.12261,0.924028
1629800391851,-0.175192,-0.122061,0.924516
1629800391861,-0.170129,-0.118035,0.929152
1629800391870,-0.166347,-0.11547299999999999,0.938973
1629800391880,-0.157807,-0.112179,0.951905
1629800391889,-0.148169,-0.113338,0.964105
1629800391899,-0.13725,-0.121817,0.96746
1629800391909,-0.126941,-0.135847,0.96502
1629800391918,-0.11468,-0.16006399999999998,0.961482
1629800391928,-0.103578,-0.18287799999999999,0.954345
1629800391937,-0.089182,-0.207583,0.944829
1629800391947,-0.079056,-0.233874,0.941535
1629800391957,-0.069662,-0.263825,0.944707
1629800391966,-0.061915,-0.29243399999999997,0.940376
1629800391976,-0.055693,-0.313662,0.938973
1629800391985,-0.051667,-0.325374,0.9365939999999999
1629800391995,-0.049227,-0.328424,0.9329339999999999
1629800392005,-0.046299,-0.32086,0.932568
1629800392014,-0.043737,-0.31055099999999997,0.9356789999999999
1629800392024,-0.043005,-0.307013,0.937692
1629800392033,-0.044712999999999996,-0.309087,0.942572
1629800392043,-0.047092,-0.313113,0.9517829999999999
1629800392053,-0.048739,-0.31354,0.962641
1629800392062,-0.054595,-0.314516,0.970754
1629800392072,-0.056913,-0.31232,0.975085
1629800392081,-0.056364,-0.314943,0.978745
1629800392091,-0.057279,-0.32012799999999997,0.978379
1629800392101,-0.058804,-0.325862,0.9761219999999999
1629800392110,-0.061854,-0.333426,0.97417
1629800392120,-0.068076,-0.339282,0.963739
1629800392129,-0.074359,-0.338306,0.9597129999999999
1629800392139,-0.078751,-0.33366999999999997,0.9575779999999999
1629800392149,-0.084241,-0.32909499999999997,0.952027
1629800392158,-0.086681,-0.325435,0.9490379999999999
1629800392168,-0.087108,-0.322324,0.948184
1629800392177,-0.087352,-0.31585799999999997,0.943731
1629800392187,-0.08601,-0.310673,0.937448
1629800392197,-0.08680299999999999,-0.304817,0.933056
1629800392206,-0.087474,-0.309575,0.929701
1629800392216,-0.12132899999999999,-0.262422,0.924272
1629800392225,-0.092598,-0.31677299999999997,0.9520879999999999
1629800392235,-0.07503,-0.357277,0.94794
1629800392245,-0.088328,-0.34538199999999997,0.936411
1629800392254,-0.084912,-0.351177,0.933056
1629800392264,-0.085217,-0.344955,0.918843
1629800392273,-0.08588799999999999,-0.335622,0.91439
1629800392283,-0.088938,-0.322446,0.905789
1629800392293,-0.091561,-0.309758,0.890905
1629800392302,-0.097844,-0.29341,0.8888309999999999
1629800392312,-0.09759999999999999,-0.289933,0.902861
1629800392321,-0.099857,-0.28365,0.898652
1629800392331,-0.102236,-0.276391,0.904447
1629800392341,-0.09820999999999999,-0.274256,0.908107
1629800392350,-0.092842,-0.278953,0.913109
1629800392360,-0.082594,-0.290909,0.914756
1629800392369,-0.0732,-0.30561,0.917318
1629800392379,-0.066124,-0.31799299999999997,0.917074
1629800392389,-0.059414,-0.324886,0.916952
1629800392398,-0.053619,-0.328058,0.919331
1629800392408,-0.048922,-0.331413,0.921466
1629800392417,-0.042029,-0.336964,0.9228689999999999
1629800392427,-0.032269,-0.344284,0.924333
1629800392437,-0.036051,-0.338489,0.924882
1629800392446,-0.027816,-0.350262,0.926468
1629800392456,-0.027084,-0.354776,0.92659
1629800392465,-0.029158,-0.350872,0.9271389999999999
1629800392475,-0.029523999999999998,-0.347761,0.925248
1629800392485,-0.030622,-0.343979,0.9286639999999999
1629800392494,-0.031781,-0.344223,0.930372
1629800392504,-0.034099,-0.338855,0.929945
1629800392513,-0.035746,-0.333487,0.932873
1629800392523,-0.035075,-0.333548,0.936411
1629800392533,-0.036417,-0.334707,0.94184
1629800392542,-0.036661,-0.33488999999999997,0.942084
1629800392552,-0.039467,-0.334829,0.939583
1629800392561,-0.040443,-0.336293,0.937631
1629800392571,-0.043493,-0.33611,0.933788
1629800392581,-0.047153,-0.332328,0.928847
1629800392590,-0.05063,-0.333548,0.926651
1629800392600,-0.052886999999999997,-0.335073,0.9268339999999999
1629800392609,-0.052765,-0.337147,0.931287
1629800392619,-0.054473,-0.33122999999999997,0.934398
1629800392629,-0.054351,-0.326899,0.9341539999999999
1629800392638,-0.053375,-0.32452,0.934642
1629800392648,-0.049898,-0.32208,0.93269
1629800392657,-0.046726,-0.323544,0.930555
1629800392667,-0.044164,-0.326167,0.925431
1629800392677,-0.043676,-0.327753,0.9189039999999999
1629800392686,-0.047702,-0.324825,0.911828
1629800392696,-0.053558,-0.323544,0.9140849999999999
1629800392705,-0.055083,-0.326655,0.918843
1629800392715,-0.060511999999999996,-0.327021,0.915244
1629800392725,-0.063196,-0.325252,0.918965
1629800392734,-0.063135,-0.325374,0.92171
1629800392744,-0.064294,-0.32256799999999997,0.923906
1629800392753,-0.06283,-0.322202,0.92781
1629800392763,-0.059536,-0.329888,0.933483
1629800392773,-0.057157,-0.334158,0.9265289999999999
1629800392782,-0.060085,-0.330498,0.915061
1629800392792,-0.058193999999999996,-0.33672,0.91683
1629800392801,-0.060207,-0.334768,0.918355
1629800392811,-0.055632,-0.335378,0.918965
1629800392821,-0.050568999999999996,-0.336049,0.923967
1629800392830,-0.047397,-0.335317,0.933483
1629800392840,-0.042273,-0.34111199999999997,0.9280539999999999
1629800392849,-0.039101,-0.345504,0.929701
1629800392859,-0.032574,-0.357338,0.934642
1629800392869,-0.026962,-0.365634,0.935252
1629800392878,-0.026108,-0.362401,0.927261
1629800392888,-0.025131999999999998,-0.350994,0.915793
1629800392897,-0.028487,-0.336232,0.906094
1629800392907,-0.03172,-0.328607,0.9110349999999999
1629800392917,-0.033306,-0.323483,0.921283
1629800392926,-0.034038,-0.329827,0.920551
1629800392936,-0.030987999999999998,-0.35136,0.933117
1629800392945,-0.024278,-0.365024,0.934825
1629800392955,-0.026413,-0.360144,0.931348
1629800392965,-0.031232,-0.351116,0.916342
1629800392974,-0.035197,-0.347456,0.889258
1629800392984,-0.033611,-0.34282,0.883402
1629800392993,-0.026657,-0.333731,0.8815109999999999
1629800393003,-0.016653,-0.329766,0.892979
1629800393013,-0.006344,-0.327387,0.921466
1629800393022,-0.004941,-0.345016,0.9335439999999999
1629800393032,-0.005612,-0.37563799999999997,0.927078
1629800393041,-0.002013,-0.38674,0.909998
1629800393051,0.001037,-0.39100999999999997,0.908534
1629800393061,0.010797,-0.395036,0.920978
1629800393070,0.012199999999999999,-0.393694,0.924577
1629800393080,0.009821,-0.379115,0.921893
1629800393089,0.002928,-0.359412,0.924516
1629800393099,-0.00793,-0.357765,0.9189039999999999
1629800393109,-0.016714,-0.365085,0.906338
1629800393118,-0.022143,-0.346724,0.8851709999999999
1629800393128,-0.022875,-0.33031499999999997,0.88511
1629800393137,-0.013237,-0.335134,0.8988349999999999
1629800393147,-0.00244,-0.357155,0.93147
1629800393157,-0.008662,-0.366854,0.91805
1629800393166,-0.012565999999999999,-0.38112799999999997,0.874618
1629800393176,-0.010614,-0.372832,0.86071
1629800393185,-0.011956,-0.343003,0.8608319999999999
1629800393195,-0.009637999999999999,-0.31537,0.875838
1629800393205,-0.006405,-0.317322,0.898957
1629800393214,0.005063,-0.36478,0.919758
1629800393224,0.011956,-0.393511,0.926285
1629800393233,0.020862,-0.424255,0.936106
1629800393243,0.020069,-0.438651,0.9375089999999999
1629800393253,0.009089,-0.415837,0.903044
1629800393262,-0.004148,-0.391193,0.886635
1629800393272,-0.016592,-0.375394,0.887184
1629800393281,-0.017811999999999998,-0.40028199999999997,0.901397
1629800393291,-0.008967,-0.420168,0.907131
1629800393301,-0.008601,-0.409676,0.902922
1629800393310,-0.0023179999999999997,-0.400831,0.895541
1629800393320,-0.001464,-0.391742,0.900299
1629800393329,0.011163,-0.392413,0.934215
1629800393339,0.000488,-0.409066,0.944524
1629800393349,0.004209,-0.445605,0.934642
1629800393358,0.002196,-0.45536499999999996,0.899506
1629800393368,0.009028,-0.442555,0.879925
1629800393377,0.020313,-0.422059,0.883768
1629800393387,0.051422999999999996,-0.45261999999999997,0.9621529999999999
1629800393397,0.062342,-0.405711,0.917928
1629800393406,-0.058987,-0.303048,0.8879159999999999
1629800393416,0.006771,-0.455731,0.857538
1629800393425,-0.0051849999999999995,-0.424194,0.930433
1629800393435,-0.047335999999999996,-0.349225,0.8793759999999999
1629800393445,0.02379,-0.444446,0.963007
1629800393454,-0.010553,-0.384117,0.916647
1629800393464,0.005795,-0.347334,0.967643
1629800393473,0.00122,-0.307013,0.975878
1629800393483,-0.027511,-0.279502,0.973804
1629800393493,-0.045566999999999996,-0.334341,0.9079849999999999
1629800393502,-0.050508,-0.338428,0.847656
1629800393512,-0.046787,-0.297741,0.835151
1629800393521,-0.036234,-0.274561,0.8486319999999999
1629800393531,-0.016226,-0.288408,0.8732759999999999
1629800393541,0.001586,-0.322995,0.897127
1629800393550,0.023241,-0.372039,0.916891
1629800393560,0.042943999999999996,-0.418033,0.934215
1629800393569,0.064294,-0.451034,0.960384
1629800393579,0.070394,-0.462563,0.970815
1629800393589,0.075335,-0.457561,0.96197
1629800393598,0.075518,-0.434503,0.949465
1629800393608,0.065575,-0.396378,0.925553
1629800393617,0.053619,-0.35709399999999997,0.905118
1629800393627,0.035746,-0.319762,0.893406
1629800393637,0.030012,-0.295667,0.88816
1629800393646,0.027632999999999998,-0.282796,0.88694
1629800393656,0.026535,-0.277062,0.894443
1629800393665,0.027755,-0.284199,0.912987
1629800393675,0.022082,-0.286029,0.9211
1629800393685,0.005856,-0.277611,0.9176839999999999
1629800393694,0.05185,-0.348493,1.0398669999999999
1629800393704,-0.02318,-0.294325,0.9034099999999999
1629800393713,0.016774999999999998,-0.324215,0.958554
1629800393723,-0.0060999999999999995,-0.298839,0.930677
1629800393733,-0.0018909999999999999,-0.301706,0.9326289999999999
1629800393742,-0.012139,-0.289506,0.934886
1629800393752,-0.010431,-0.292983,0.922686
1629800393761,-0.015006,-0.28792,0.925675
1629800393771,-0.014884,-0.285114,0.92598
1629800393781,-0.012383,-0.281698,0.937997
1629800393790,-0.012444,-0.278038,0.941169
1629800393800,-0.01281,-0.277184,0.936167
1629800393809,-0.013969,-0.27511,0.9311039999999999
1629800393819,-0.015738,-0.276574,0.936472
1629800393829,-0.02013,-0.275781,0.935008
1629800393838,-0.023424,-0.27694,0.9320189999999999
1629800393848,-0.02501,-0.282796,0.933361
1629800393857,-0.025071,-0.283528,0.928908
1629800393867,-0.022753,-0.287432,0.92781
1629800393877,-0.025193,-0.290482,0.932873
1629800393886,-0.021289,-0.296948,0.946476
1629800393896,-0.023546,-0.291397,0.9435479999999999
1629800393905,-0.023058,-0.291702,0.943731
1629800393915,-0.025863999999999998,-0.286517,0.938241
1629800393925,-0.026413,-0.282979,0.9368989999999999
1629800393934,-0.026535,-0.281271,0.935862
1629800393944,-0.026535,-0.283406,0.93818
1629800393953,-0.02623,-0.283345,0.937265
1629800393963,-0.021838,-0.290482,0.935618
1629800393973,-0.018543999999999998,-0.29402,0.937265
1629800393982,-0.014761999999999999,-0.292861,0.9378139999999999
1629800393992,-0.015493999999999999,-0.288652,0.934825
1629800394001,-0.016165,-0.28609,0.9344589999999999
1629800394011,-0.017202,-0.28487,0.938241
1629800394021,-0.02196,-0.278709,0.93757
1629800394030,-0.025925,-0.276208,0.944524
1629800394040,-0.028426,-0.278099,0.94367
1629800394049,-0.029646,-0.278587,0.941169
1629800394059,-0.032695999999999996,-0.278587,0.9429379999999999
1629800394069,-0.034526,-0.283406,0.945134
1629800394078,-0.036112,-0.280478,0.940559
1629800394088,-0.040809,-0.281271,0.950136
1629800394097,-0.042212,-0.284931,0.9581879999999999
1629800394107,-0.042638999999999996,-0.285663,0.963678
1629800394117,-0.046787,-0.284016,0.96624
1629800394126,-0.049288,-0.284748,0.964959
1629800394136,-0.050813,-0.282918,0.964654
1629800394145,-0.052155,-0.28133199999999997,0.966728
1629800394155,-0.050752,-0.276879,0.958249
1629800394165,-0.058621,-0.26291,0.9502579999999999
1629800394174,-0.063928,-0.258396,0.958249
1629800394184,-0.070272,-0.25973799999999997,0.965508
1629800394193,-0.075884,-0.266082,0.9739869999999999
1629800394203,-0.07869,-0.272914,0.964898
1629800394213,-0.078812,-0.272304,0.964471
1629800394222,-0.078873,-0.263215,0.962824
1629800394232,-0.075762,-0.24851399999999998,0.965264
1629800394241,-0.076372,-0.229543,0.959286
1629800394251,-0.07326099999999999,-0.21862399999999999,0.9542229999999999
1629800394261,-0.071492,-0.209718,0.9462929999999999
1629800394270,-0.071065,-0.204411,0.939339
1629800394280,-0.071126,-0.200629,0.9384239999999999
1629800394289,-0.070577,-0.198189,0.9365939999999999
1629800394299,-0.069784,-0.203618,0.930982
1629800394309,-0.066307,-0.201483,0.926773
1629800394318,-0.062464,-0.195383,0.925675
1629800394328,-0.060085,-0.192272,0.9286639999999999
1629800394337,-0.060451,-0.18727,0.9272
1629800394347,-0.059597,-0.186538,0.9295789999999999
1629800394357,-0.06344,-0.188917,0.937997
1629800394366,-0.067527,-0.19147899999999998,0.949526
1629800394376,-0.07381,-0.19093,0.946415
1629800394385,-0.082106,-0.187514,0.940376
1629800394395,-0.088572,-0.184281,0.9429379999999999
1629800394405,-0.09467199999999999,-0.186172,0.946415
1629800394414,-0.097417,-0.192882,0.9597129999999999
1629800394424,-0.108702,-0.17873,0.942389
1629800394433,-0.112728,-0.187148,0.932141
1629800394443,-0.105103,-0.195932,0.9764269999999999
1629800394453,-0.121512,-0.182695,0.949892
1629800394462,-0.127612,-0.183,0.95099
1629800394472,-0.12486699999999999,-0.186355,0.9700219999999999
1629800394481,-0.128161,-0.185806,0.965935
1629800394491,-0.130418,-0.192638,0.971669
1629800394501,-0.133651,-0.192333,0.9699
1629800394510,-0.13633499999999998,-0.189771,0.971791
1629800394520,-0.13633499999999998,-0.192699,0.9709369999999999
1629800394529,-0.137128,-0.195322,0.975939
1629800394539,-0.14005599999999999,-0.19093,0.958005
1629800394549,-0.14066599999999999,-0.18239,0.959347
1629800394558,-0.141947,-0.177998,0.9545279999999999
1629800394568,-0.142557,-0.173057,0.957212
1629800394577,-0.14249599999999998,-0.167506,0.9569679999999999
1629800394587,-0.143167,-0.164456,0.952942
1629800394597,-0.139385,-0.163419,0.95282
1629800394606,-0.14621699999999999,-0.149206,0.9499529999999999
1629800394616,-0.14310599999999998,-0.162443,0.9499529999999999
1629800394625,-0.136396,-0.17873,0.95831
1629800394635,-0.137799,-0.180438,0.9557479999999999
1629800394645,-0.1403,-0.182085,0.952637
1629800394654,-0.134383,-0.194773,0.964898
1629800394664,-0.14005599999999999,-0.183366,0.9496479999999999
1629800394673,-0.137738,-0.183366,0.9496479999999999
1629800394683,-0.138836,-0.179096,0.953674
1629800394693,-0.13602999999999998,-0.186721,0.9594079999999999
1629800394702,-0.137372,-0.187331,0.951539
1629800394712,-0.133102,-0.19147899999999998,0.949892
1629800394721,-0.130052,-0.192638,0.9455
1629800394731,-0.126758,-0.194041,0.944707
1629800394741,-0.126392,-0.193492,0.947452
1629800394750,-0.120536,-0.20008,0.948489
1629800394760,-0.129076,-0.194468,0.951295
1629800394769,-0.127246,-0.202459,0.95648
1629800394779,-0.127185,-0.210877,0.968314
1629800394789,-0.134749,-0.205936,0.963678
1629800394798,-0.130662,-0.220027,0.965874
1629800394808,-0.135298,-0.213927,0.9700219999999999
1629800394817,-0.13115,-0.221186,0.956785
1629800394827,-0.132431,-0.219295,0.9517829999999999
1629800394837,-0.130235,-0.22045399999999998,0.946354
1629800394846,-0.127246,-0.217099,0.9455
1629800394856,-0.126697,-0.212829,0.94672
1629800394865,-0.126636,-0.210938,0.944646
1629800394875,-0.125111,-0.20984,0.945439
1629800394885,-0.128527,-0.207644,0.9462929999999999
1629800394894,-0.12749,-0.208254,0.948367
1629800394904,-0.133834,-0.198555,0.945805
1629800394913,-0.138531,-0.19519999999999998,0.946537
1629800394923,-0.14066599999999999,-0.198982,0.944036
1629800394933,-0.139751,-0.202764,0.95465
1629800394942,-0.133651,-0.209474,0.954772
1629800394952,-0.133956,-0.204899,0.949831
1629800394961,-0.134871,-0.202703,0.9516
1629800394971,-0.130723,-0.208986,0.953125
1629800394981,-0.12986899999999998,-0.207766,0.94672
1629800394990,-0.133834,-0.205936,0.940254
1629800395000,-0.13694499999999998,-0.20862,0.944341
1629800395009,-0.139995,-0.209474,0.947635
1629800395019,-0.142862,-0.205936,0.946415
1629800395029,-0.14457,-0.202703,0.942816
1629800395038,-0.144509,-0.19983599999999999,0.94794
1629800395048,-0.144814,-0.197884,0.946781
1629800395057,-0.14579,-0.19428499999999999,0.942145
1629800395067,-0.14865699999999998,-0.18995399999999998,0.942084
1629800395077,-0.149328,-0.191662,0.944829
1629800395086,-0.148474,-0.196908,0.951539
1629800395096,-0.150426,-0.199226,0.952149
1629800395105,-0.153232,-0.204655,0.9594079999999999
1629800395115,-0.15512299999999998,-0.211182,0.96441
1629800395125,-0.15823399999999999,-0.214354,0.961116
1629800395134,-0.160857,-0.21398799999999998,0.962702
1629800395144,-0.162748,-0.214354,0.968741
1629800395153,-0.16469999999999999,-0.212829,0.9681919999999999
1629800395163,-0.168177,-0.2074,0.9657519999999999
1629800395173,-0.171227,-0.200995,0.961055
1629800395182,-0.177449,-0.193919,0.961482
1629800395192,-0.18361,-0.195261,0.968558
1629800395201,-0.186538,-0.204533,0.976549
1629800395211,-0.187514,-0.217282,0.973011
1629800395221,-0.204838,-0.195383,0.9922259999999999
1629800395230,-0.19733499999999998,-0.207461,0.982893
1629800395240,-0.192577,-0.214476,0.99369
1629800395249,-0.2013,-0.197518,0.982771
1629800395259,-0.202154,-0.190503,0.982893
1629800395269,-0.20435,-0.182024,0.9864919999999999
1629800395278,-0.208376,-0.167506,0.987834
1629800395288,-0.212646,-0.150609,0.9882
1629800395297,-0.21655,-0.13786,0.983808
1629800395307,-0.22045399999999998,-0.121756,0.9791719999999999
1629800395317,-0.220088,-0.10729899999999999,0.9715469999999999
1629800395326,-0.220637,-0.091012,0.963617
1629800395336,-0.21899,-0.08113,0.960872
1629800395345,-0.218746,-0.070882,0.960445
1629800395355,-0.216367,-0.062525,0.961665
1629800395365,-0.214354,-0.046787,0.961116
1629800395374,-0.21490299999999998,-0.029036,0.962946
1629800395384,-0.21490299999999998,-0.012383,0.966545
1629800395393,-0.214842,0.006771,0.964105
1629800395403,-0.21276799999999998,0.020679,0.963861
1629800395413,-0.210023,0.030317,0.964349
1629800395422,-0.20965699999999998,0.040138,0.956907
1629800395432,-0.20801,0.043615,0.946171
1629800395441,-0.204655,0.046482,0.935252
1629800395451,-0.202703,0.058316,0.9332389999999999
1629800395461,-0.202337,0.074786,0.932812
1629800395470,-0.201239,0.096929,0.934703
1629800395480,-0.200202,0.112179,0.936716
1629800395489,-0.195444,0.125477,0.935252
1629800395499,-0.19672499999999998,0.144021,0.933422
1629800395509,-0.195627,0.155184,0.927261
1629800395518,-0.197213,0.16897,0.9207339999999999
1629800395528,-0.203374,0.17885199999999998,0.925431
1629800395537,-0.20569199999999999,0.185562,0.930616
1629800395547,-0.20691199999999998,0.190381,0.933361
1629800395557,-0.20679,0.19367499999999999,0.9295789999999999
1629800395566,-0.205509,0.199775,0.926163
1629800395576,-0.205875,0.20374,0.923967
1629800395585,-0.209474,0.206485,0.920002
1629800395595,-0.210938,0.20014099999999999,0.916098
1629800395605,-0.215086,0.199897,0.912987
1629800395614,-0.21533,0.196359,0.917806
1629800395624,-0.217404,0.208193,0.922808
1629800395633,-0.21838,0.223382,0.92842
1629800395643,-0.218502,0.239486,0.9301889999999999
1629800395653,-0.218441,0.252174,0.92964
1629800395662,-0.222772,0.261751,0.925126
1629800395672,-0.227652,0.267363,0.916708
1629800395681,-0.228323,0.264496,0.920612
1629800395691,-0.230763,0.26156799999999997,0.913353
1629800395701,-0.232044,0.256322,0.9122549999999999
1629800395710,-0.23119,0.25254,0.9128649999999999
1629800395720,-0.231983,0.253028,0.909388
1629800395729,-0.23302,0.259616,0.905118
1629800395739,-0.23546,0.263886,0.903654
1629800395749,-0.239791,0.269376,0.900177
1629800395758,-0.244366,0.269193,0.8976149999999999
1629800395768,-0.249368,0.267058,0.895358
1629800395777,-0.254553,0.261385,0.895419
1629800395787,-0.257664,0.250588,0.902068
1629800395797,-0.260836,0.24235299999999999,0.9055449999999999
1629800395806,-0.260409,0.235155,0.915366
1629800395816,-0.260287,0.235216,0.924333
1629800395825,-0.25973799999999997,0.241072,0.9222589999999999
1629800395835,-0.25821299999999997,0.24522,0.915793
1629800395845,-0.256932,0.249978,0.911706
1629800395854,-0.253272,0.248453,0.913719
1629800395864,-0.254004,0.247355,0.911523
1629800395873,-0.251747,0.23985199999999998,0.9137799999999999
1629800395883,-0.252479,0.232654,0.921588
1629800395893,-0.253516,0.225822,0.918355
1629800395902,-0.253272,0.21716,0.9219539999999999
1629800395912,-0.254004,0.207339,0.926102
1629800395921,-0.254431,0.197518,0.931531
1629800395931,-0.251686,0.18727,0.941108
1629800395941,-0.251564,0.182939,0.938058
1629800395950,-0.2501,0.177266,0.939583
1629800395960,-0.245952,0.170312,0.943731
1629800395969,-0.240767,0.161589,0.9475129999999999
1629800395979,-0.23710699999999998,0.152744,0.9536129999999999
1629800395989,-0.236009,0.145729,0.95953
1629800395998,-0.23155599999999998,0.138775,0.958432
1629800396008,-0.227408,0.134627,0.95587
1629800396017,-0.222894,0.126026,0.95526
1629800396027,-0.216184,0.116144,0.9609329999999999
1629800396037,-0.210999,0.105652,0.960262
1629800396046,-0.205936,0.099308,0.957761
1629800396056,-0.2013,0.090158,0.961665
1629800396065,-0.196481,0.083387,0.96624
1629800396075,-0.191845,0.07625,0.965081
1629800396085,-0.18788,0.071797,0.964959
1629800396094,-0.187941,0.06770999999999999,0.963861
1629800396104,-0.184525,0.063623,0.968009
1629800396113,-0.182024,0.060878,0.9715469999999999
1629800396123,-0.178974,0.057523,0.973194
1629800396133,-0.177083,0.055693,0.973621
1629800396142,-0.174399,0.053436,0.972584
1629800396152,-0.172874,0.052094,0.96624
1629800396161,-0.173484,0.051545,0.964288
1629800396171,-0.17263,0.051484,0.96441
1629800396181,-0.17177599999999998,0.05124,0.96685
1629800396190,-0.172752,0.053191999999999996,0.9688019999999999
1629800396200,-0.173972,0.052337999999999996,0.9745969999999999
1629800396209,-0.172264,0.054351,0.9739869999999999
1629800396219,-0.174826,0.058926,0.97112
1629800396229,-0.175314,0.059231,0.976793
1629800396238,-0.176046,0.061732,0.9755119999999999
1629800396248,-0.175619,0.06283,0.9770369999999999
1629800396257,-0.176168,0.063684,0.976854
1629800396267,-0.17568,0.067344,0.973804
1629800396277,-0.177754,0.071126,0.974048
1629800396286,-0.17763199999999998,0.071736,0.975451
1629800396296,-0.177754,0.073322,0.972523
1629800396305,-0.180438,0.072224,0.968436
1629800396315,-0.180438,0.073688,0.966728
1629800396325,-0.178059,0.069113,0.970266
1629800396334,-0.179584,0.068503,0.965935
1629800396344,-0.179523,0.067283,0.966484
1629800396353,-0.178425,0.06478199999999999,0.97051
1629800396363,-0.179096,0.066734,0.9651419999999999
1629800396373,-0.180987,0.06709999999999999,0.963678
1629800396382,-0.18178,0.066917,0.967094
1629800396392,-0.18287799999999999,0.06740499999999999,0.962336
1629800396401,-0.18531799999999998,0.069479,0.96136
1629800396411,-0.185562,0.069235,0.964654
1629800396421,-0.186599,0.07015,0.961604
1629800396430,-0.187697,0.070455,0.96319
1629800396440,-0.188246,0.071675,0.9651419999999999
1629800396449,-0.187026,0.071065,0.966484
1629800396459,-0.188185,0.073017,0.9678869999999999
1629800396469,-0.188856,0.075396,0.964227
1629800396478,-0.18995399999999998,0.077958,0.9600179999999999
1629800396488,-0.18903899999999998,0.074908,0.959225
1629800396497,-0.189161,0.075579,0.958676
1629800396507,-0.189283,0.076311,0.95953
1629800396517,-0.190076,0.07679899999999999,0.9624579999999999
1629800396526,-0.190503,0.0732,0.9615429999999999
1629800396536,-0.190076,0.069601,0.962702
1629800396545,-0.190991,0.066978,0.9577
1629800396555,-0.190808,0.064355,0.95648
1629800396565,-0.191113,0.06222,0.9575779999999999
1629800396574,-0.189771,0.060573,0.962092
1629800396584,-0.19056399999999998,0.05856,0.960506
1629800396593,-0.191052,0.057828,0.959469
1629800396603,-0.191723,0.056729999999999996,0.961604
1629800396613,-0.192638,0.053741,0.965996
1629800396622,-0.194102,0.052094,0.96624
1629800396632,-0.194407,0.049349,0.96563
1629800396641,-0.194346,0.048068,0.965325
1629800396651,-0.19397999999999999,0.045689,0.968619
1629800396661,-0.195627,0.045018,0.966484
1629800396670,-0.19550499999999998,0.04453,0.9678869999999999
1629800396680,-0.195383,0.044164,0.964654
1629800396689,-0.195688,0.043859,0.96441
1629800396699,-0.194468,0.041602,0.9675819999999999
1629800396709,-0.196603,0.044164,0.962092
1629800396718,-0.196542,0.043432,0.963556
1629800396728,-0.19641999999999998,0.042456,0.961604
1629800396737,-0.197152,0.038918,0.963861
1629800396747,-0.196298,0.038186,0.964288
1629800396757,-0.196908,0.037271,0.9675819999999999
1629800396766,-0.19763999999999998,0.036112,0.965996
1629800396776,-0.198128,0.0366,0.963678
1629800396785,-0.198311,0.036844,0.96258
1629800396795,-0.198189,0.035685,0.965081
1629800396805,-0.19763999999999998,0.035502,0.966484
1629800396814,-0.198067,0.036661,0.967216
1629800396824,-0.197518,0.036478,0.96441
1629800396833,-0.19763999999999998,0.037332,0.962824
1629800396843,-0.196237,0.034587,0.965081
1629800396853,-0.19672499999999998,0.03477,0.963495
1629800396862,-0.19641999999999998,0.032452,0.9660569999999999
1629800396872,-0.196786,0.032635,0.9638
1629800396881,-0.196298,0.031659,0.964837
1629800396891,-0.19580999999999998,0.031293,0.966301
1629800396901,-0.195932,0.030378,0.966545
1629800396910,-0.196176,0.030073,0.963556
1629800396920,-0.196176,0.030560999999999998,0.963739
1629800396929,-0.195261,0.02928,0.964654
1629800396939,-0.195993,0.029158,0.96746
1629800396949,-0.196969,0.030622,0.965386
1629800396958,-0.196786,0.031232,0.96563
1629800396968,-0.195688,0.028853,0.969961
1629800396977,-0.195749,0.030683,0.96868
1629800396987,-0.195383,0.029158,0.9681919999999999
1629800396997,-0.196054,0.028914,0.969839
1629800397006,-0.195993,0.026352,0.972035
1629800397016,-0.19519999999999998,0.026718,0.9700219999999999
1629800397025,-0.195444,0.027206,0.96807
1629800397035,-0.195139,0.02562,0.972706
1629800397045,-0.19641999999999998,0.027206,0.969656
1629800397054,-0.196237,0.026962,0.968009
1629800397064,-0.195078,0.028853,0.9669719999999999
1629800397073,-0.194468,0.028426,0.968985
1629800397083,-0.19428499999999999,0.030805,0.968009
1629800397093,-0.194773,0.032025,0.965325
1629800397102,-0.192577,0.031781,0.964593
1629800397112,-0.19397999999999999,0.033367,0.963251
1629800397121,-0.193492,0.033672,0.960079
1629800397131,-0.190625,0.032452,0.966545
1629800397141,-0.191418,0.034526,0.96319
1629800397150,-0.192333,0.035623999999999996,0.9606279999999999
1629800397160,-0.19178399999999998,0.036722,0.959591
1629800397169,-0.190503,0.035746,0.964288
1629800397179,-0.19154,0.036905,0.96136
1629800397189,-0.191418,0.035868,0.959469
1629800397198,-0.189893,0.032757,0.962336
1629800397208,-0.19178399999999998,0.032757,0.960384
1629800397217,-0.192028,0.03111,0.962031
1629800397227,-0.191052,0.02867,0.962336
1629800397237,-0.19093,0.028487,0.964715
1629800397246,-0.19056399999999998,0.028426,0.967704
1629800397256,-0.191662,0.027572,0.9666669999999999
1629800397265,-0.19154,0.027084,0.964593
1629800397275,-0.191296,0.027389,0.966301
1629800397285,-0.190686,0.027145,0.96624
1629800397294,-0.19215,0.026413,0.9657519999999999
1629800397304,-0.19154,0.024704999999999998,0.9681919999999999
1629800397313,-0.191418,0.024461,0.968741
1629800397323,-0.191357,0.025925,0.967826
1629800397333,-0.191235,0.025803,0.9699
1629800397342,-0.191662,0.025742,0.969534
1629800397352,-0.191723,0.024704999999999998,0.96868
1629800397361,-0.191723,0.02501,0.968924
1629800397371,-0.19178399999999998,0.026047,0.965264
1629800397381,-0.19117399999999998,0.024827,0.964349
1629800397390,-0.19093,0.02501,0.96319
1629800397400,-0.19056399999999998,0.026352,0.962641
1629800397409,-0.193553,0.030622,0.963068
1629800397419,-0.19367499999999999,0.031903,0.963129
1629800397429,-0.194163,0.034282,0.965203
1629800397438,-0.194651,0.033367,0.9657519999999999
1629800397448,-0.19428499999999999,0.032025,0.9657519999999999
1629800397457,-0.194346,0.031354,0.962702
1629800397467,-0.194224,0.029951,0.966118
1629800397477,-0.193248,0.030683,0.965081
1629800397486,-0.193919,0.030195,0.964654
1629800397496,-0.193309,0.030134,0.964776
1629800397505,-0.193309,0.02989,0.962946
1629800397515,-0.192943,0.028304,0.966484
1629800397525,-0.192028,0.027938,0.967948
1629800397534,-0.19276,0.027999,0.964288
1629800397544,-0.193553,0.025986,0.964532
1629800397553,-0.194651,0.025071,0.965874
1629800397563,-0.19337,0.024399999999999998,0.966606
1629800397573,-0.193553,0.024766,0.96563
1629800397582,-0.19337,0.026474,0.965508
1629800397592,-0.192882,0.027327999999999998,0.962275
1629800397601,-0.192272,0.025131999999999998,0.965081
1629800397611,-0.19178399999999998,0.025254,0.96563
1629800397621,-0.192455,0.026718,0.9657519999999999
1629800397630,-0.192272,0.026047,0.964654
1629800397640,-0.192089,0.027023,0.964532
1629800397649,-0.19276,0.025863999999999998,0.962885
1629800397659,-0.19337,0.024644,0.964471
1629800397669,-0.193797,0.025863999999999998,0.963068
1629800397678,-0.193248,0.02684,0.961665
1629800397688,-0.192577,0.027145,0.963678
1629800397697,-0.193492,0.02623,0.964288
1629800397707,-0.193492,0.02562,0.96441
1629800397717,-0.194651,0.027084,0.96258
1629800397726,-0.194102,0.027206,0.963129
1629800397736,-0.193126,0.024888,0.967948
1629800397745,-0.193309,0.025254,0.965935
1629800397755,-0.192638,0.025315,0.96624
1629800397765,-0.19276,0.024888,0.966728
1629800397774,-0.19215,0.025071,0.9651419999999999
1629800397784,-0.191296,0.024704999999999998,0.9663619999999999
1629800397793,-0.190198,0.023912,0.965996
1629800397803,-0.191418,0.023485,0.96685
1629800397813,-0.191113,0.024217,0.964776
1629800397822,-0.19154,0.024278,0.965935
1629800397832,-0.192455,0.024034,0.96624
1629800397841,-0.19147899999999998,0.022326,0.966606
1629800397851,-0.18995399999999998,0.022753,0.9669719999999999
1629800397861,-0.190137,0.023729,0.965325
1629800397870,-0.191113,0.023241,0.96441
1629800397880,-0.191296,0.023972999999999998,0.967094
1629800397889,-0.19032,0.023972999999999998,0.9678869999999999
1629800397899,-0.190625,0.025315,0.9654469999999999
1629800397909,-0.191662,0.023607,0.966606
1629800397918,-0.191052,0.023972999999999998,0.96807
1629800397928,-0.191296,0.023119,0.9681919999999999
1629800397937,-0.190747,0.023485,0.9678869999999999
1629800397947,-0.191418,0.024278,0.968131
1629800397957,-0.190381,0.024034,0.967399
1629800397966,-0.19215,0.025559,0.9666669999999999
1629800397976,-0.18995399999999998,0.023912,0.9672769999999999
1629800397985,-0.191967,0.026474,0.963129
1629800397995,-0.192821,0.027511,0.961726
1629800398005,-0.191967,0.028059999999999998,0.963434
1629800398014,-0.192882,0.027694,0.963861
1629800398024,-0.193797,0.030012,0.9621529999999999
1629800398033,-0.193065,0.031171,0.963068
1629800398043,-0.19276,0.031476,0.964593
1629800398053,-0.191601,0.029828999999999998,0.968985
1629800398062,-0.192516,0.02989,0.966301
1629800398072,-0.19215,0.028791999999999998,0.963739
1629800398081,-0.19178399999999998,0.028182,0.963251
1629800398091,-0.190381,0.027327999999999998,0.964715
1629800398101,-0.19032,0.026962,0.963251
1629800398110,-0.190686,0.027572,0.961604
1629800398120,-0.18971,0.026474,0.962824
1629800398129,-0.19086899999999998,0.024461,0.963617
1629800398139,-0.189405,0.022203999999999998,0.966301
1629800398149,-0.190076,0.022387,0.963861
1629800398158,-0.189771,0.020984,0.966728
1629800398168,-0.189527,0.021533,0.965935
1629800398177,-0.190686,0.023058,0.96441
1629800398187,-0.190808,0.022692,0.964715
1629800398197,-0.18934399999999998,0.022448,0.967643
1629800398206,-0.191906,0.022875,0.967399
1629800398216,-0.19086899999999998,0.022082,0.966911
1629800398225,-0.19154,0.023058,0.965081
1629800398235,-0.19086899999999998,0.022997,0.964227
1629800398245,-0.191296,0.02257,0.96685
1629800398254,-0.19147899999999998,0.024034,0.966728
1629800398264,-0.191418,0.023058,0.968619
1629800398273,-0.19147899999999998,0.026595999999999998,0.966179
1629800398283,-0.191601,0.027084,0.968009
1629800398293,-0.19178399999999998,0.026352,0.966789
1629800398302,-0.190991,0.025131999999999998,0.96929
1629800398312,-0.191418,0.023119,0.964471
1629800398321,-0.19178399999999998,0.022875,0.963739
1629800398331,-0.19093,0.021838,0.9678869999999999
1629800398341,-0.191235,0.023302,0.9651419999999999
1629800398350,-0.190808,0.023424,0.96624
1629800398360,-0.190442,0.022935999999999998,0.969961
1629800398369,-0.19056399999999998,0.024156,0.96868
1629800398379,-0.19093,0.023424,0.965996
1629800398389,-0.19056399999999998,0.022326,0.966301
1629800398398,-0.190381,0.021899,0.967033
1629800398408,-0.19032,0.022265,0.96685
1629800398417,-0.19117399999999998,0.023363,0.964715
1629800398427,-0.18995399999999998,0.023546,0.964593
1629800398437,-0.189893,0.024644,0.964532
1629800398446,-0.18995399999999998,0.024156,0.964593
1629800398456,-0.189405,0.024156,0.9654469999999999
1629800398465,-0.190686,0.025071,0.964044
1629800398475,-0.189893,0.024644,0.9654469999999999
1629800398485,-0.190198,0.023912,0.966118
1629800398494,-0.18964899999999998,0.022692,0.966606
1629800398504,-0.191113,0.022814,0.965508
1629800398513,-0.191113,0.023912,0.9651419999999999
1629800398523,-0.19056399999999998,0.023058,0.966545
1629800398533,-0.19178399999999998,0.023241,0.964166
1629800398542,-0.190442,0.023424,0.9651419999999999
1629800398552,-0.191113,0.023667999999999998,0.9638
1629800398561,-0.19032,0.024156,0.964227
1629800398571,-0.189466,0.022265,0.9663619999999999
1629800398581,-0.189893,0.024399999999999998,0.964044
1629800398590,-0.189588,0.025559,0.963129
1629800398600,-0.19025899999999998,0.025559,0.964898
1629800398609,-0.19056399999999998,0.025436999999999998,0.964837
1629800398619,-0.189588,0.024766,0.9672769999999999
1629800398629,-0.19056399999999998,0.025742,0.965081
1629800398638,-0.19025899999999998,0.025131999999999998,0.9663619999999999
1629800398648,-0.18964899999999998,0.024034,0.96502
1629800398657,-0.189405,0.023241,0.964898
1629800398667,-0.18812399999999999,0.022997,0.9651419999999999
1629800398677,-0.18903899999999998,0.021228,0.965569
1629800398686,-0.188612,0.020679,0.966545
1629800398696,-0.1891,0.021533,0.965081
1629800398705,-0.188795,0.020618,0.96685
1629800398715,-0.189527,0.021228,0.968375
1629800398725,-0.188856,0.022143,0.9718519999999999
1629800398734,-0.190625,0.024461,0.969778
1629800398744,-0.18995399999999998,0.023972999999999998,0.968741
1629800398753,-0.1891,0.024522,0.965996
1629800398763,-0.189161,0.023607,0.966484
1629800398773,-0.18903899999999998,0.025376,0.963678
1629800398782,-0.188307,0.02562,0.964776
1629800398792,-0.188185,0.025681,0.96624
1629800398801,-0.188856,0.026352,0.96502
1629800398811,-0.188612,0.028059999999999998,0.963068
1629800398821,-0.187697,0.029402,0.964959
1629800398830,-0.187636,0.029585,0.967704
1629800398840,-0.188185,0.027877,0.9669719999999999
1629800398849,-0.188673,0.025498,0.966179
1629800398859,-0.18849,0.024461,0.963678
1629800398869,-0.187453,0.024704999999999998,0.964044
1629800398878,-0.187331,0.023972999999999998,0.964959
1629800398888,-0.187331,0.024522,0.966728
1629800398897,-0.18727,0.024949,0.966118
1629800398907,-0.188185,0.024888,0.967155
1629800398917,-0.187636,0.022753,0.966118
1629800398926,-0.187026,0.021289,0.967094
1629800398936,-0.18842899999999999,0.021167,0.964227
1629800398945,-0.18788,0.021045,0.964044
1629800398955,-0.187453,0.021289,0.964654
1629800398965,-0.187331,0.02135,0.966484
1629800398974,-0.18727,0.021411,0.96685
1629800398984,-0.18788,0.02257,0.9666669999999999
1629800398993,-0.188551,0.022326,0.967948
1629800399003,-0.18788,0.021777,0.969168
1629800399013,-0.18842899999999999,0.023241,0.965996
1629800399022,-0.188185,0.022692,0.966545
1629800399032,-0.188856,0.022935999999999998,0.965264
1629800399041,-0.188795,0.022203999999999998,0.964959
1629800399051,-0.187087,0.021289,0.967704
1629800399061,-0.18842899999999999,0.024704999999999998,0.966118
1629800399070,-0.1891,0.025131999999999998,0.968375
1629800399080,-0.188612,0.024095,0.96746
1629800399089,-0.187575,0.022692,0.97051
1629800399099,-0.188002,0.022448,0.9681919999999999
1629800399109,-0.18812399999999999,0.022448,0.963617
1629800399118,-0.187392,0.021716,0.963922
1629800399128,-0.185867,0.019275999999999998,0.9678869999999999
1629800399137,-0.186538,0.020679,0.967399
1629800399147,-0.18727,0.022021,0.966423
1629800399157,-0.185745,0.021106,0.965935
1629800399166,-0.185196,0.019642,0.969168
1629800399176,-0.185562,0.020496,0.967826
1629800399185,-0.185928,0.021167,0.96563
1629800399195,-0.185684,0.020252,0.965386
1629800399205,-0.186416,0.018971,0.967521
1629800399214,-0.187087,0.022021,0.965203
1629800399224,-0.186782,0.022326,0.964654
1629800399233,-0.186721,0.02196,0.964715
1629800399243,-0.187941,0.022143,0.964837
1629800399253,-0.187941,0.022265,0.965569
1629800399262,-0.187392,0.02135,0.9672769999999999
1629800399272,-0.18781899999999999,0.022143,0.9669719999999999
1629800399281,-0.188185,0.022387,0.964715
1629800399291,-0.18873399999999999,0.022203999999999998,0.964044
1629800399301,-0.188856,0.020923,0.9675819999999999
1629800399310,-0.188673,0.020739999999999998,0.967826
1629800399320,-0.18903899999999998,0.020923,0.965264
1629800399329,-0.188978,0.022387,0.965081
1629800399339,-0.188063,0.021045,0.966606
1629800399349,-0.188368,0.021411,0.9657519999999999
1629800399358,-0.18849,0.021289,0.964532
1629800399368,-0.187148,0.021106,0.965508
1629800399377,-0.18873399999999999,0.021655,0.965935
1629800399387,-0.18812399999999999,0.021471999999999998,0.964898
1629800399397,-0.187453,0.02196,0.964349
1629800399406,-0.187697,0.022143,0.964288
1629800399416,-0.187087,0.022203999999999998,0.966423
1629800399425,-0.186355,0.020435,0.967948
1629800399435,-0.187331,0.019459,0.966728
1629800399445,-0.187758,0.020007999999999998,0.966179
1629800399454,-0.187636,0.020984,0.966728
1629800399464,-0.186477,0.02013,0.969595
1629800399473,-0.188368,0.020923,0.966118
1629800399483,-0.18788,0.020007999999999998,0.967216
1629800399493,-0.187636,0.0183,0.9706319999999999
1629800399502,-0.186599,0.018605,0.9681919999999999
1629800399512,-0.186721,0.018543999999999998,0.967399
1629800399521,-0.185745,0.018178,0.965813
1629800399531,-0.18531799999999998,0.01891,0.96563
1629800399541,-0.18483,0.018483,0.969778
1629800399550,-0.185928,0.019703,0.9666669999999999
1629800399560,-0.186782,0.019886,0.966423
1629800399569,-0.186111,0.019154,0.964837
1629800399579,-0.185257,0.019032,0.9666669999999999
1629800399589,-0.186172,0.019337,0.9666669999999999
1629800399598,-0.18666,0.020435,0.966545
1629800399608,-0.187331,0.020313,0.966606
1629800399617,-0.18788,0.021594,0.967216
1629800399627,-0.18903899999999998,0.021289,0.967948
1629800399637,-0.185928,0.01891,0.9700219999999999
1629800399646,-0.187514,0.021106,0.965325
1629800399656,-0.186965,0.021838,0.96441
1629800399665,-0.18666,0.02196,0.964044
1629800399675,-0.186416,0.022692,0.9638
1629800399685,-0.186294,0.021899,0.963739
1629800399694,-0.186233,0.023058,0.965569
1629800399704,-0.186355,0.025436999999999998,0.96502
1629800399713,-0.187026,0.026108,0.9657519999999999
1629800399723,-0.188246,0.024644,0.964532
1629800399733,-0.187209,0.021411,0.965386
1629800399742,-0.185989,0.020069,0.966118
1629800399752,-0.185867,0.019886,0.964898
1629800399761,-0.186355,0.019275999999999998,0.9654469999999999
1629800399771,-0.185257,0.017568,0.967399
1629800399781,-0.18544,0.017446,0.967033
1629800399790,-0.18605,0.016592,0.965874
1629800399800,-0.185806,0.01464,0.967033
1629800399809,-0.185379,0.01342,0.968619
1629800399819,-0.184525,0.013176,0.968924
1629800399829,-0.18788,0.015311,0.966484
1629800399838,-0.187209,0.016714,0.965569
1629800399848,-0.187026,0.017446,0.966423
1629800399857,-0.187941,0.019398,0.967338
1629800399867,-0.188307,0.01952,0.9688019999999999
1629800399877,-0.187941,0.019642,0.967033
1629800399886,-0.18903899999999998,0.020374,0.96624
1629800399896,-0.188673,0.020923,0.966423
1629800399905,-0.188978,0.021716,0.965264
1629800399915,-0.188002,0.021594,0.967338
1629800399925,-0.188063,0.021716,0.9663619999999999
1629800399934,-0.18849,0.021533,0.966728
1629800399944,-0.18666,0.024704999999999998,0.965386
1629800399953,-0.186782,0.023729,0.968253
1629800399963,-0.187514,0.024156,0.965813
1629800399973,-0.187209,0.02318,0.965508
1629800399982,-0.187026,0.02196,0.963617
1629800399992,-0.185562,0.02135,0.965691
1629800400001,-0.185928,0.020923,0.96685
1629800400011,-0.185867,0.020862,0.968619
1629800400021,-0.185745,0.020862,0.967094
1629800400030,-0.185806,0.021411,0.96685
1629800400040,-0.185867,0.022021,0.965325
1629800400049,-0.18470799999999998,0.021655,0.96624
1629800400059,-0.184769,0.021594,0.968253
1629800400069,-0.18605,0.022143,0.965264
1629800400078,-0.186294,0.021594,0.965081
1629800400088,-0.185867,0.020984,0.967033
1629800400097,-0.185989,0.02135,0.967338
1629800400107,-0.187026,0.021533,0.967338
1629800400117,-0.187026,0.021533,0.967338
1629800400126,-0.186965,0.021471999999999998,0.97112
1629800400136,-0.186904,0.021777,0.967704
1629800400145,-0.186599,0.021777,0.966423
1629800400155,-0.186538,0.021228,0.965569
1629800400165,-0.185928,0.020984,0.9657519999999999
1629800400174,-0.18562299999999998,0.020618,0.966301
1629800400184,-0.186538,0.023241,0.96502
1629800400193,-0.187392,0.024156,0.964227
1629800400203,-0.186721,0.024034,0.966423
1629800400213,-0.18727,0.022997,0.9684969999999999
1629800400222,-0.18781899999999999,0.022692,0.96807
1629800400232,-0.188063,0.022203999999999998,0.96868
1629800400241,-0.186904,0.020374,0.969595
1629800400251,-0.187453,0.023119,0.9697169999999999
1629800400261,-0.188246,0.024522,0.9697169999999999
1629800400270,-0.1891,0.026657,0.970815
1629800400280,-0.189527,0.027694,0.96929
1629800400289,-0.190808,0.028364999999999998,0.9699
1629800400299,-0.190076,0.028548,0.970876
1629800400309,-0.19093,0.031537,0.969168
1629800400318,-0.191418,0.032818,0.971669
1629800400328,-0.190991,0.034099,0.969961
1629800400337,-0.192882,0.03965,0.965264
1629800400347,-0.194102,0.040748,0.964288
1629800400357,-0.195688,0.044286,0.9663619999999999
1629800400366,-0.195688,0.047519,0.968741
1629800400376,-0.198494,0.055937,0.96319
1629800400385,-0.20044599999999999,0.059231,0.9672769999999999
1629800400395,-0.200934,0.060756,0.97112
1629800400405,-0.202642,0.064111,0.9691069999999999
1629800400414,-0.202093,0.064904,0.968436
1629800400424,-0.205509,0.0732,0.961421
1629800400433,-0.208071,0.079178,0.964349
1629800400443,-0.20782699999999998,0.081679,0.97112
1629800400453,-0.21167,0.083875,0.964471
1629800400462,-0.214659,0.085705,0.964166
1629800400472,-0.216672,0.0915,0.959652
1629800400481,-0.217648,0.095404,0.963922
1629800400491,-0.217465,0.101199,0.96624
1629800400501,-0.220027,0.109861,0.960445
1629800400510,-0.222772,0.11809599999999999,0.960994
1629800400520,-0.225639,0.129076,0.960262
1629800400529,-0.227286,0.139934,0.952759
1629800400539,-0.23003099999999999,0.152195,0.952149
1629800400549,-0.23155599999999998,0.15390299999999998,0.953857
1629800400558,-0.233569,0.16067399999999998,0.952942
1629800400568,-0.237046,0.171044,0.944219
1629800400577,-0.238449,0.18196299999999999,0.939522
1629800400587,-0.24156,0.19733499999999998,0.927566
1629800400597,-0.243329,0.207339,0.927871
1629800400606,-0.244732,0.216672,0.928481
1629800400616,-0.24766,0.228628,0.923967
1629800400625,-0.250344,0.23619199999999999,0.918416
1629800400635,-0.252113,0.246867,0.914817
1629800400645,-0.255224,0.258457,0.906033
1629800400654,-0.258274,0.266082,0.908778
1629800400664,-0.25943299999999997,0.27144999999999997,0.909144
1629800400673,-0.261934,0.280966,0.901458
1629800400683,-0.265045,0.29219,0.896578
1629800400693,-0.26779,0.300486,0.8906
1629800400702,-0.26992499999999997,0.309209,0.891942
1629800400712,-0.272914,0.313784,0.8970049999999999
1629800400721,-0.275171,0.315736,0.897188
1629800400731,-0.275476,0.32012799999999997,0.900604
1629800400741,-0.278404,0.32787499999999997,0.8963949999999999
1629800400750,-0.280661,0.336781,0.891515
1629800400760,-0.283223,0.348615,0.8821209999999999
1629800400769,-0.285114,0.358497,0.879559
1629800400779,-0.286944,0.364292,0.880779
1629800400789,-0.287737,0.36905,0.880169
1629800400798,-0.290177,0.37454,0.87352
1629800400808,-0.29219,0.378261,0.866444
1629800400817,-0.292983,0.38613,0.8586969999999999
1629800400827,-0.294142,0.39466999999999997,0.847473
1629800400837,-0.296216,0.40363699999999997,0.837164
1629800400846,-0.296277,0.410896,0.833382
1629800400856,-0.296582,0.413702,0.836554
1629800400865,-0.297558,0.414861,0.83936
1629800400875,-0.299022,0.417606,0.83631
1629800400885,-0.302804,0.4209,0.831125
1629800400894,-0.302194,0.421266,0.829234
1629800400904,-0.302926,0.423889,0.823317
1629800400913,-0.302682,0.427732,0.8252079999999999
1629800400923,-0.30195,0.42944,0.8264279999999999
1629800400933,-0.302255,0.432673,0.825757
1629800400942,-0.304573,0.434381,0.828197
1629800400952,-0.30536599999999997,0.434015,0.8303929999999999
1629800400961,-0.306464,0.436882,0.83082
1629800400971,-0.30933099999999997,0.438224,0.8288679999999999
1629800400981,-0.3111,0.438407,0.82777
1629800400990,-0.312259,0.438529,0.8267329999999999
1629800401000,-0.313845,0.436699,0.8285629999999999
1629800401009,-0.31537,0.436211,0.8316129999999999
1629800401019,-0.316102,0.435357,0.835395
1629800401029,-0.317932,0.435784,0.835639
1629800401038,-0.32086,0.435845,0.8316129999999999
1629800401048,-0.32226299999999997,0.43981,0.829295
1629800401057,-0.32391,0.443714,0.8249029999999999
1629800401067,-0.323361,0.447862,0.82167
1629800401077,-0.324886,0.45017999999999997,0.818864
1629800401086,-0.326228,0.45139999999999997,0.816607
1629800401096,-0.327936,0.452437,0.817278
1629800401105,-0.329766,0.451156,0.820145
1629800401115,-0.332511,0.448838,0.82106
1629800401125,-0.33244999999999997,0.447069,0.821182
1629800401134,-0.333548,0.445971,0.820511
1629800401144,-0.333304,0.446276,0.815082
1629800401153,-0.33305999999999997,0.447008,0.812093
1629800401163,-0.331901,0.44865499999999997,0.809775
1629800401173,-0.332206,0.449204,0.810385
1629800401182,-0.332999,0.449204,0.812276
1629800401192,-0.333792,0.448899,0.813618
1629800401201,-0.33458499999999997,0.44743499999999997,0.816546
1629800401211,-0.334646,0.446154,0.819474
1629800401221,-0.336659,0.447374,0.818925
1629800401230,-0.337086,0.449509,0.817949
1629800401240,-0.338184,0.454328,0.814655
1629800401249,-0.336537,0.45933,0.8121539999999999
1629800401259,-0.334951,0.460489,0.8136789999999999
1629800401269,-0.336964,0.456219,0.815326
1629800401278,-0.339099,0.45170499999999997,0.815631
1629800401288,-0.34019699999999997,0.44286,0.815265
1629800401297,-0.34038,0.437797,0.815753
1629800401307,-0.341661,0.434686,0.81679
1629800401317,-0.343308,0.434015,0.814472
1629800401326,-0.341966,0.433283,0.814106
1629800401336,-0.343186,0.434991,0.810446
1629800401345,-0.34343,0.43785799999999997,0.805383
1629800401355,-0.341905,0.43785799999999997,0.809165
1629800401365,-0.341234,0.43615,0.81679
1629800401374,-0.342515,0.433649,0.823622
1629800401384,-0.34343,0.432612,0.829905
1629800401393,-0.344284,0.430904,0.833992
1629800401403,-0.346114,0.42919599999999997,0.833626
1629800401413,-0.346114,0.429562,0.829844
1629800401422,-0.345931,0.42822,0.827099
1629800401432,-0.347151,0.42706099999999997,0.825696
1629800401441,-0.347944,0.426817,0.823927
1629800401451,-0.348615,0.428098,0.823256
1629800401461,-0.349347,0.430477,0.821487
1629800401470,-0.350262,0.433527,0.816607
1629800401480,-0.350811,0.43615,0.815448
1629800401489,-0.35221399999999997,0.43859,0.818071
1629800401499,-0.35258,0.440115,0.820755
1629800401509,-0.354105,0.438956,0.821121
1629800401518,-0.35282399999999997,0.434503,0.823439
1629800401528,-0.351543,0.43249,0.827465
1629800401537,-0.35251899999999997,0.431758,0.82899
1629800401547,-0.351116,0.432307,0.826001
1629800401557,-0.351421,0.43371,0.823622
1629800401566,-0.35160399999999997,0.435479,0.821365
1629800401576,-0.350628,0.4392,0.818803
1629800401585,-0.350384,0.441396,0.816302
1629800401595,-0.350994,0.44103,0.8155089999999999
1629800401605,-0.353007,0.441762,0.815997
1629800401614,-0.351665,0.441701,0.816973
1629800401624,-0.35319,0.440786,0.817156
1629800401633,-0.35319,0.441762,0.818559
1629800401643,-0.353556,0.444324,0.820328
1629800401653,-0.352458,0.445422,0.819352
1629800401662,-0.35258,0.449082,0.815265
1629800401672,-0.350872,0.454633,0.8136789999999999
1629800401681,-0.35197,0.45933,0.812642
1629800401691,-0.353068,0.464576,0.809165
1629800401701,-0.352885,0.465186,0.806481
1629800401710,-0.35343399999999997,0.46463699999999997,0.8063589999999999
1629800401720,-0.35404399999999997,0.46433199999999997,0.806237
1629800401729,-0.353678,0.462624,0.8072739999999999
1629800401739,-0.353983,0.45994,0.806847
1629800401749,-0.35197,0.457195,0.805078
1629800401758,-0.350567,0.454511,0.805017
1629800401768,-0.350384,0.453779,0.8030039999999999
1629800401777,-0.346663,0.453779,0.802272
1629800401787,-0.344345,0.454816,0.802333
1629800401797,-0.343735,0.457988,0.8017839999999999
1629800401806,-0.343613,0.460245,0.80154
1629800401816,-0.341966,0.461831,0.801906
1629800401825,-0.34099,0.462868,0.80337
1629800401835,-0.34172199999999997,0.461648,0.803797
1629800401845,-0.340624,0.46006199999999997,0.802638
1629800401854,-0.340563,0.459879,0.802272
1629800401864,-0.340014,0.460245,0.8048339999999999
1629800401873,-0.340014,0.461343,0.8039189999999999
1629800401883,-0.338672,0.46189199999999997,0.8039189999999999
1629800401893,-0.33794,0.463173,0.802638
1629800401902,-0.336964,0.464698,0.8026989999999999
1629800401912,-0.335744,0.464454,0.8005639999999999
1629800401921,-0.335927,0.465918,0.800991
1629800401931,-0.335866,0.46677199999999996,0.8011739999999999
1629800401941,-0.335622,0.46585699999999997,0.801052
1629800401950,-0.335988,0.465308,0.803126
1629800401960,-0.335134,0.465308,0.804285
1629800401969,-0.335256,0.465308,0.804651
1629800401979,-0.335256,0.466345,0.805932
1629800401989,-0.333548,0.46555199999999997,0.807457
1629800401998,-0.331047,0.46768699999999996,0.8097139999999999
1629800402008,-0.331657,0.470188,0.813435
1629800402017,-0.332206,0.469578,0.8158139999999999
1629800402027,-0.3355,0.470005,0.8142889999999999
1629800402037,-0.334829,0.466528,0.809897
1629800402046,-0.334768,0.465308,0.807396
1629800402056,-0.335805,0.463966,0.804895
1629800402065,-0.335683,0.461465,0.804285
1629800402075,-0.334524,0.459635,0.805566
1629800402085,-0.334341,0.460184,0.808555
1629800402094,-0.334463,0.463051,0.810812
1629800402104,-0.333609,0.461465,0.8136789999999999
1629800402113,-0.33336499999999997,0.461038,0.817766
1629800402123,-0.33244999999999997,0.460245,0.821304
1629800402133,-0.332999,0.459269,0.820328
1629800402142,-0.331901,0.453657,0.819596
1629800402152,-0.331291,0.449326,0.820328
1629800402161,-0.332877,0.447557,0.820999
1629800402171,-0.33214499999999997,0.446459,0.820023
1629800402181,-0.330071,0.445544,0.819535
1629800402190,-0.329644,0.448411,0.818559
1629800402200,-0.329034,0.450424,0.818559
1629800402209,-0.328973,0.452559,0.819535
1629800402219,-0.327326,0.453291,0.819535
1629800402229,-0.327509,0.452193,0.820389
1629800402238,-0.326899,0.450912,0.819718
1629800402248,-0.325801,0.451278,0.819718
1629800402257,-0.324825,0.44956999999999997,0.821243
1629800402267,-0.325618,0.447923,0.822097
1629800402277,-0.324276,0.447374,0.821548
1629800402286,-0.324154,0.44926499999999997,0.8242929999999999
1629800402296,-0.325435,0.450546,0.825635
1629800402305,-0.325374,0.449753,0.820999
1629800402315,-0.325191,0.446947,0.817278
1629800402325,-0.325435,0.445666,0.811971
1629800402334,-0.32391,0.444873,0.809592
1629800402344,-0.322202,0.444202,0.810385
1629800402353,-0.321775,0.445727,0.811483
1629800402363,-0.32147,0.446215,0.814533
1629800402373,-0.320555,0.445178,0.818132
1629800402382,-0.31964,0.442494,0.813313
1629800402392,-0.318481,0.43816299999999997,0.814472
1629800402401,-0.319152,0.436699,0.817278
1629800402411,-0.319152,0.433588,0.821792
1629800402421,-0.320067,0.431514,0.8242929999999999
1629800402430,-0.320616,0.430843,0.82533
1629800402440,-0.321592,0.429257,0.827221
1629800402449,-0.321897,0.426085,0.830576
1629800402459,-0.324703,0.426207,0.834724
1629800402469,-0.32226299999999997,0.42462099999999997,0.835822
1629800402478,-0.321897,0.422303,0.8401529999999999
1629800402488,-0.32134799999999997,0.418277,0.842166
1629800402497,-0.321775,0.41534899999999997,0.840275
1629800402507,-0.323971,0.41900899999999996,0.84241
1629800402517,-0.325435,0.41961899999999996,0.843874
1629800402526,-0.324642,0.419802,0.843691
1629800402536,-0.324154,0.423279,0.846131
1629800402545,-0.324337,0.421327,0.8461919999999999
1629800402555,-0.323727,0.420839,0.844057
1629800402565,-0.323422,0.420107,0.843142
1629800402574,-0.322202,0.418826,0.843508
1629800402584,-0.322324,0.417545,0.841617
1629800402593,-0.322324,0.415288,0.842837
1629800402603,-0.32104299999999997,0.41602,0.842166
1629800402613,-0.321714,0.415166,0.840336
1629800402622,-0.320982,0.415471,0.839116
1629800402632,-0.320555,0.416203,0.839726
1629800402641,-0.32269,0.419802,0.839055
1629800402651,-0.322934,0.419375,0.836066
1629800402661,-0.321409,0.419436,0.834724
1629800402670,-0.320799,0.421144,0.831796
1629800402680,-0.321775,0.42151,0.830576
1629800402689,-0.32073799999999997,0.420656,0.832467
1629800402699,-0.321714,0.421571,0.83204
1629800402709,-0.320982,0.420046,0.8325279999999999
1629800402718,-0.32012799999999997,0.42029,0.83387
1629800402728,-0.320006,0.41907,0.8349679999999999
1629800402737,-0.319762,0.419741,0.834724
1629800402747,-0.319762,0.419192,0.833321
1629800402757,-0.31921299999999997,0.417667,0.8337479999999999
1629800402766,-0.31951799999999997,0.419497,0.833321
1629800402776,-0.318969,0.417911,0.832101
1629800402785,-0.318969,0.41748399999999997,0.8337479999999999
1629800402795,-0.31921299999999997,0.41687399999999997,0.834724
1629800402805,-0.318542,0.41626399999999997,0.837835
1629800402814,-0.318786,0.413458,0.83875
1629800402824,-0.318542,0.41199399999999997,0.8404579999999999
1629800402833,-0.31781,0.410896,0.841861
1629800402843,-0.3172,0.408334,0.845399
1629800402853,-0.317444,0.407236,0.846314
1629800402862,-0.316895,0.405833,0.843874
1629800402872,-0.317566,0.40638199999999997,0.843813
1629800402881,-0.317322,0.405406,0.845582
1629800402891,-0.317871,0.40443,0.846863
1629800402901,-0.318115,0.40455199999999997,0.847229
1629800402910,-0.3172,0.403698,0.850096
1629800402920,-0.317627,0.403698,0.848388
1629800402929,-0.317322,0.40241699999999997,0.849181
1629800402939,-0.317139,0.402356,0.85095
1629800402949,-0.3172,0.403088,0.8510719999999999
1629800402958,-0.316895,0.403271,0.8477169999999999
1629800402968,-0.316712,0.402051,0.84729
1629800402977,-0.317261,0.403088,0.847046
1629800402987,-0.31707799999999997,0.40363699999999997,0.846558
1629800402997,-0.316529,0.403881,0.846863
1629800403006,-0.31659,0.40363699999999997,0.844728
1629800403016,-0.316712,0.40516199999999997,0.845582
1629800403025,-0.316651,0.40455199999999997,0.84668
1629800403035,-0.31677299999999997,0.404674,0.847168
1629800403045,-0.316834,0.404369,0.846924
1629800403054,-0.317322,0.406016,0.846253
1629800403064,-0.316102,0.404308,0.8461919999999999
1629800403073,-0.316224,0.404064,0.846375
1629800403083,-0.315797,0.404064,0.843996
1629800403093,-0.315553,0.403454,0.845155
1629800403102,-0.314882,0.403149,0.845399
1629800403112,-0.315248,0.40363699999999997,0.845033
1629800403121,-0.314943,0.403149,0.843996
1629800403131,-0.316041,0.402966,0.844667
1629800403141,-0.315919,0.403698,0.844728
1629800403150,-0.31646799999999997,0.404003,0.845155
1629800403160,-0.31598,0.403881,0.846314
1629800403169,-0.316346,0.405284,0.84668
1629800403179,-0.316041,0.405589,0.848266
1629800403189,-0.316834,0.405284,0.8461919999999999
1629800403198,-0.316041,0.405101,0.845948
1629800403208,-0.315675,0.404918,0.8461919999999999
1629800403217,-0.31476,0.405284,0.8464969999999999
1629800403227,-0.314699,0.405345,0.847046
1629800403237,-0.315065,0.40485699999999997,0.846131
1629800403246,-0.315736,0.404918,0.843142
1629800403256,-0.314699,0.404003,0.843752
1629800403265,-0.314638,0.404918,0.845948
1629800403275,-0.316041,0.408334,0.847656
1629800403285,-0.314272,0.40668699999999997,0.848754
1629800403294,-0.315797,0.404369,0.84607
1629800403304,-0.314821,0.40321,0.846253
1629800403313,-0.315614,0.40272199999999997,0.848144
1629800403323,-0.313845,0.402051,0.848754
1629800403333,-0.314272,0.401685,0.848205
1629800403342,-0.313601,0.40028199999999997,0.849303
1629800403352,-0.313479,0.400221,0.848754
1629800403361,-0.313113,0.399062,0.8498519999999999
1629800403371,-0.312808,0.397964,0.8492419999999999
1629800403381,-0.313113,0.397049,0.849364
1629800403390,-0.313967,0.396317,0.848388
1629800403400,-0.31415,0.397293,0.849303
1629800403409,-0.313845,0.398147,0.848144
1629800403419,-0.314516,0.397842,0.851194
1629800403429,-0.313357,0.398147,0.850279
1629800403438,-0.315309,0.40028199999999997,0.849669
1629800403448,-0.315492,0.400221,0.848998
1629800403457,-0.314821,0.398818,0.848815
1629800403467,-0.313296,0.397842,0.8504619999999999
1629800403477,-0.314882,0.399733,0.849974
1629800403486,-0.31354,0.39833,0.8501569999999999
1629800403496,-0.313113,0.396012,0.849364
1629800403505,-0.311954,0.396378,0.8495469999999999
1629800403515,-0.311466,0.398208,0.849974
1629800403525,-0.313113,0.398818,0.851133
1629800403534,-0.311893,0.398025,0.850828
1629800403544,-0.31049,0.396744,0.851255
1629800403553,-0.310124,0.393999,0.850889
1629800403563,-0.308782,0.392474,0.8501569999999999
1629800403573,-0.309087,0.390766,0.851438
1629800403582,-0.308294,0.38856999999999997,0.852841
1629800403592,-0.308477,0.388753,0.853451
1629800403601,-0.309087,0.39009499999999997,0.854549
1629800403611,-0.309148,0.388997,0.8525969999999999
1629800403621,-0.30780599999999997,0.388814,0.8541219999999999
1629800403630,-0.307989,0.387716,0.852048
1629800403640,-0.30683,0.385764,0.855464
1629800403649,-0.30683,0.382836,0.856318
1629800403659,-0.30689099999999997,0.378444,0.859429
1629800403669,-0.30567099999999997,0.372893,0.859978
1629800403678,-0.303536,0.366854,0.8635769999999999
1629800403688,-0.302804,0.362462,0.86742
1629800403697,-0.30134,0.356667,0.867542
1629800403707,-0.299144,0.351055,0.868152
1629800403717,-0.297436,0.34599199999999997,0.872239
1629800403726,-0.296277,0.341844,0.87535
1629800403736,-0.293227,0.336171,0.8787659999999999
1629800403745,-0.29304399999999997,0.332633,0.880169
1629800403755,-0.289933,0.327204,0.883402
1629800403765,-0.28853,0.325313,0.888953
1629800403774,-0.288103,0.31982299999999997,0.896212
1629800403784,-0.287554,0.309392,0.900116
1629800403793,-0.285785,0.299693,0.905118
1629800403803,-0.28407699999999997,0.292068,0.908229
1629800403813,-0.282735,0.285236,0.907497
1629800403822,-0.280051,0.277855,0.9067649999999999
1629800403832,-0.277306,0.270901,0.906399
1629800403841,-0.276025,0.265167,0.909449
1629800403851,-0.27358499999999997,0.262666,0.9110349999999999
1629800403861,-0.272182,0.257542,0.908961
1629800403870,-0.270779,0.25071,0.909083
1629800403880,-0.268522,0.243329,0.9128649999999999
1629800403889,-0.265716,0.237778,0.916098
1629800403899,-0.264008,0.23186099999999998,0.917074
1629800403909,-0.261629,0.223809,0.919575
1629800403918,-0.259677,0.215391,0.922747
1629800403928,-0.258884,0.208315,0.93025
1629800403937,-0.25760299999999997,0.199897,0.930128
1629800403947,-0.257542,0.191906,0.931775
1629800403957,-0.25437,0.183,0.935313
1629800403966,-0.251869,0.177815,0.9381189999999999
1629800403976,-0.250466,0.173423,0.939156
1629800403985,-0.249246,0.168909,0.9375089999999999
1629800403995,-0.247416,0.166591,0.937997
1629800404005,-0.24631799999999998,0.164029,0.937875
1629800404014,-0.24540299999999998,0.16006399999999998,0.937875
