timestamp,ax,ay,az
1630498274194,-0.644709,-0.302743,-0.696864
1630498274203,-0.644648,-0.303231,-0.69479
1630498274213,-0.644465,-0.303292,-0.69418
1630498274223,-0.642818,-0.303475,-0.691923
1630498274232,-0.6420859999999999,-0.302499,-0.691801
1630498274242,-0.64172,-0.302438,-0.69235
1630498274251,-0.6414759999999999,-0.301462,-0.6935089999999999
1630498274261,-0.642513,-0.301401,-0.69357
1630498274271,-0.6420859999999999,-0.301706,-0.694241
1630498274280,-0.6433059999999999,-0.301645,-0.693875
1630498274290,-0.643855,-0.302377,-0.695827
1630498274299,-0.643672,-0.306098,-0.698511
1630498274309,-0.6433059999999999,-0.30933099999999997,-0.698694
1630498274319,-0.642879,-0.310734,-0.697779
1630498274328,-0.642147,-0.311039,-0.694668
1630498274338,-0.641842,-0.308538,-0.691801
1630498274347,-0.6445259999999999,-0.307135,-0.691435
1630498274357,-0.646722,-0.303658,-0.69357
1630498274367,-0.645014,-0.30195,-0.694851
1630498274376,-0.644892,-0.302316,-0.696559
1630498274386,-0.6457459999999999,-0.305488,-0.696254
1630498274395,-0.646905,-0.308172,-0.6944239999999999
1630498274405,-0.647088,-0.310307,-0.6941189999999999
1630498274415,-0.647271,-0.310124,-0.694851
1630498274424,-0.646966,-0.310917,-0.695156
1630498274434,-0.646661,-0.31055099999999997,-0.695522
1630498274443,-0.647454,-0.310185,-0.695461
1630498274453,-0.647271,-0.30866,-0.693936
1630498274463,-0.6454409999999999,-0.30658599999999997,-0.692472
1630498274472,-0.646112,-0.305427,-0.689361
1630498274482,-0.644282,-0.306403,-0.6898489999999999
1630498274491,-0.64355,-0.307257,-0.689605
1630497978008,-0.624396,-0.2623,-0.726815
1630497978018,-0.625616,-0.262544,-0.7284619999999999
1630497978027,-0.626592,-0.262117,-0.730109
1630497978037,-0.626836,-0.261995,-0.73078
1630497978047,-0.627751,-0.262422,-0.730536
1630497978056,-0.628178,-0.261995,-0.731634
1630497978066,-0.626531,-0.262178,-0.731756
1630497978075,-0.627019,-0.262849,-0.732305
1630497978085,-0.62586,-0.265228,-0.733586
1630497978095,-0.626653,-0.26413,-0.7330369999999999
1630497978104,-0.624762,-0.264557,-0.732488
1630497978114,-0.624518,-0.263642,-0.731268
1630497978123,-0.624945,-0.261751,-0.73139
1630497978133,-0.622932,-0.261385,-0.730536
1630497978143,-0.62342,-0.260897,-0.730658
1630497978152,-0.623359,-0.261324,-0.73322
1630497978162,-0.623603,-0.26291,-0.734135
1630497978171,-0.62342,-0.261751,-0.734196
1630497978181,-0.623786,-0.262178,-0.732488
1630497978191,-0.622383,-0.25943299999999997,-0.729804
1630497978200,-0.621468,-0.259616,-0.72956
1630497978210,-0.624213,-0.258152,-0.7296819999999999
1630497978219,-0.623908,-0.258396,-0.731695
1630497978229,-0.623237,-0.257176,-0.735721
1630497978239,-0.623298,-0.255346,-0.739808
1630497978248,-0.623664,-0.255895,-0.739381
1630497978258,-0.623298,-0.256932,-0.736453
1630497978267,-0.622566,-0.257664,-0.733098
1630497978277,-0.622627,-0.255834,-0.730353
1630497978287,-0.620736,-0.257115,-0.73261
1630497978296,-0.6207969999999999,-0.2562,-0.732183
1630497978306,-0.619516,-0.256627,-0.73139
1630497978315,-0.619516,-0.25699299999999997,-0.732671
1630497978325,-0.6189669999999999,-0.254675,-0.7321219999999999
1630497978335,-0.619943,-0.254187,-0.731573
1630497978344,-0.620919,-0.253882,-0.7312069999999999
1630497978354,-0.6211019999999999,-0.254004,-0.731756
1630497978363,-0.620431,-0.253638,-0.732549
1630497978373,-0.62098,-0.254858,-0.7336469999999999
1630497978383,-0.623054,-0.25437,-0.734745
1630497978392,-0.622871,-0.255773,-0.735111
1630497978402,-0.6204919999999999,-0.255529,-0.7342569999999999
1630497978411,-0.62159,-0.256749,-0.733159
1630497978421,-0.622078,-0.2562,-0.7336469999999999
1630497978431,-0.622627,-0.257115,-0.732183
1630497978440,-0.622566,-0.254675,-0.7330369999999999
1630497978450,-0.621956,-0.253516,-0.736636
1630497978459,-0.623054,-0.25254,-0.73627
1630497978469,-0.622139,-0.251747,-0.73505
1630497978479,-0.623054,-0.251564,-0.733525
1630497978488,-0.623908,-0.25193,-0.73322
1630497978498,-0.622383,-0.252418,-0.733586
1630497978507,-0.623298,-0.252601,-0.733891
1630497978517,-0.622505,-0.253577,-0.734684
1630497978527,-0.622139,-0.254431,-0.734318
1630497978536,-0.623237,-0.255712,-0.734684
1630497978546,-0.62037,-0.256566,-0.735843
1630497978555,-0.619516,-0.257969,-0.73566
1630497978565,-0.622566,-0.25668799999999997,-0.7366969999999999
1630497978575,-0.623725,-0.255346,-0.7366969999999999
1630497978584,-0.623359,-0.255468,-0.737673
1630497978594,-0.62342,-0.255224,-0.736514
1630497978603,-0.623298,-0.255224,-0.735538
1630497978613,-0.62281,-0.255712,-0.736331
1630497978623,-0.622627,-0.255468,-0.735233
1630497978632,-0.622017,-0.254797,-0.73505
1630497978642,-0.6214069999999999,-0.253089,-0.73383
1630497978651,-0.620858,-0.253882,-0.7354769999999999
1630497978661,-0.622139,-0.251808,-0.7345619999999999
1630497978671,-0.621834,-0.252479,-0.7354769999999999
1630497978680,-0.622017,-0.251686,-0.7345619999999999
1630497978690,-0.620858,-0.252784,-0.736209
1630497978699,-0.6211019999999999,-0.252845,-0.734196
1630497978709,-0.6198819999999999,-0.252113,-0.7339519999999999
1630497978719,-0.62098,-0.25193,-0.73444
1630497978728,-0.62037,-0.253516,-0.734684
1630497978738,-0.6204919999999999,-0.253638,-0.73261
1630497978747,-0.621041,-0.25193,-0.731573
1630497978757,-0.61915,-0.251137,-0.730231
1630497978767,-0.620553,-0.250527,-0.729743
1630497978776,-0.622261,-0.252662,-0.7330369999999999
1630497978786,-0.622749,-0.252845,-0.7366969999999999
1630497978795,-0.623603,-0.252052,-0.7397469999999999
1630497978805,-0.622566,-0.252906,-0.741638
1630497978815,-0.622566,-0.255163,-0.73993
1630497978824,-0.62159,-0.257481,-0.735721
1630497978834,-0.620858,-0.257481,-0.73383
1630497978843,-0.62159,-0.25742,-0.732488
1630497978853,-0.621285,-0.25821299999999997,-0.732549
1630497978863,-0.618784,-0.258945,-0.735355
1630497978872,-0.619699,-0.259677,-0.736026
1630497978882,-0.6211019999999999,-0.25851799999999997,-0.736636
1630497978891,-0.619516,-0.25851799999999997,-0.736636
1630497978901,-0.619333,-0.258274,-0.737673
1630497978911,-0.620675,-0.258884,-0.735904
1630497978920,-0.620065,-0.25864,-0.735416
1630497978930,-0.621163,-0.257847,-0.736331
1630497978939,-0.621041,-0.258762,-0.735721
1630497978949,-0.6207969999999999,-0.25943299999999997,-0.73566
1630497978959,-0.6192719999999999,-0.259006,-0.734318
1630497978968,-0.621041,-0.258152,-0.732793
1630497978978,-0.623664,-0.25699299999999997,-0.73383
1630497978987,-0.623542,-0.25498,-0.734074
1630497978997,-0.624579,-0.253516,-0.734684
1630497979007,-0.623176,-0.252052,-0.736453
1630497979016,-0.622993,-0.252113,-0.73566
1630497979026,-0.62403,-0.250832,-0.735965
1630497979035,-0.62281,-0.250771,-0.735111
1630497979045,-0.622749,-0.251564,-0.7333419999999999
1630497979055,-0.622261,-0.252296,-0.732854
1630497979064,-0.621529,-0.252113,-0.73322
1630497979074,-0.621834,-0.252296,-0.733769
1630497979083,-0.622078,-0.252174,-0.733525
1630497979093,-0.620858,-0.252113,-0.732915
1630497979103,-0.621529,-0.25315,-0.733403
1630497979112,-0.622993,-0.251869,-0.732976
1630497979122,-0.622444,-0.252357,-0.734501
1630497979131,-0.622871,-0.252296,-0.73444
1630497979141,-0.622993,-0.253821,-0.735416
1630497979151,-0.62342,-0.252723,-0.735538
1630497979160,-0.623176,-0.253821,-0.7360869999999999
1630497979170,-0.622505,-0.254614,-0.73566
1630497979179,-0.623176,-0.255834,-0.7357819999999999
1630497979189,-0.623603,-0.254736,-0.736026
1630497979199,-0.623786,-0.255468,-0.73627
1630497979208,-0.624152,-0.254736,-0.736453
1630497979218,-0.622932,-0.254309,-0.737246
1630497979227,-0.622444,-0.253028,-0.735965
1630497979237,-0.623176,-0.252357,-0.735294
1630497979247,-0.623176,-0.251625,-0.735233
1630497979256,-0.623054,-0.249551,-0.7351719999999999
1630497979266,-0.622505,-0.248636,-0.7342569999999999
1630497979275,-0.623359,-0.249551,-0.732854
1630497979285,-0.622749,-0.249612,-0.73322
1630497979295,-0.623481,-0.250161,-0.73505
1630497979304,-0.622627,-0.251137,-0.736636
1630497979314,-0.621346,-0.25254,-0.735721
1630497979323,-0.620675,-0.249246,-0.732793
1630497979333,-0.6211019999999999,-0.249002,-0.729194
1630497979343,-0.622261,-0.248453,-0.731695
1630497979352,-0.625921,-0.248087,-0.735416
1630497979362,-0.625677,-0.245586,-0.739686
1630497979371,-0.624274,-0.246562,-0.7424919999999999
1630497979381,-0.623298,-0.249612,-0.740113
1630497979391,-0.62281,-0.253455,-0.73566
1630497979400,-0.622444,-0.25437,-0.734196
1630497979410,-0.621529,-0.255468,-0.734684
1630497979419,-0.620614,-0.255285,-0.735355
1630497979429,-0.619394,-0.253943,-0.734989
1630497979439,-0.619028,-0.25254,-0.734318
1630497979448,-0.619455,-0.252845,-0.7345619999999999
1630497979458,-0.619943,-0.251015,-0.734989
1630497979467,-0.621163,-0.251808,-0.736514
1630497979477,-0.6204919999999999,-0.251991,-0.7363919999999999
1630497979487,-0.620431,-0.252113,-0.7348669999999999
1630497979496,-0.622017,-0.252174,-0.734745
1630497979506,-0.622383,-0.253028,-0.735416
1630497979515,-0.623725,-0.253394,-0.738161
1630497979525,-0.622688,-0.252357,-0.738893
1630497979535,-0.621224,-0.252174,-0.738344
1630497979544,-0.623115,-0.251381,-0.73566
1630497979554,-0.624518,-0.249246,-0.7357819999999999
1630497979563,-0.624762,-0.24827,-0.733525
1630497979573,-0.625006,-0.24631799999999998,-0.7357819999999999
1630497979583,-0.624396,-0.24570799999999998,-0.737124
1630497979592,-0.625006,-0.244671,-0.736758
1630497979602,-0.624945,-0.244305,-0.736819
1630497979611,-0.624091,-0.245525,-0.737368
1630497979621,-0.624152,-0.245769,-0.735721
1630497979631,-0.624884,-0.244732,-0.735538
1630497979640,-0.624579,-0.24357299999999998,-0.7357819999999999
1630497979650,-0.623725,-0.243634,-0.7366969999999999
1630497979659,-0.622871,-0.24387799999999998,-0.7351719999999999
1630497979669,-0.622261,-0.244244,-0.7342569999999999
1630497979679,-0.6214069999999999,-0.244122,-0.734806
1630497979688,-0.621346,-0.24448799999999998,-0.734745
1630497979698,-0.620004,-0.244366,-0.734013
1630497979707,-0.621041,-0.244366,-0.733586
1630497979717,-0.62037,-0.245647,-0.7351719999999999
1630497979727,-0.6211019999999999,-0.24644,-0.736026
1630497979736,-0.622566,-0.248148,-0.73566
1630497979746,-0.622444,-0.249368,-0.736941
1630497979755,-0.623054,-0.2501,-0.736941
1630497979765,-0.62403,-0.250893,-0.73627
1630497979775,-0.622322,-0.250832,-0.736148
1630497979784,-0.622688,-0.250161,-0.73749
1630497979794,-0.6222,-0.248453,-0.737368
1630497979803,-0.622566,-0.247538,-0.736148
1630497979813,-0.621956,-0.247538,-0.735904
1630497979823,-0.62159,-0.24644,-0.735538
1630497979832,-0.6214069999999999,-0.246806,-0.7360869999999999
1630497979842,-0.621712,-0.248331,-0.735965
1630497979851,-0.620614,-0.24942899999999998,-0.73749
1630497979861,-0.621285,-0.250954,-0.740479
1630497979871,-0.620858,-0.25193,-0.7397469999999999
1630497979880,-0.62098,-0.252479,-0.737856
1630497979890,-0.618784,-0.25254,-0.734318
1630497979899,-0.621224,-0.252357,-0.7357819999999999
1630497979909,-0.624091,-0.251564,-0.7415769999999999
1630497979919,-0.625982,-0.250832,-0.744383
1630497979928,-0.62525,-0.250649,-0.745298
1630497979938,-0.623237,-0.25254,-0.744932
1630497979947,-0.623115,-0.254004,-0.741394
1630497979957,-0.623298,-0.256261,-0.737795
1630497979967,-0.622322,-0.25760299999999997,-0.736331
1630497979976,-0.622322,-0.25668799999999997,-0.73871
1630497979986,-0.621651,-0.256322,-0.7409669999999999
1630497979995,-0.6211019999999999,-0.254736,-0.740479
1630497980005,-0.62098,-0.255285,-0.740113
1630497980015,-0.622078,-0.254065,-0.741028
1630497980024,-0.622627,-0.250954,-0.739991
1630497980034,-0.622505,-0.248148,-0.738161
1630497980043,-0.621285,-0.248575,-0.738405
1630497980053,-0.620675,-0.247111,-0.73688
1630497980063,-0.6207969999999999,-0.246562,-0.73444
1630497980072,-0.6204919999999999,-0.24570799999999998,-0.732793
1630497980082,-0.621712,-0.244854,-0.7327319999999999
1630497980091,-0.622078,-0.245952,-0.735294
1630497980101,-0.6222,-0.241865,-0.734928
1630497980111,-0.624152,-0.240218,-0.734623
1630497980120,-0.625799,-0.23985199999999998,-0.73444
1630497980130,-0.625494,-0.238205,-0.732183
1630497980139,-0.62586,-0.236009,-0.732
1630497980149,-0.627263,-0.234484,-0.7348669999999999
1630497980159,-0.630801,-0.232288,-0.73627
1630497980168,-0.632997,-0.22997,-0.7351719999999999
1630497980178,-0.63501,-0.227774,-0.7345619999999999
1630497980187,-0.636657,-0.227591,-0.735111
1630497980197,-0.635803,-0.227591,-0.7336469999999999
1630497980207,-0.63623,-0.22691999999999998,-0.734013
1630497980216,-0.63623,-0.225639,-0.733098
1630497980226,-0.637755,-0.223138,-0.732793
1630497980235,-0.639402,-0.22143,-0.731268
1630497980245,-0.640195,-0.217648,-0.730658
1630497980255,-0.642452,-0.215269,-0.73078
1630497980264,-0.644892,-0.21289,-0.732549
1630497980274,-0.646173,-0.210145,-0.73322
1630497980283,-0.646356,-0.207583,-0.731085
1630497980293,-0.647088,-0.205936,-0.72956
1630497980303,-0.647271,-0.202398,-0.7278519999999999
1630497980312,-0.647454,-0.202215,-0.728096
1630497980322,-0.648674,-0.200324,-0.7275469999999999
1630497980331,-0.648674,-0.198799,-0.726876
1630497980341,-0.649284,-0.196969,-0.726632
1630497980351,-0.650687,-0.19641999999999998,-0.727181
1630497980360,-0.650809,-0.196908,-0.7275469999999999
1630497980370,-0.650687,-0.196298,-0.727425
1630497980379,-0.652212,-0.19489499999999998,-0.727364
1630497980389,-0.652273,-0.193248,-0.7272419999999999
1630497980399,-0.652639,-0.191113,-0.726205
1630497980408,-0.653432,-0.189771,-0.724009
1630497980418,-0.654896,-0.18971,-0.723155
1630497980427,-0.654957,-0.18842899999999999,-0.722057
1630497980437,-0.654103,-0.18781899999999999,-0.72102
1630497980447,-0.653798,-0.186294,-0.718031
1630497980456,-0.654835,-0.186538,-0.714737
1630497980466,-0.656177,-0.183915,-0.716262
1630497980475,-0.658251,-0.180377,-0.716201
1630497980485,-0.6594099999999999,-0.177388,-0.720166
1630497980495,-0.6591049999999999,-0.173545,-0.723887
1630497980504,-0.660142,-0.17202,-0.724863
1630497980514,-0.662338,-0.172142,-0.724375
1630497980523,-0.6636799999999999,-0.173789,-0.723887
1630497980533,-0.665022,-0.174338,-0.72224
1630497980543,-0.664534,-0.174948,-0.722545
1630497980552,-0.661728,-0.175131,-0.720776
1630497980562,-0.661789,-0.176961,-0.71858
1630497980571,-0.660508,-0.177998,-0.719007
1630497980581,-0.662399,-0.180743,-0.718214
1630497980591,-0.663009,-0.180438,-0.718702
1630497980600,-0.665083,-0.180865,-0.719556
1630497980610,-0.665632,-0.180316,-0.72163
1630497980619,-0.6642899999999999,-0.179645,-0.724314
1630497980629,-0.664534,-0.179401,-0.726388
1630497980639,-0.664168,-0.179096,-0.726998
1630497980648,-0.663741,-0.17751,-0.724436
1630497980658,-0.663192,-0.17751,-0.723399
1630497980667,-0.6627649999999999,-0.175314,-0.721386
1630497980677,-0.662033,-0.175009,-0.719373
1630497980687,-0.6612399999999999,-0.174338,-0.7154079999999999
1630497980696,-0.661057,-0.17360599999999998,-0.712419
1630497980706,-0.661362,-0.173972,-0.70943
1630497980715,-0.662582,-0.17141,-0.7093079999999999
1630497980725,-0.6636799999999999,-0.169519,-0.7093079999999999
1630497980735,-0.6642899999999999,-0.165676,-0.711687
1630497980744,-0.663924,-0.16439499999999999,-0.711016
1630497980754,-0.665632,-0.161528,-0.711321
1630497980763,-0.667584,-0.158112,-0.71248
1630497980773,-0.670268,-0.154147,-0.716079
1630497980783,-0.670146,-0.15268299999999999,-0.7178479999999999
1630497980792,-0.6694749999999999,-0.152744,-0.71492
1630497980802,-0.668072,-0.155245,-0.713822
1630497980811,-0.670329,-0.160308,-0.716384
1630497980821,-0.669353,-0.165554,-0.720776
1630497980831,-0.665083,-0.169519,-0.718641
1630497980840,-0.664168,-0.172752,-0.712785
1630497980850,-0.663741,-0.173728,-0.712236
1630497980859,-0.6642899999999999,-0.174521,-0.7138829999999999
1630497980869,-0.664107,-0.17385,-0.713212
1630497980879,-0.665449,-0.17507,-0.715774
1630497980888,-0.665632,-0.17751,-0.7187629999999999
1630497980898,-0.664778,-0.181231,-0.719373
1630497980907,-0.6630699999999999,-0.18318299999999998,-0.719434
1630497980917,-0.661972,-0.184952,-0.719861
1630497980927,-0.660447,-0.184464,-0.7181529999999999
1630497980936,-0.6591049999999999,-0.181109,-0.7172379999999999
1630497980946,-0.659166,-0.179279,-0.71431
1630497980955,-0.660386,-0.176839,-0.7138829999999999
1630497980965,-0.658556,-0.17360599999999998,-0.71187
1630497980975,-0.658312,-0.171105,-0.709674
1630497980984,-0.658678,-0.168116,-0.708027
1630497980994,-0.658861,-0.165066,-0.707661
1630497981003,-0.662094,-0.165981,-0.708149
1630497981013,-0.6639849999999999,-0.162626,-0.7056479999999999
1630497981023,-0.666547,-0.159881,-0.703086
1630497981032,-0.6697799999999999,-0.161162,-0.706746
1630497981042,-0.672403,-0.160186,-0.706136
1630497981051,-0.677832,-0.157502,-0.708881
1630497981061,-0.68198,-0.156953,-0.713944
1630497981071,-0.684603,-0.157502,-0.715896
1630497981080,-0.685762,-0.156648,-0.7123579999999999
1630497981090,-0.689117,-0.155062,-0.709674
1630497981099,-0.69113,-0.15433,-0.710711
1630497981109,-0.6922889999999999,-0.151951,-0.70821
1630497981119,-0.692472,-0.151585,-0.708454
1630497981128,-0.693753,-0.15189,-0.710467
1630497981138,-0.694363,-0.15268299999999999,-0.714859
1630497981147,-0.6944239999999999,-0.15128,-0.71736
1630497981157,-0.697535,-0.152561,-0.71736
1630497981167,-0.696986,-0.15372,-0.718397
1630497981176,-0.695522,-0.153537,-0.717604
1630497981186,-0.695705,-0.152622,-0.715469
1630497981195,-0.696071,-0.151463,-0.715347
1630497981205,-0.697047,-0.149206,-0.716079
1630497981215,-0.698694,-0.144326,-0.71614
1630497981224,-0.701439,-0.137311,-0.716384
1630497981234,-0.703696,-0.131089,-0.7166279999999999
1630497981243,-0.701317,-0.12456199999999999,-0.715835
1630497981253,-0.69967,-0.120292,-0.713212
1630497981263,-0.700036,-0.115656,-0.7105279999999999
1630497981272,-0.698145,-0.112606,-0.708332
1630497981282,-0.698084,-0.110776,-0.707051
1630497981291,-0.696437,-0.107848,-0.7083929999999999
1630497981301,-0.693021,-0.108031,-0.707234
1630497981311,-0.6907639999999999,-0.109983,-0.704001
1630497981320,-0.691435,-0.112728,-0.706136
1630497981330,-0.68747,-0.114924,-0.707295
1630497981339,-0.68503,-0.112972,-0.70577
1630497981349,-0.682346,-0.110471,-0.707356
1630497981359,-0.683505,-0.11114199999999999,-0.709735
1630497981368,-0.683627,-0.110349,-0.7120529999999999
1630497981378,-0.684908,-0.108702,-0.71431
1630497981387,-0.690825,-0.110593,-0.7181529999999999
1630497981397,-0.693997,-0.110654,-0.720959
1630497981407,-0.69662,-0.11284999999999999,-0.72041
1630497981416,-0.696498,-0.113216,-0.716201
1630497981426,-0.696376,-0.114192,-0.7114429999999999
1630497981435,-0.695339,-0.117974,-0.70577
1630497981445,-0.6928989999999999,-0.121817,-0.704977
1630497981455,-0.693265,-0.12505,-0.702903
1630497981464,-0.692228,-0.125355,-0.704062
1630497981474,-0.692045,-0.125599,-0.705465
1630497981483,-0.690581,-0.121756,-0.705526
1630497981493,-0.6904589999999999,-0.120597,-0.706014
1630497981503,-0.690703,-0.117974,-0.705709
1630497981512,-0.691008,-0.116327,-0.7074779999999999
1630497981522,-0.6904589999999999,-0.115717,-0.7071729999999999
1630497981531,-0.691801,-0.111691,-0.70455
1630497981541,-0.693021,-0.107543,-0.708332
1630497981551,-0.694546,-0.10315099999999999,-0.709674
1630497981560,-0.695827,-0.098942,-0.7093079999999999
1630497981570,-0.695644,-0.098027,-0.7099179999999999
1630497981579,-0.69418,-0.096441,-0.7077829999999999
1630497981589,-0.691618,-0.09143899999999999,-0.703635
1630497981599,-0.689361,-0.089975,-0.697108
1630497981608,-0.689483,-0.086986,-0.69601
1630497981618,-0.6895439999999999,-0.085766,-0.695156
1630497981627,-0.690642,-0.085156,-0.695522
1630497981637,-0.693936,-0.083509,-0.698572
1630497981647,-0.698511,-0.08204499999999999,-0.70394
1630497981656,-0.698511,-0.08174,-0.7083929999999999
1630497981666,-0.696925,-0.081374,-0.707356
1630497981675,-0.693448,-0.081984,-0.705831
1630497981685,-0.691923,-0.081313,-0.704977
1630497981695,-0.690032,-0.081435,-0.705221
1630497981704,-0.6901539999999999,-0.082716,-0.7056479999999999
1630497981714,-0.6893,-0.085766,-0.70394
1630497981723,-0.6892389999999999,-0.089182,-0.701134
1630497981733,-0.688568,-0.094306,-0.698389
1630497981743,-0.688873,-0.098332,-0.695766
1630497981752,-0.6892389999999999,-0.10174799999999999,-0.695583
1630497981762,-0.6893,-0.105408,-0.695949
1630497981771,-0.69113,-0.108885,-0.697352
1630497981781,-0.692472,-0.110166,-0.698938
1630497981791,-0.695278,-0.111264,-0.7032079999999999
1630497981800,-0.697047,-0.113216,-0.704855
1630497981810,-0.697413,-0.113887,-0.705465
1630497981819,-0.697535,-0.11284999999999999,-0.704001
1630497981829,-0.698877,-0.11102,-0.706014
1630497981839,-0.701561,-0.110471,-0.704672
1630497981848,-0.701012,-0.108763,-0.70211
1630497981858,-0.700951,-0.10638399999999999,-0.702049
1630497981867,-0.70211,-0.103883,-0.700524
1630497981877,-0.702232,-0.102114,-0.697291
1630497981887,-0.703757,-0.100406,-0.693997
1630497981896,-0.7041229999999999,-0.100345,-0.689422
1630497981906,-0.7053429999999999,-0.100162,-0.687226
1630497981915,-0.706136,-0.10144299999999999,-0.68625
1630497981925,-0.7065629999999999,-0.10309,-0.6849689999999999
1630497981935,-0.706014,-0.105408,-0.684786
1630497981944,-0.707539,-0.10797,-0.688446
1630497981954,-0.7099179999999999,-0.109373,-0.693875
1630497981963,-0.71187,-0.11041,-0.695949
1630497981973,-0.7126629999999999,-0.111386,-0.696681
1630497981983,-0.7135779999999999,-0.111508,-0.696498
1630497981992,-0.7137,-0.11406999999999999,-0.696864
1630497982002,-0.7126629999999999,-0.113826,-0.694912
1630497982011,-0.7117479999999999,-0.1159,-0.692411
1630497982021,-0.7096129999999999,-0.117974,-0.69052
1630497982031,-0.709491,-0.116449,-0.691862
1630497982040,-0.709247,-0.11638799999999999,-0.691313
1630497982050,-0.708759,-0.116632,-0.6928989999999999
1630497982059,-0.7074779999999999,-0.115229,-0.691923
1630497982069,-0.707295,-0.112423,-0.693143
1630497982079,-0.7076,-0.109678,-0.694912
1630497982088,-0.70577,-0.109251,-0.694729
1630497982098,-0.70516,-0.10797,-0.69357
1630497982107,-0.703757,-0.106445,-0.693692
1630497982117,-0.702537,-0.104798,-0.692472
1630497982127,-0.701195,-0.104188,-0.69113
1630497982136,-0.701927,-0.103029,-0.689422
1630497982146,-0.702232,-0.10205299999999999,-0.69052
1630497982155,-0.701012,-0.102114,-0.691557
1630497982165,-0.701012,-0.101931,-0.6919839999999999
1630497982175,-0.70089,-0.102358,-0.691557
1630497982184,-0.699914,-0.101565,-0.690032
1630497982194,-0.701805,-0.10113799999999999,-0.690886
1630497982203,-0.705526,-0.100345,-0.6944239999999999
1630497982213,-0.7059529999999999,-0.099491,-0.699548
1630497982223,-0.706441,-0.100772,-0.704367
1630497982232,-0.70638,-0.103944,-0.703086
1630497982242,-0.707234,-0.107238,-0.701317
1630497982251,-0.70577,-0.108763,-0.69967
1630497982261,-0.706014,-0.110166,-0.698511
1630497982271,-0.704367,-0.11053199999999999,-0.697596
1630497982280,-0.702964,-0.109983,-0.696498
1630497982290,-0.703269,-0.110593,-0.697718
1630497982299,-0.701927,-0.11022699999999999,-0.697962
1630497982309,-0.700951,-0.111569,-0.698206
1630497982319,-0.700036,-0.11223999999999999,-0.69784
1630497982328,-0.698938,-0.113338,-0.697291
1630497982338,-0.698816,-0.114375,-0.699365
1630497982347,-0.698145,-0.114192,-0.699487
1630497982357,-0.697596,-0.11516799999999999,-0.69906
1630497982367,-0.698511,-0.115595,-0.699548
1630497982376,-0.698572,-0.114924,-0.698938
1630497982386,-0.699304,-0.114375,-0.698084
1630497982395,-0.699304,-0.11468,-0.698633
1630497982405,-0.698145,-0.114802,-0.699609
1630497982415,-0.695827,-0.116266,-0.69723
1630497982424,-0.695888,-0.116937,-0.697108
1630497982434,-0.696498,-0.117852,-0.695644
1630497982443,-0.696315,-0.115412,-0.696193
1630497982453,-0.697108,-0.11315499999999999,-0.69906
1630497982463,-0.69723,-0.113277,-0.69967
1630497982472,-0.698816,-0.111752,-0.699365
1630497982482,-0.698267,-0.11114199999999999,-0.697108
1630497982491,-0.699853,-0.110044,-0.696193
1630497982501,-0.699914,-0.11041,-0.696986
1630497982511,-0.700036,-0.111203,-0.698145
1630497982520,-0.700036,-0.11284999999999999,-0.699121
1630497982530,-0.699975,-0.113948,-0.700158
1630497982539,-0.700341,-0.114314,-0.700341
1630497982549,-0.700646,-0.115717,-0.699792
1630497982559,-0.700158,-0.11712,-0.699975
1630497982568,-0.699731,-0.116937,-0.701134
1630497982578,-0.700646,-0.116937,-0.7032079999999999
1630497982587,-0.700524,-0.116266,-0.703574
1630497982597,-0.700036,-0.118157,-0.703635
1630497982607,-0.700524,-0.117486,-0.704306
1630497982616,-0.701683,-0.116632,-0.704306
1630497982626,-0.701073,-0.11712,-0.706197
1630497982635,-0.701378,-0.11651,-0.707417
1630497982645,-0.698633,-0.115595,-0.7076
1630497982655,-0.696925,-0.115717,-0.705526
1630497982664,-0.694546,-0.116266,-0.705526
1630497982674,-0.693326,-0.116632,-0.704367
1630497982683,-0.690642,-0.11834,-0.704245
1630497982693,-0.687836,-0.120292,-0.7044279999999999
1630497982703,-0.6867989999999999,-0.120292,-0.7035129999999999
1630497982712,-0.684298,-0.120658,-0.701683
1630497982722,-0.68381,-0.120353,-0.701317
1630497982731,-0.683505,-0.12023099999999999,-0.7032079999999999
1630497982741,-0.6822239999999999,-0.120841,-0.704794
1630497982751,-0.68198,-0.122,-0.706929
1630497982760,-0.682102,-0.122,-0.706136
1630497982770,-0.680516,-0.123098,-0.703452
1630497982779,-0.68137,-0.123769,-0.703391
1630497982789,-0.683688,-0.12383,-0.70821
1630497982799,-0.686555,-0.122976,-0.711992
1630497982808,-0.686921,-0.12322,-0.715957
1630497982818,-0.686738,-0.125233,-0.716506
1630497982827,-0.686555,-0.128222,-0.7147979999999999
1630497982837,-0.687531,-0.129137,-0.711016
1630497982847,-0.686128,-0.130662,-0.708454
1630497982856,-0.686006,-0.12986899999999998,-0.7086979999999999
1630497982866,-0.6880189999999999,-0.129442,-0.7099179999999999
1630497982875,-0.687226,-0.12956399999999998,-0.71187
1630497982885,-0.686677,-0.129442,-0.713334
1630497982895,-0.686982,-0.129381,-0.714127
1630497982904,-0.686555,-0.12932,-0.7138829999999999
1630497982914,-0.686128,-0.130601,-0.712175
1630497982923,-0.6858839999999999,-0.131882,-0.710406
1630497982933,-0.6858839999999999,-0.131333,-0.709735
1630497982943,-0.685518,-0.131089,-0.709857
1630497982952,-0.68564,-0.130418,-0.71065
1630497982962,-0.68564,-0.131211,-0.710101
1630497982971,-0.686738,-0.130235,-0.709674
1630497982981,-0.6864939999999999,-0.130662,-0.70882
1630497982991,-0.686311,-0.130235,-0.709674
1630497983000,-0.683261,-0.1281,-0.707356
1630497983010,-0.685091,-0.129198,-0.706136
1630497983019,-0.686738,-0.127612,-0.707112
1630497983029,-0.688263,-0.128832,-0.7076
1630497983039,-0.6877139999999999,-0.12834399999999999,-0.710894
1630497983048,-0.686433,-0.127063,-0.71309
1630497983058,-0.688202,-0.127002,-0.712724
1630497983067,-0.6877139999999999,-0.127246,-0.71248
1630497983077,-0.687653,-0.128039,-0.7108329999999999
1630497983087,-0.687043,-0.128283,-0.709186
1630497983096,-0.687226,-0.12895399999999999,-0.709064
1630497983106,-0.686128,-0.130723,-0.710345
1630497983115,-0.6843589999999999,-0.132248,-0.710894
1630497983125,-0.682956,-0.132309,-0.710162
1630497983135,-0.682407,-0.132431,-0.710284
1630497983144,-0.681736,-0.132126,-0.709979
1630497983154,-0.6822239999999999,-0.132248,-0.708942
1630497983163,-0.6828339999999999,-0.131028,-0.707539
1630497983173,-0.6837489999999999,-0.129747,-0.70821
1630497983183,-0.68442,-0.130296,-0.708515
1630497983192,-0.6846639999999999,-0.132187,-0.709674
1630497983202,-0.684176,-0.133834,-0.710711
1630497983211,-0.684115,-0.134322,-0.709979
1630497983221,-0.684115,-0.135664,-0.710955
1630497983231,-0.683993,-0.135664,-0.711382
1630497983240,-0.684847,-0.135237,-0.711199
1630497983250,-0.684298,-0.135847,-0.71187
1630497983259,-0.6846639999999999,-0.134627,-0.7120529999999999
1630497983269,-0.685457,-0.134139,-0.711504
1630497983279,-0.684908,-0.133956,-0.709674
1630497983288,-0.685457,-0.133468,-0.709552
1630497983298,-0.685335,-0.133224,-0.709247
1630497983307,-0.68503,-0.135054,-0.708637
1630497983317,-0.682651,-0.13541999999999998,-0.708332
1630497983327,-0.682651,-0.134932,-0.7076
1630497983336,-0.683261,-0.134932,-0.709247
1630497983346,-0.6832,-0.13725,-0.709979
1630497983355,-0.682407,-0.138653,-0.7108329999999999
1630497983365,-0.682163,-0.138226,-0.7105279999999999
1630497983375,-0.681736,-0.137799,-0.7090029999999999
1630497983384,-0.683078,-0.136152,-0.707661
1630497983394,-0.6852739999999999,-0.133041,-0.706319
1630497983403,-0.686616,-0.131638,-0.707905
1630497983413,-0.6864939999999999,-0.131333,-0.712297
1630497983423,-0.687043,-0.133346,-0.71492
1630497983432,-0.6864939999999999,-0.135969,-0.713456
1630497983442,-0.685457,-0.139324,-0.711321
1630497983451,-0.685152,-0.13908,-0.7102229999999999
1630497983461,-0.684298,-0.140178,-0.71065
1630497983471,-0.6828339999999999,-0.141154,-0.710284
1630497983480,-0.682163,-0.140605,-0.710101
1630497983490,-0.68198,-0.139629,-0.710162
1630497983499,-0.682102,-0.138165,-0.710162
1630497983509,-0.681492,-0.137311,-0.7093079999999999
1630497983519,-0.682041,-0.136518,-0.708576
1630497983528,-0.682407,-0.137189,-0.7099179999999999
1630497983538,-0.682773,-0.138165,-0.7093079999999999
1630497983547,-0.6831389999999999,-0.140117,-0.711077
1630497983557,-0.68259,-0.141764,-0.710772
1630497983567,-0.682041,-0.14274,-0.710955
1630497983576,-0.682468,-0.142557,-0.710406
1630497983586,-0.6828339999999999,-0.143289,-0.7111379999999999
1630497983595,-0.682956,-0.143228,-0.710955
1630497983605,-0.6816139999999999,-0.142374,-0.710711
1630497983615,-0.680638,-0.141764,-0.708515
1630497983624,-0.68198,-0.141093,-0.7093079999999999
1630497983634,-0.6834439999999999,-0.14066599999999999,-0.708515
1630497983643,-0.68503,-0.140239,-0.7077829999999999
1630497983653,-0.68503,-0.139568,-0.7099179999999999
1630497983663,-0.685518,-0.139324,-0.709491
1630497983672,-0.684786,-0.139812,-0.709186
1630497983682,-0.6831389999999999,-0.1403,-0.709796
1630497983691,-0.684115,-0.139141,-0.708942
1630497983701,-0.68442,-0.138592,-0.710101
1630497983711,-0.683932,-0.139202,-0.707539
1630497983720,-0.684481,-0.137921,-0.7068679999999999
1630497983730,-0.685152,-0.137494,-0.705465
1630497983739,-0.685091,-0.13847,-0.70516
1630497983749,-0.6855789999999999,-0.139385,-0.7062579999999999
1630497983759,-0.684908,-0.138714,-0.707661
1630497983768,-0.685701,-0.14005599999999999,-0.708027
1630497983778,-0.686128,-0.140727,-0.709552
1630497983787,-0.6861889999999999,-0.140727,-0.709857
1630497983797,-0.686067,-0.140544,-0.7099179999999999
1630497983807,-0.686006,-0.140727,-0.7090029999999999
1630497983816,-0.686433,-0.139629,-0.708149
1630497983826,-0.685152,-0.138653,-0.706746
1630497983835,-0.6855789999999999,-0.137982,-0.706197
1630497983845,-0.686006,-0.137494,-0.704916
1630497983855,-0.68747,-0.136701,-0.706319
1630497983864,-0.686616,-0.136396,-0.707051
1630497983874,-0.687226,-0.136396,-0.707539
1630497983883,-0.68625,-0.137006,-0.707661
1630497983893,-0.686311,-0.13694499999999998,-0.7083929999999999
1630497983903,-0.685823,-0.136152,-0.707295
1630497983912,-0.686738,-0.13694499999999998,-0.707722
1630497983922,-0.686006,-0.137555,-0.7074779999999999
1630497983931,-0.686372,-0.137189,-0.707295
1630497983941,-0.68503,-0.136518,-0.706502
1630497983951,-0.685213,-0.135603,-0.7044279999999999
1630497983960,-0.686311,-0.13572499999999998,-0.70516
1630497983970,-0.686921,-0.136091,-0.706197
1630497983979,-0.687653,-0.137372,-0.705892
1630497983989,-0.6871039999999999,-0.137799,-0.705892
1630497983999,-0.685701,-0.137555,-0.706502
1630497984008,-0.6855789999999999,-0.138043,-0.704916
1630497984018,-0.68686,-0.137128,-0.705404
1630497984027,-0.687775,-0.136396,-0.705709
1630497984037,-0.688202,-0.135542,-0.709186
1630497984047,-0.6883239999999999,-0.135969,-0.711992
1630497984056,-0.6889339999999999,-0.138714,-0.711382
1630497984066,-0.68869,-0.139995,-0.706624
1630497984075,-0.689727,-0.139324,-0.70455
1630497984085,-0.689056,-0.138165,-0.705465
1630497984095,-0.688812,-0.13663999999999998,-0.704916
1630497984104,-0.6874089999999999,-0.137311,-0.705465
1630497984114,-0.687226,-0.13694499999999998,-0.707234
1630497984123,-0.6871039999999999,-0.138226,-0.71004
1630497984133,-0.686372,-0.139568,-0.708759
1630497984143,-0.686677,-0.141398,-0.708759
1630497984152,-0.6864939999999999,-0.142435,-0.707112
1630497984162,-0.686006,-0.141642,-0.706685
1630497984171,-0.68503,-0.14213,-0.70638
1630497984181,-0.684847,-0.141154,-0.7076
1630497984191,-0.684847,-0.140178,-0.706075
1630497984200,-0.686128,-0.139751,-0.705465
1630497984210,-0.685518,-0.138531,-0.707356
1630497984219,-0.6852739999999999,-0.139324,-0.7083929999999999
1630497984229,-0.68381,-0.140727,-0.7093079999999999
1630497984239,-0.68259,-0.142008,-0.708271
1630497984248,-0.683383,-0.140605,-0.708271
1630497984258,-0.683383,-0.1403,-0.707905
1630497984267,-0.6834439999999999,-0.138104,-0.707112
1630497984277,-0.683627,-0.135969,-0.708637
1630497984287,-0.683322,-0.136152,-0.7080879999999999
1630497984296,-0.683322,-0.136274,-0.708027
1630497984306,-0.6831389999999999,-0.137189,-0.70699
1630497984315,-0.683505,-0.136762,-0.707356
1630497984325,-0.6837489999999999,-0.137921,-0.7074779999999999
1630497984335,-0.6840539999999999,-0.139263,-0.707905
1630497984344,-0.684298,-0.139995,-0.707966
1630497984354,-0.683871,-0.139934,-0.707722
1630497984363,-0.6849689999999999,-0.140544,-0.7086979999999999
1630497984373,-0.685213,-0.138653,-0.7093079999999999
1630497984383,-0.685762,-0.138409,-0.708881
1630497984392,-0.685457,-0.138409,-0.70882
1630497984402,-0.686006,-0.139324,-0.7108329999999999
1630497984411,-0.686738,-0.139019,-0.711077
1630497984421,-0.686311,-0.14036099999999999,-0.7117479999999999
1630497984431,-0.685396,-0.140483,-0.711199
1630497984440,-0.683993,-0.141154,-0.710589
1630497984450,-0.683932,-0.141032,-0.709125
1630497984459,-0.683932,-0.141093,-0.708332
1630497984469,-0.684298,-0.141398,-0.708271
1630497984479,-0.684725,-0.140849,-0.70943
1630497984488,-0.684115,-0.140117,-0.709491
1630497984498,-0.684176,-0.139324,-0.710162
1630497984507,-0.683627,-0.136823,-0.709979
1630497984517,-0.683505,-0.13572499999999998,-0.709552
1630497984527,-0.683505,-0.13602999999999998,-0.708637
1630497984536,-0.683993,-0.136823,-0.707051
1630497984546,-0.683322,-0.137311,-0.7076
1630497984555,-0.6831389999999999,-0.138043,-0.706685
1630497984565,-0.6832,-0.13786,-0.708271
1630497984575,-0.6825289999999999,-0.13786,-0.7090029999999999
1630497984584,-0.682773,-0.137677,-0.70821
1630497984594,-0.681858,-0.136457,-0.707722
1630497984603,-0.681492,-0.136457,-0.7071729999999999
1630497984613,-0.681797,-0.136884,-0.705404
1630497984623,-0.684481,-0.13663999999999998,-0.706502
1630497984632,-0.685152,-0.137616,-0.707722
1630497984642,-0.685335,-0.139446,-0.708515
1630497984651,-0.684298,-0.14005599999999999,-0.708881
1630497984661,-0.682956,-0.139446,-0.705709
1630497984671,-0.683505,-0.14158099999999998,-0.704245
1630497984680,-0.68686,-0.139873,-0.706746
1630497984690,-0.6883239999999999,-0.138714,-0.709064
1630497984699,-0.6886289999999999,-0.137738,-0.713822
1630497984709,-0.688141,-0.138714,-0.7166279999999999
1630497984719,-0.689117,-0.140727,-0.714127
1630497984728,-0.6880189999999999,-0.14213,-0.709186
1630497984738,-0.686372,-0.14310599999999998,-0.705831
1630497984747,-0.685762,-0.143167,-0.7047329999999999
1630497984757,-0.686067,-0.142374,-0.70638
1630497984767,-0.6852739999999999,-0.143228,-0.707966
1630497984776,-0.683505,-0.143228,-0.710101
1630497984786,-0.6825289999999999,-0.14274,-0.710101
1630497984795,-0.681553,-0.143838,-0.7090029999999999
1630497984805,-0.682956,-0.143411,-0.707356
1630497984815,-0.6825289999999999,-0.143716,-0.707539
1630497984824,-0.682895,-0.145058,-0.707661
1630497984834,-0.6832,-0.145424,-0.707417
1630497984843,-0.68381,-0.145851,-0.707417
1630497984853,-0.683078,-0.146278,-0.709735
1630497984863,-0.684176,-0.14579,-0.709979
1630497984872,-0.68442,-0.146888,-0.711321
1630497984882,-0.683627,-0.14682699999999999,-0.711687
1630497984891,-0.6822239999999999,-0.146766,-0.70882
1630497984901,-0.682895,-0.14621699999999999,-0.7074779999999999
1630497984911,-0.683932,-0.145424,-0.705282
1630497984920,-0.683932,-0.144387,-0.705099
1630497984930,-0.684603,-0.14396,-0.70882
1630497984939,-0.684481,-0.143716,-0.709979
1630497984949,-0.6832,-0.144021,-0.709552
1630497984959,-0.683932,-0.144997,-0.709186
1630497984968,-0.683505,-0.144936,-0.708271
1630497984978,-0.684298,-0.14621699999999999,-0.7090029999999999
1630497984987,-0.6834439999999999,-0.146949,-0.7071729999999999
1630497984997,-0.6822239999999999,-0.147986,-0.707722
1630497985007,-0.681797,-0.14804699999999998,-0.7080879999999999
1630497985016,-0.681248,-0.148413,-0.706807
1630497985026,-0.6825289999999999,-0.149084,-0.7080879999999999
1630497985035,-0.683078,-0.149389,-0.708881
1630497985045,-0.6828339999999999,-0.14884,-0.7093079999999999
1630497985055,-0.683383,-0.149084,-0.709491
1630497985064,-0.683322,-0.148413,-0.709735
1630497985074,-0.683566,-0.148535,-0.711199
1630497985083,-0.6834439999999999,-0.148718,-0.710772
1630497985093,-0.683871,-0.14804699999999998,-0.710467
1630497985103,-0.684298,-0.148718,-0.7102229999999999
1630497985112,-0.684176,-0.14823,-0.7099179999999999
1630497985122,-0.683993,-0.147315,-0.708576
1630497985131,-0.683566,-0.146583,-0.708271
1630497985141,-0.683078,-0.145363,-0.708881
1630497985151,-0.683078,-0.145119,-0.70882
1630497985160,-0.682773,-0.144509,-0.709491
1630497985170,-0.682102,-0.143533,-0.7083929999999999
1630497985179,-0.682041,-0.144753,-0.709186
1630497985189,-0.680272,-0.144509,-0.7080879999999999
1630497985199,-0.681797,-0.145973,-0.708332
1630497985208,-0.682163,-0.145119,-0.708881
1630497985218,-0.68076,-0.145485,-0.7096129999999999
1630497985227,-0.681492,-0.145607,-0.709247
1630497985237,-0.681065,-0.145607,-0.71004
1630497985247,-0.682346,-0.145485,-0.7093079999999999
1630497985256,-0.682041,-0.145607,-0.710589
1630497985266,-0.682407,-0.145363,-0.709979
1630497985275,-0.682956,-0.146278,-0.710772
1630497985285,-0.683383,-0.146461,-0.7129679999999999
1630497985295,-0.6819189999999999,-0.147498,-0.714432
1630497985304,-0.681858,-0.149633,-0.712724
1630497985314,-0.682773,-0.150121,-0.711077
1630497985323,-0.68137,-0.150426,-0.708515
1630497985333,-0.681797,-0.147925,-0.710467
1630497985343,-0.683688,-0.14652199999999999,-0.713212
1630497985352,-0.6849689999999999,-0.146156,-0.71675
1630497985362,-0.682895,-0.14457,-0.717726
1630497985371,-0.6813089999999999,-0.14579,-0.717055
1630497985381,-0.681431,-0.147803,-0.7111379999999999
1630497985391,-0.680821,-0.147315,-0.7068679999999999
1630497985400,-0.678686,-0.147986,-0.70638
1630497985410,-0.679845,-0.146705,-0.7062579999999999
1630497985419,-0.679723,-0.146888,-0.70699
1630497985429,-0.679418,-0.147071,-0.707844
1630497985439,-0.680028,-0.147071,-0.709186
1630497985448,-0.679723,-0.14762,-0.707844
1630497985458,-0.679845,-0.14865699999999998,-0.70882
1630497985467,-0.6794789999999999,-0.148596,-0.7083929999999999
1630497985477,-0.68076,-0.149206,-0.707234
1630497985487,-0.681858,-0.149328,-0.708454
1630497985496,-0.681248,-0.149511,-0.709064
1630497985506,-0.68198,-0.150487,-0.708332
1630497985515,-0.682102,-0.150304,-0.70821
1630497985525,-0.68259,-0.150304,-0.709369
1630497985535,-0.682407,-0.14884,-0.710162
1630497985544,-0.680455,-0.148718,-0.708271
1630497985554,-0.681492,-0.14804699999999998,-0.7059529999999999
1630497985563,-0.683627,-0.146644,-0.705282
1630497985573,-0.683627,-0.14701,-0.704977
1630497985583,-0.68442,-0.14518,-0.706929
1630497985592,-0.6837489999999999,-0.14579,-0.70943
1630497985602,-0.684298,-0.144814,-0.710284
1630497985611,-0.68503,-0.145546,-0.709796
1630497985621,-0.684542,-0.14713199999999999,-0.7102229999999999
1630497985631,-0.685396,-0.14713199999999999,-0.7099179999999999
1630497985640,-0.684786,-0.14682699999999999,-0.708576
1630497985650,-0.685213,-0.14701,-0.708515
1630497985659,-0.686433,-0.145668,-0.709674
1630497985669,-0.686128,-0.145424,-0.709674
1630497985679,-0.685518,-0.144936,-0.709552
1630497985688,-0.685091,-0.145119,-0.7105279999999999
1630497985698,-0.68564,-0.144936,-0.711016
1630497985707,-0.684725,-0.14579,-0.7102229999999999
1630497985717,-0.6840539999999999,-0.145485,-0.709369
1630497985727,-0.684298,-0.145241,-0.7083929999999999
1630497985736,-0.68381,-0.144204,-0.707905
1630497985746,-0.6834439999999999,-0.144814,-0.707661
1630497985755,-0.683932,-0.14518,-0.707356
1630497985765,-0.6843589999999999,-0.144326,-0.707295
1630497985775,-0.684237,-0.143899,-0.706502
1630497985784,-0.683627,-0.142984,-0.706929
1630497985794,-0.684542,-0.142984,-0.70638
1630497985803,-0.6855789999999999,-0.14249599999999998,-0.7062579999999999
1630497985813,-0.685335,-0.14188599999999998,-0.7053429999999999
1630497985823,-0.685335,-0.14213,-0.70516
1630497985832,-0.6861889999999999,-0.142313,-0.704001
1630497985842,-0.686555,-0.14127599999999998,-0.705099
1630497985851,-0.6852739999999999,-0.14158099999999998,-0.704367
1630497985861,-0.685213,-0.14249599999999998,-0.702842
1630497985871,-0.685701,-0.141215,-0.704184
1630497985880,-0.686067,-0.140239,-0.704794
1630497985890,-0.686372,-0.141703,-0.7038179999999999
1630497985899,-0.686677,-0.143045,-0.7032079999999999
1630497985909,-0.68625,-0.143289,-0.702964
1630497985919,-0.686616,-0.14274,-0.702171
1630497985928,-0.688141,-0.143045,-0.703147
1630497985938,-0.688812,-0.142984,-0.704184
1630497985947,-0.6883239999999999,-0.144875,-0.706075
1630497985957,-0.688873,-0.145973,-0.706197
1630497985967,-0.6877139999999999,-0.145668,-0.705221
1630497985976,-0.687592,-0.144997,-0.703696
1630497985986,-0.6880189999999999,-0.144448,-0.703757
1630497985995,-0.68991,-0.144021,-0.7044279999999999
1630497986005,-0.689971,-0.142984,-0.708149
1630497986015,-0.689361,-0.143716,-0.711626
1630497986024,-0.689788,-0.1464,-0.7108329999999999
1630497986034,-0.688812,-0.149633,-0.709064
1630497986043,-0.6874089999999999,-0.151829,-0.707356
1630497986053,-0.685945,-0.153232,-0.70699
1630497986063,-0.685152,-0.15298799999999999,-0.706929
1630497986072,-0.684847,-0.152805,-0.7071729999999999
1630497986082,-0.683322,-0.153659,-0.706685
1630497986091,-0.681675,-0.152744,-0.706685
1630497986101,-0.682773,-0.15189,-0.707295
1630497986111,-0.682773,-0.152561,-0.707234
1630497986120,-0.681553,-0.152195,-0.707112
1630497986130,-0.682346,-0.152744,-0.706746
1630497986139,-0.683322,-0.152439,-0.706136
1630497986149,-0.6828339999999999,-0.15298799999999999,-0.7056479999999999
1630497986159,-0.6832,-0.15207299999999999,-0.706014
1630497986168,-0.68259,-0.151585,-0.705404
1630497986178,-0.682407,-0.151524,-0.704916
1630497986187,-0.683078,-0.150792,-0.7047329999999999
1630497986197,-0.68076,-0.150365,-0.704916
1630497986207,-0.680333,-0.14926699999999998,-0.703452
1630497986216,-0.683505,-0.14804699999999998,-0.703757
1630497986226,-0.683993,-0.147803,-0.703147
1630497986235,-0.684237,-0.14652199999999999,-0.704977
1630497986245,-0.68381,-0.1464,-0.706014
1630497986255,-0.6852739999999999,-0.146095,-0.706807
1630497986264,-0.685457,-0.147071,-0.705892
1630497986274,-0.685701,-0.148169,-0.704855
1630497986283,-0.685396,-0.14896199999999998,-0.70577
1630497986293,-0.6861889999999999,-0.149694,-0.706136
1630497986303,-0.685213,-0.151036,-0.706136
1630497986312,-0.685396,-0.151524,-0.7068679999999999
1630497986322,-0.6852739999999999,-0.151829,-0.7077829999999999
1630497986331,-0.6846639999999999,-0.151585,-0.708576
1630497986341,-0.685152,-0.153415,-0.708454
1630497986351,-0.684908,-0.153232,-0.709186
1630497986360,-0.684725,-0.15359799999999998,-0.707966
1630497986370,-0.685396,-0.154391,-0.708637
1630497986379,-0.6852739999999999,-0.154879,-0.7093079999999999
1630497986389,-0.6852739999999999,-0.15481799999999998,-0.709125
1630497986399,-0.685152,-0.155306,-0.708271
1630497986408,-0.685152,-0.155184,-0.708454
1630497986418,-0.685213,-0.154452,-0.707417
1630497986427,-0.684786,-0.153537,-0.707356
1630497986437,-0.6846639999999999,-0.154391,-0.707112
1630497986447,-0.6840539999999999,-0.153049,-0.7062579999999999
1630497986456,-0.685396,-0.152805,-0.7062579999999999
1630497986466,-0.684786,-0.152134,-0.705404
1630497986475,-0.6852739999999999,-0.151097,-0.705465
1630497986485,-0.685335,-0.151158,-0.705465
1630497986495,-0.68564,-0.151524,-0.704794
1630497986504,-0.685823,-0.150914,-0.704062
1630497986514,-0.685213,-0.150853,-0.7050379999999999
1630497986523,-0.6852739999999999,-0.15006,-0.705404
1630497986533,-0.68503,-0.150731,-0.703086
1630497986543,-0.684542,-0.150487,-0.702537
1630497986552,-0.685396,-0.150304,-0.701927
1630497986562,-0.685152,-0.150243,-0.701927
1630497986571,-0.686372,-0.15006,-0.7035129999999999
1630497986581,-0.68686,-0.151097,-0.703635
1630497986591,-0.68747,-0.152561,-0.703879
1630497986600,-0.686982,-0.152317,-0.7038179999999999
1630497986610,-0.6852739999999999,-0.152805,-0.702903
1630497986619,-0.686067,-0.151768,-0.701805
1630497986629,-0.686921,-0.152439,-0.702537
1630497986639,-0.6880189999999999,-0.151768,-0.703635
1630497986648,-0.6883239999999999,-0.151585,-0.707966
1630497986658,-0.687775,-0.1525,-0.711321
1630497986667,-0.687836,-0.15390299999999998,-0.709125
1630497986677,-0.687043,-0.15555,-0.705709
1630497986687,-0.686921,-0.156099,-0.703269
1630497986696,-0.6864939999999999,-0.15677,-0.702781
1630497986706,-0.686555,-0.156038,-0.702537
1630497986715,-0.685396,-0.156892,-0.70333
1630497986725,-0.685396,-0.157502,-0.703696
1630497986735,-0.6849689999999999,-0.156831,-0.7062579999999999
1630497986744,-0.685823,-0.157136,-0.70699
1630497986754,-0.685091,-0.157624,-0.706136
1630497986763,-0.684786,-0.15738,-0.705709
1630497986773,-0.68625,-0.157258,-0.7047329999999999
1630497986783,-0.685823,-0.156526,-0.7038179999999999
1630497986792,-0.686311,-0.156709,-0.703757
1630497986802,-0.685823,-0.156465,-0.703696
1630497986811,-0.686982,-0.15494,-0.703696
1630497986821,-0.68747,-0.155306,-0.7050379999999999
1630497986831,-0.6880189999999999,-0.15451299999999998,-0.705892
1630497986840,-0.6858839999999999,-0.153171,-0.7044279999999999
1630497986850,-0.6871039999999999,-0.15237799999999999,-0.702354
1630497986859,-0.687287,-0.150853,-0.703025
1630497986869,-0.6886289999999999,-0.151036,-0.701012
1630497986879,-0.687897,-0.148474,-0.702049
1630497986888,-0.687531,-0.146949,-0.703086
1630497986898,-0.687897,-0.146583,-0.703391
1630497986907,-0.688568,-0.146888,-0.70272
1630497986917,-0.687836,-0.146888,-0.70333
1630497986927,-0.688263,-0.14804699999999998,-0.7032079999999999
1630497986936,-0.688507,-0.148474,-0.702293
1630497986946,-0.68747,-0.149023,-0.702232
1630497986955,-0.687897,-0.150182,-0.702842
1630497986965,-0.687226,-0.150914,-0.7015
1630497986975,-0.6874089999999999,-0.15067,-0.701378
1630497986984,-0.689117,-0.148779,-0.7044279999999999
1630497986994,-0.68991,-0.14884,-0.706502
1630497987003,-0.6898489999999999,-0.14884,-0.704916
1630497987013,-0.6901539999999999,-0.149877,-0.703147
1630497987023,-0.690398,-0.150548,-0.703696
1630497987032,-0.6916789999999999,-0.150182,-0.70333
1630497987042,-0.6904589999999999,-0.149572,-0.7032079999999999
1630497987051,-0.689361,-0.149328,-0.70394
1630497987061,-0.690032,-0.149023,-0.7041229999999999
1630497987071,-0.690093,-0.14835199999999998,-0.7035129999999999
1630497987080,-0.689178,-0.14835199999999998,-0.702232
1630497987090,-0.688995,-0.14762,-0.702232
1630497987099,-0.689422,-0.14774199999999998,-0.70211
1630497987109,-0.6892389999999999,-0.147559,-0.7032079999999999
1630497987119,-0.688751,-0.14701,-0.7044279999999999
1630497987128,-0.6892389999999999,-0.14743699999999998,-0.703757
1630497987138,-0.6886289999999999,-0.147498,-0.704184
1630497987147,-0.6877139999999999,-0.148596,-0.703086
1630497987157,-0.687226,-0.148413,-0.70272
1630497987167,-0.6855789999999999,-0.14804699999999998,-0.7032079999999999
1630497987176,-0.686677,-0.148718,-0.702598
1630497987186,-0.685945,-0.147681,-0.7032079999999999
1630497987195,-0.686006,-0.148291,-0.70211
1630497987205,-0.687592,-0.148535,-0.702232
1630497987215,-0.687775,-0.149328,-0.7038179999999999
1630497987224,-0.687165,-0.150182,-0.704306
1630497987234,-0.686372,-0.14926699999999998,-0.704062
1630497987243,-0.685518,-0.149328,-0.702537
1630497987253,-0.6861889999999999,-0.150243,-0.701073
1630497987263,-0.686555,-0.149694,-0.70089
1630497987272,-0.688812,-0.147254,-0.702293
1630497987282,-0.689727,-0.14652199999999999,-0.707234
1630497987291,-0.687958,-0.147498,-0.7114429999999999
1630497987301,-0.688507,-0.15067,-0.707722
1630497987311,-0.687653,-0.15237799999999999,-0.704916
1630497987320,-0.687348,-0.153537,-0.702598
1630497987330,-0.686555,-0.152805,-0.70211
1630497987339,-0.686677,-0.153171,-0.703147
1630497987349,-0.686677,-0.152744,-0.704001
1630497987359,-0.68442,-0.153964,-0.705709
1630497987368,-0.684542,-0.155062,-0.7065629999999999
1630497987378,-0.684908,-0.15420799999999998,-0.706319
1630497987387,-0.6843589999999999,-0.155306,-0.706502
1630497987397,-0.684481,-0.155611,-0.705892
1630497987407,-0.68381,-0.155733,-0.704306
1630497987416,-0.684298,-0.15555,-0.704672
1630497987426,-0.684481,-0.156404,-0.705526
1630497987435,-0.684603,-0.156404,-0.7053429999999999
1630497987445,-0.6852739999999999,-0.15616,-0.706319
1630497987455,-0.68625,-0.156221,-0.707356
1630497987464,-0.685091,-0.15512299999999998,-0.7077829999999999
1630497987474,-0.684847,-0.154879,-0.703391
1630497987483,-0.6864939999999999,-0.152805,-0.705465
1630497987493,-0.687226,-0.15207299999999999,-0.705587
1630497987503,-0.686677,-0.151219,-0.7041229999999999
1630497987512,-0.686372,-0.14945,-0.706075
1630497987522,-0.6867989999999999,-0.148474,-0.706746
1630497987531,-0.686311,-0.14835199999999998,-0.706014
1630497987541,-0.686311,-0.149328,-0.703635
1630497987551,-0.6855789999999999,-0.149816,-0.702354
1630497987560,-0.6855789999999999,-0.150548,-0.701561
1630497987570,-0.687165,-0.150426,-0.703391
1630497987579,-0.684908,-0.150304,-0.704489
1630497987589,-0.68503,-0.150731,-0.704916
1630497987599,-0.687226,-0.15128,-0.705465
1630497987608,-0.68564,-0.152134,-0.705099
1630497987618,-0.685823,-0.152317,-0.706014
1630497987627,-0.685945,-0.153171,-0.706319
1630497987637,-0.686921,-0.153415,-0.706014
1630497987647,-0.6861889999999999,-0.153232,-0.706197
1630497987656,-0.686433,-0.153476,-0.706624
1630497987666,-0.686006,-0.1525,-0.706685
1630497987675,-0.686738,-0.151402,-0.7053429999999999
1630497987685,-0.686616,-0.151829,-0.705099
1630497987695,-0.686616,-0.149511,-0.7059529999999999
1630497987704,-0.686616,-0.150731,-0.7059529999999999
1630497987714,-0.686616,-0.150365,-0.706624
1630497987723,-0.6871039999999999,-0.151463,-0.707417
1630497987733,-0.685762,-0.150304,-0.705526
1630497987743,-0.686006,-0.149877,-0.705404
1630497987752,-0.685396,-0.149816,-0.704855
1630497987762,-0.684908,-0.149084,-0.704489
1630497987771,-0.684786,-0.149145,-0.7053429999999999
1630497987781,-0.683566,-0.149755,-0.704855
1630497987791,-0.684481,-0.148718,-0.703635
1630497987800,-0.684603,-0.149816,-0.703635
1630497987810,-0.684237,-0.149877,-0.703879
1630497987819,-0.684115,-0.150182,-0.705404
1630497987829,-0.684298,-0.150121,-0.7074779999999999
1630497987839,-0.68381,-0.15237799999999999,-0.707844
1630497987848,-0.6834439999999999,-0.15268299999999999,-0.707112
1630497987858,-0.6834439999999999,-0.152317,-0.7041229999999999
1630497987867,-0.682956,-0.15067,-0.702232
1630497987877,-0.683932,-0.151219,-0.704062
1630497987887,-0.6864939999999999,-0.14896199999999998,-0.708027
1630497987896,-0.687226,-0.14762,-0.711931
1630497987906,-0.685762,-0.149694,-0.712602
1630497987915,-0.685335,-0.15237799999999999,-0.7102229999999999
1630497987925,-0.685213,-0.15298799999999999,-0.706746
1630497987935,-0.684481,-0.15481799999999998,-0.704672
1630497987944,-0.683688,-0.15481799999999998,-0.703696
1630497987954,-0.683871,-0.154757,-0.70455
1630497987963,-0.684298,-0.15311,-0.7053429999999999
1630497987973,-0.684725,-0.15372,-0.706014
1630497987983,-0.685335,-0.15390299999999998,-0.707051
1630497987992,-0.685152,-0.154086,-0.707112
1630497988002,-0.684176,-0.154574,-0.7074779999999999
1630497988011,-0.684786,-0.154086,-0.707112
1630497988021,-0.6840539999999999,-0.154147,-0.707661
1630497988031,-0.6832,-0.15372,-0.706441
1630497988040,-0.6831389999999999,-0.153842,-0.7056479999999999
1630497988050,-0.6831389999999999,-0.155184,-0.705526
1630497988059,-0.6831389999999999,-0.155245,-0.704855
1630497988069,-0.6832,-0.154757,-0.707356
1630497988079,-0.682285,-0.154696,-0.706014
1630497988088,-0.683078,-0.15433,-0.705526
1630497988098,-0.684176,-0.153537,-0.705831
1630497988107,-0.684237,-0.153415,-0.704367
1630497988117,-0.683993,-0.152012,-0.70577
1630497988127,-0.683688,-0.151341,-0.707722
1630497988136,-0.6831389999999999,-0.151951,-0.7076
1630497988146,-0.682773,-0.151463,-0.706624
1630497988155,-0.683383,-0.15268299999999999,-0.706319
1630497988165,-0.6831389999999999,-0.15451299999999998,-0.704916
1630497988175,-0.683566,-0.155184,-0.704794
1630497988184,-0.683566,-0.156038,-0.705831
1630497988194,-0.683383,-0.155855,-0.707417
1630497988203,-0.683078,-0.15555,-0.707905
1630497988213,-0.6837489999999999,-0.15555,-0.7076
1630497988223,-0.6840539999999999,-0.155489,-0.707722
1630497988232,-0.6855789999999999,-0.155306,-0.709064
1630497988242,-0.685213,-0.154452,-0.708149
1630497988251,-0.6861889999999999,-0.153842,-0.7086979999999999
1630497988261,-0.686372,-0.154452,-0.708454
1630497988271,-0.687348,-0.15329299999999998,-0.708576
1630497988280,-0.688507,-0.151585,-0.708332
1630497988290,-0.685335,-0.15189,-0.707844
1630497988299,-0.686067,-0.151036,-0.707356
1630497988309,-0.685945,-0.151036,-0.707356
1630497988319,-0.6855789999999999,-0.150914,-0.705892
1630497988328,-0.686616,-0.150487,-0.705709
1630497988338,-0.68503,-0.150548,-0.70516
1630497988347,-0.68503,-0.149999,-0.7053429999999999
1630497988357,-0.684725,-0.149633,-0.7068679999999999
1630497988367,-0.683932,-0.149877,-0.70638
1630497988376,-0.684176,-0.148535,-0.706136
1630497988386,-0.683993,-0.148169,-0.705526
1630497988395,-0.683322,-0.149328,-0.704245
1630497988405,-0.683017,-0.148718,-0.703879
1630497988415,-0.68442,-0.149694,-0.702476
1630497988424,-0.685518,-0.149328,-0.704977
1630497988434,-0.6852739999999999,-0.151097,-0.706807
1630497988443,-0.6852739999999999,-0.152012,-0.7071729999999999
1630497988453,-0.68564,-0.15189,-0.707295
1630497988463,-0.683688,-0.150304,-0.7038179999999999
1630497988472,-0.684237,-0.149633,-0.701439
1630497988482,-0.686738,-0.149694,-0.703635
1630497988491,-0.6883239999999999,-0.148169,-0.706685
1630497988501,-0.6880189999999999,-0.148535,-0.711077
1630497988511,-0.6867989999999999,-0.14945,-0.710589
1630497988520,-0.686738,-0.151524,-0.7074779999999999
1630497988530,-0.685762,-0.152744,-0.7047329999999999
1630497988539,-0.685396,-0.15311,-0.702537
1630497988549,-0.684542,-0.15298799999999999,-0.702293
1630497988559,-0.684908,-0.152561,-0.702415
1630497988568,-0.68503,-0.153415,-0.704184
1630497988578,-0.684176,-0.154147,-0.70516
1630497988587,-0.685152,-0.155184,-0.705221
1630497988597,-0.684786,-0.154452,-0.706319
1630497988607,-0.685701,-0.153537,-0.7062579999999999
1630497988616,-0.6858839999999999,-0.15372,-0.706136
1630497988626,-0.685762,-0.153964,-0.70638
1630497988635,-0.686128,-0.153842,-0.70577
1630497988645,-0.686738,-0.153964,-0.704367
1630497988655,-0.68625,-0.152866,-0.7050379999999999
1630497988664,-0.686738,-0.154086,-0.705831
1630497988674,-0.68686,-0.15359799999999998,-0.706136
1630497988683,-0.686067,-0.153842,-0.7050379999999999
1630497988693,-0.686311,-0.152622,-0.702598
1630497988703,-0.687775,-0.151036,-0.7035129999999999
1630497988712,-0.68991,-0.151463,-0.702842
1630497988722,-0.689727,-0.150792,-0.703269
1630497988731,-0.6898489999999999,-0.149633,-0.706746
1630497988741,-0.6893,-0.149572,-0.707112
1630497988751,-0.6901539999999999,-0.148779,-0.706746
1630497988760,-0.69052,-0.14896199999999998,-0.705404
1630497988770,-0.689117,-0.147925,-0.702598
1630497988779,-0.68808,-0.147071,-0.701195
1630497988789,-0.689178,-0.146461,-0.701683
1630497988799,-0.688995,-0.14701,-0.701988
1630497988808,-0.689361,-0.1464,-0.70272
1630497988818,-0.6898489999999999,-0.147803,-0.70333
1630497988827,-0.6892389999999999,-0.148108,-0.703635
1630497988837,-0.689666,-0.14823,-0.702781
1630497988847,-0.688812,-0.148413,-0.703147
1630497988856,-0.6898489999999999,-0.146156,-0.703086
1630497988866,-0.690398,-0.145851,-0.702598
1630497988875,-0.6893,-0.144875,-0.702903
1630497988885,-0.689788,-0.14335,-0.702049
1630497988895,-0.689056,-0.142862,-0.701805
1630497988904,-0.6893,-0.141825,-0.700707
1630497988914,-0.689056,-0.1403,-0.700768
1630497988923,-0.689117,-0.139141,-0.700219
1630497988933,-0.690276,-0.138043,-0.700036
1630497988943,-0.689727,-0.137128,-0.699365
1630497988952,-0.6892389999999999,-0.137616,-0.699792
1630497988962,-0.689483,-0.138226,-0.700707
1630497988971,-0.689361,-0.13786,-0.700524
1630497988981,-0.6893,-0.137738,-0.700646
1630497988991,-0.689605,-0.137738,-0.700585
1630497989000,-0.688507,-0.138409,-0.700463
1630497989010,-0.6886289999999999,-0.138836,-0.699792
1630497989019,-0.690337,-0.138104,-0.700707
1630497989029,-0.690825,-0.139812,-0.702537
1630497989039,-0.690276,-0.140544,-0.70211
1630497989048,-0.691252,-0.1403,-0.701805
1630497989058,-0.689666,-0.139507,-0.702049
1630497989067,-0.690581,-0.13969,-0.699548
1630497989077,-0.6907639999999999,-0.140727,-0.698816
1630497989087,-0.693082,-0.140849,-0.70028
1630497989096,-0.6928989999999999,-0.139385,-0.703086
1630497989106,-0.692472,-0.14127599999999998,-0.70882
1630497989115,-0.692228,-0.142618,-0.707356
1630497989125,-0.693082,-0.144631,-0.704794
1630497989135,-0.692838,-0.145302,-0.701988
1630497989144,-0.692228,-0.145607,-0.700402
1630497989154,-0.692228,-0.144875,-0.700585
1630497989163,-0.6910689999999999,-0.145363,-0.700219
1630497989173,-0.691008,-0.144814,-0.700646
1630497989183,-0.690886,-0.144997,-0.702842
1630497989192,-0.691557,-0.145302,-0.703696
1630497989202,-0.689727,-0.145668,-0.702964
1630497989211,-0.690276,-0.146705,-0.70211
1630497989221,-0.690398,-0.145912,-0.701378
1630497989231,-0.6898489999999999,-0.145912,-0.701195
1630497989240,-0.689788,-0.146766,-0.701683
1630497989250,-0.69052,-0.145912,-0.701378
1630497989259,-0.690581,-0.14621699999999999,-0.701317
1630497989269,-0.6901539999999999,-0.14743699999999998,-0.704184
1630497989279,-0.6901539999999999,-0.147864,-0.703879
1630497989288,-0.690032,-0.14823,-0.703391
1630497989298,-0.688263,-0.14823,-0.70089
1630497989307,-0.6898489999999999,-0.146949,-0.701622
1630497989317,-0.690703,-0.145607,-0.701317
1630497989327,-0.6901539999999999,-0.144692,-0.700768
1630497989336,-0.6892389999999999,-0.142008,-0.701927
1630497989346,-0.690642,-0.142313,-0.702842
1630497989355,-0.6895439999999999,-0.141764,-0.702232
1630497989365,-0.689483,-0.14335,-0.70089
1630497989375,-0.691191,-0.144448,-0.700768
1630497989384,-0.688995,-0.145241,-0.702415
1630497989394,-0.688507,-0.146278,-0.702659
1630497989403,-0.6892389999999999,-0.14701,-0.7032079999999999
1630497989413,-0.688202,-0.14823,-0.70333
1630497989423,-0.687653,-0.148901,-0.70333
1630497989432,-0.6886289999999999,-0.148718,-0.703574
1630497989442,-0.689117,-0.148413,-0.703879
1630497989451,-0.690032,-0.148718,-0.705831
1630497989461,-0.6898489999999999,-0.147498,-0.705404
1630497989471,-0.68991,-0.148108,-0.705404
1630497989480,-0.69113,-0.14774199999999998,-0.705221
1630497989490,-0.690032,-0.147315,-0.705404
1630497989499,-0.689666,-0.14621699999999999,-0.7044279999999999
1630497989509,-0.6892389999999999,-0.145973,-0.7041229999999999
1630497989519,-0.68869,-0.144021,-0.70333
1630497989528,-0.689422,-0.143899,-0.703086
1630497989538,-0.689666,-0.142679,-0.703879
1630497989547,-0.689666,-0.142923,-0.703269
1630497989557,-0.689971,-0.141947,-0.7035129999999999
1630497989567,-0.689056,-0.141154,-0.7038179999999999
1630497989576,-0.688812,-0.141154,-0.70394
1630497989586,-0.687958,-0.142008,-0.701683
1630497989595,-0.687775,-0.141947,-0.7015
1630497989605,-0.687653,-0.140605,-0.700768
1630497989615,-0.688446,-0.140483,-0.700402
1630497989624,-0.689422,-0.140788,-0.701256
1630497989634,-0.688568,-0.142252,-0.70272
1630497989643,-0.689056,-0.142435,-0.70333
1630497989653,-0.6895439999999999,-0.141642,-0.702354
1630497989663,-0.687653,-0.140605,-0.701195
1630497989672,-0.6886289999999999,-0.141642,-0.700951
1630497989682,-0.68991,-0.140849,-0.7015
1630497989691,-0.690642,-0.140788,-0.7035129999999999
1630497989701,-0.6898489999999999,-0.14091,-0.7071729999999999
1630497989711,-0.690032,-0.14219099999999998,-0.709064
1630497989720,-0.689422,-0.144326,-0.707234
1630497989730,-0.689117,-0.146156,-0.703879
1630497989739,-0.690093,-0.14682699999999999,-0.702598
1630497989749,-0.688873,-0.146583,-0.702964
1630497989759,-0.6883239999999999,-0.146705,-0.702293
1630497989768,-0.6880189999999999,-0.146766,-0.702537
1630497989778,-0.687287,-0.147315,-0.704245
1630497989787,-0.6877139999999999,-0.14652199999999999,-0.705892
1630497989797,-0.687592,-0.146095,-0.704916
1630497989807,-0.68686,-0.147498,-0.705282
1630497989816,-0.687287,-0.14682699999999999,-0.703574
1630497989826,-0.6880189999999999,-0.14713199999999999,-0.703696
1630497989835,-0.68869,-0.14774199999999998,-0.7038179999999999
1630497989845,-0.6889339999999999,-0.147986,-0.704672
1630497989855,-0.687897,-0.147986,-0.704672
1630497989864,-0.688507,-0.14743699999999998,-0.704062
1630497989874,-0.68869,-0.146766,-0.7035129999999999
1630497989883,-0.688446,-0.14621699999999999,-0.703696
1630497989893,-0.6883239999999999,-0.145058,-0.701988
1630497989903,-0.689056,-0.144387,-0.702476
1630497989912,-0.690215,-0.143045,-0.701256
1630497989922,-0.689788,-0.140788,-0.701561
1630497989931,-0.690703,-0.140239,-0.703086
1630497989941,-0.690642,-0.140483,-0.7044279999999999
1630497989951,-0.690276,-0.139934,-0.704367
1630497989960,-0.689178,-0.142008,-0.702598
1630497989970,-0.689483,-0.142374,-0.701561
1630497989979,-0.6892389999999999,-0.142374,-0.702049
1630497989989,-0.689178,-0.142984,-0.701561
1630497989999,-0.688446,-0.14249599999999998,-0.702049
1630497990008,-0.688812,-0.144204,-0.701561
1630497990018,-0.689117,-0.143716,-0.7015
1630497990027,-0.689117,-0.144692,-0.703574
1630497990037,-0.690032,-0.145973,-0.704001
1630497990047,-0.690337,-0.146156,-0.7047329999999999
1630497990056,-0.68991,-0.146949,-0.706075
1630497990066,-0.689666,-0.14621699999999999,-0.707356
1630497990075,-0.69052,-0.146583,-0.707112
1630497990085,-0.690581,-0.146339,-0.706014
1630497990095,-0.6901539999999999,-0.14579,-0.7047329999999999
1630497990104,-0.690215,-0.145607,-0.704245
1630497990114,-0.689117,-0.145485,-0.704489
1630497990123,-0.6889339999999999,-0.144265,-0.704489
1630497990133,-0.689666,-0.143594,-0.703452
1630497990143,-0.688751,-0.14310599999999998,-0.704062
1630497990152,-0.6883239999999999,-0.142984,-0.702598
1630497990162,-0.687165,-0.142374,-0.703452
1630497990171,-0.688141,-0.141764,-0.703879
1630497990181,-0.688141,-0.14158099999999998,-0.703147
1630497990191,-0.688507,-0.14127599999999998,-0.70333
1630497990200,-0.688507,-0.142252,-0.7032079999999999
1630497990210,-0.688446,-0.14152,-0.701256
1630497990219,-0.688873,-0.141032,-0.701256
1630497990229,-0.687958,-0.140849,-0.702476
1630497990239,-0.68808,-0.142313,-0.702415
1630497990248,-0.687836,-0.14335,-0.7032079999999999
1630497990258,-0.6883239999999999,-0.142008,-0.701805
1630497990267,-0.686738,-0.141642,-0.699914
1630497990277,-0.687531,-0.141215,-0.698816
1630497990287,-0.690642,-0.139629,-0.701012
1630497990296,-0.6913739999999999,-0.138836,-0.704794
1630497990306,-0.691008,-0.139385,-0.710284
1630497990315,-0.6910689999999999,-0.14127599999999998,-0.709674
1630497990325,-0.691435,-0.144936,-0.7068679999999999
1630497990335,-0.691801,-0.14682699999999999,-0.703574
1630497990344,-0.689971,-0.147498,-0.702659
1630497990354,-0.6895439999999999,-0.14762,-0.70272
1630497990363,-0.6880189999999999,-0.147254,-0.703574
1630497990373,-0.687226,-0.146156,-0.702903
1630497990383,-0.687043,-0.14713199999999999,-0.704672
1630497990392,-0.687348,-0.147376,-0.70455
1630497990402,-0.686738,-0.14713199999999999,-0.704855
1630497990411,-0.687836,-0.14713199999999999,-0.704611
1630497990421,-0.687653,-0.147498,-0.703391
1630497990431,-0.68808,-0.148596,-0.7038179999999999
1630497990440,-0.6889339999999999,-0.148108,-0.704672
1630497990450,-0.687836,-0.147986,-0.705282
1630497990459,-0.6886289999999999,-0.147986,-0.7053429999999999
1630497990469,-0.68869,-0.14743699999999998,-0.705526
1630497990479,-0.6877139999999999,-0.147376,-0.7059529999999999
1630497990488,-0.686067,-0.146583,-0.705587
1630497990498,-0.687165,-0.145912,-0.702781
1630497990507,-0.68869,-0.144631,-0.702842
1630497990517,-0.688995,-0.144082,-0.701927
1630497990527,-0.688568,-0.142984,-0.704672
1630497990536,-0.68869,-0.142374,-0.706441
1630497990546,-0.687592,-0.141703,-0.706075
1630497990555,-0.68808,-0.14188599999999998,-0.704306
1630497990565,-0.6886289999999999,-0.141825,-0.702354
1630497990575,-0.688568,-0.14188599999999998,-0.702049
1630497990584,-0.688873,-0.141825,-0.701988
1630497990594,-0.6895439999999999,-0.142008,-0.7032079999999999
1630497990603,-0.68869,-0.141764,-0.704184
1630497990613,-0.689422,-0.142374,-0.704611
1630497990623,-0.6886289999999999,-0.143228,-0.704977
1630497990632,-0.689666,-0.142862,-0.705221
1630497990642,-0.690032,-0.142618,-0.704245
1630497990651,-0.6901539999999999,-0.143167,-0.705892
1630497990661,-0.690032,-0.142313,-0.706014
1630497990671,-0.6910689999999999,-0.141032,-0.705465
1630497990680,-0.690215,-0.140727,-0.705709
1630497990690,-0.690337,-0.141154,-0.704977
1630497990699,-0.6889339999999999,-0.14097099999999999,-0.704367
1630497990709,-0.6907639999999999,-0.1403,-0.704672
1630497990719,-0.690093,-0.140422,-0.70455
1630497990728,-0.687836,-0.140788,-0.704062
1630497990738,-0.687897,-0.139934,-0.7050379999999999
1630497990747,-0.687653,-0.138775,-0.703879
1630497990757,-0.6864939999999999,-0.139202,-0.70333
1630497990767,-0.6855789999999999,-0.139141,-0.702232
1630497990776,-0.684908,-0.139324,-0.701927
1630497990786,-0.685335,-0.140605,-0.701744
1630497990795,-0.6852739999999999,-0.14158099999999998,-0.702659
1630497990805,-0.684603,-0.142313,-0.701317
1630497990815,-0.685762,-0.142252,-0.701988
1630497990824,-0.68564,-0.142008,-0.703635
1630497990834,-0.685213,-0.143411,-0.705709
1630497990843,-0.68503,-0.144936,-0.706197
1630497990853,-0.686555,-0.144936,-0.705099
1630497990863,-0.686982,-0.14518,-0.703147
1630497990872,-0.686738,-0.144448,-0.701988
1630497990882,-0.689422,-0.142679,-0.70638
1630497990891,-0.691496,-0.142313,-0.709064
1630497990901,-0.690215,-0.142374,-0.711077
1630497990911,-0.689666,-0.144204,-0.712846
1630497990920,-0.688507,-0.145729,-0.710711
1630497990930,-0.687897,-0.149328,-0.706685
1630497990939,-0.685945,-0.151219,-0.704489
1630497990949,-0.685518,-0.150548,-0.7035129999999999
1630497990959,-0.6861889999999999,-0.151036,-0.704001
1630497990968,-0.6858839999999999,-0.15067,-0.705709
1630497990978,-0.685518,-0.149694,-0.706746
1630497990987,-0.686555,-0.14762,-0.7074779999999999
1630497990997,-0.6864939999999999,-0.148718,-0.7076
1630497991007,-0.686982,-0.14823,-0.706319
1630497991016,-0.686616,-0.147498,-0.705709
1630497991026,-0.6871039999999999,-0.147864,-0.704306
1630497991035,-0.686982,-0.147559,-0.704916
1630497991045,-0.687226,-0.147315,-0.704916
1630497991055,-0.686677,-0.14579,-0.70516
1630497991064,-0.6864939999999999,-0.144082,-0.704855
1630497991074,-0.687958,-0.145424,-0.705221
1630497991083,-0.686555,-0.144204,-0.7038179999999999
1630497991093,-0.685945,-0.142435,-0.701012
1630497991103,-0.687897,-0.14158099999999998,-0.700768
1630497991112,-0.689361,-0.139446,-0.701073
1630497991122,-0.689666,-0.138592,-0.699914
1630497991131,-0.689361,-0.137738,-0.702659
1630497991141,-0.6901539999999999,-0.138409,-0.704916
1630497991151,-0.690276,-0.138775,-0.702537
1630497991160,-0.6907639999999999,-0.139446,-0.703147
1630497991170,-0.6910689999999999,-0.140727,-0.703574
1630497991179,-0.689971,-0.141825,-0.7038179999999999
1630497991189,-0.690337,-0.14213,-0.702598
1630497991199,-0.690825,-0.141642,-0.702903
1630497991208,-0.69113,-0.141032,-0.703269
1630497991218,-0.69052,-0.141825,-0.703391
1630497991227,-0.6907639999999999,-0.14152,-0.702964
1630497991237,-0.690886,-0.142008,-0.703757
1630497991247,-0.691008,-0.14213,-0.703635
1630497991256,-0.691008,-0.142008,-0.705587
1630497991266,-0.691313,-0.142069,-0.704672
1630497991275,-0.69174,-0.142618,-0.704245
1630497991285,-0.691191,-0.14213,-0.704184
1630497991295,-0.690703,-0.142313,-0.704184
1630497991304,-0.690337,-0.142313,-0.703696
1630497991314,-0.68991,-0.142374,-0.703635
1630497991323,-0.6898489999999999,-0.14213,-0.7035129999999999
1630497991333,-0.690032,-0.142069,-0.702903
1630497991343,-0.689422,-0.141398,-0.702476
1630497991352,-0.6904589999999999,-0.14152,-0.70272
1630497991362,-0.690276,-0.141398,-0.702171
1630497991371,-0.691313,-0.141703,-0.702659
1630497991381,-0.690032,-0.14152,-0.70211
1630497991391,-0.690703,-0.14188599999999998,-0.702293
1630497991400,-0.690398,-0.14188599999999998,-0.701805
1630497991410,-0.690337,-0.140849,-0.70028
1630497991419,-0.689727,-0.1403,-0.699609
1630497991429,-0.691008,-0.140605,-0.699548
1630497991439,-0.690947,-0.1403,-0.699975
1630497991448,-0.690825,-0.141825,-0.699304
1630497991458,-0.690947,-0.14213,-0.700707
1630497991467,-0.690093,-0.141154,-0.699853
1630497991477,-0.6904589999999999,-0.142557,-0.699426
1630497991487,-0.691801,-0.142923,-0.698938
1630497991496,-0.69296,-0.14213,-0.700158
1630497991506,-0.693692,-0.14188599999999998,-0.7041229999999999
1630497991515,-0.693692,-0.14249599999999998,-0.708027
1630497991525,-0.693082,-0.143655,-0.7068679999999999
1630497991535,-0.692045,-0.14579,-0.704001
1630497991544,-0.691801,-0.14743699999999998,-0.701866
1630497991554,-0.6922889999999999,-0.14774199999999998,-0.700585
1630497991563,-0.69052,-0.146949,-0.700829
1630497991573,-0.689788,-0.146766,-0.699731
1630497991583,-0.689483,-0.146095,-0.700951
1630497991592,-0.689056,-0.145851,-0.702232
1630497991602,-0.689727,-0.145851,-0.702415
1630497991611,-0.68991,-0.14621699999999999,-0.703086
1630497991621,-0.689788,-0.146766,-0.702415
1630497991631,-0.690215,-0.14701,-0.701195
1630497991640,-0.6901539999999999,-0.147681,-0.702598
1630497991650,-0.69113,-0.148291,-0.703025
1630497991659,-0.69113,-0.148535,-0.70272
1630497991669,-0.689727,-0.147315,-0.701988
1630497991679,-0.690398,-0.147376,-0.701012
1630497991688,-0.691496,-0.146888,-0.701988
1630497991698,-0.69052,-0.146644,-0.702537
1630497991707,-0.690398,-0.145363,-0.70028
1630497991717,-0.691496,-0.144387,-0.700036
1630497991727,-0.693265,-0.143777,-0.699975
1630497991736,-0.69418,-0.14127599999999998,-0.698267
1630497991746,-0.694241,-0.139629,-0.700219
1630497991755,-0.694912,-0.138104,-0.702659
1630497991765,-0.694302,-0.13847,-0.700524
1630497991775,-0.693875,-0.138714,-0.699365
1630497991784,-0.694607,-0.137677,-0.698206
1630497991794,-0.694729,-0.137006,-0.699182
1630497991803,-0.694546,-0.137921,-0.698816
1630497991813,-0.693936,-0.137982,-0.699365
1630497991823,-0.693875,-0.138226,-0.698999
1630497991832,-0.693936,-0.139019,-0.699609
1630497991842,-0.693448,-0.139263,-0.698938
1630497991851,-0.693448,-0.139385,-0.70028
1630497991861,-0.694668,-0.138836,-0.700524
1630497991871,-0.695095,-0.13969,-0.700219
1630497991880,-0.695644,-0.139324,-0.7015
1630497991890,-0.695339,-0.13969,-0.701073
1630497991899,-0.694668,-0.138897,-0.700646
1630497991909,-0.695217,-0.13847,-0.699853
1630497991919,-0.694729,-0.138531,-0.698938
1630497991928,-0.695522,-0.137311,-0.698328
1630497991938,-0.69479,-0.13602999999999998,-0.698938
1630497991947,-0.694302,-0.136396,-0.698023
1630497991957,-0.693997,-0.135542,-0.69784
1630497991967,-0.6944239999999999,-0.135847,-0.699548
1630497991976,-0.693692,-0.136518,-0.699426
1630497991986,-0.69418,-0.136457,-0.699426
1630497991995,-0.693021,-0.137433,-0.700951
1630497992005,-0.693326,-0.138775,-0.700036
1630497992015,-0.6928989999999999,-0.137982,-0.699609
1630497992024,-0.6922889999999999,-0.137555,-0.699182
1630497992034,-0.691801,-0.137189,-0.698389
1630497992043,-0.693631,-0.136396,-0.699365
1630497992053,-0.693326,-0.137189,-0.698694
1630497992063,-0.693082,-0.138165,-0.699426
1630497992072,-0.69418,-0.139446,-0.699914
1630497992082,-0.6922889999999999,-0.138348,-0.699975
1630497992091,-0.692228,-0.138592,-0.697901
1630497992101,-0.693143,-0.139324,-0.697596
1630497992111,-0.694363,-0.13847,-0.698572
1630497992120,-0.695034,-0.137982,-0.702232
1630497992130,-0.69479,-0.138287,-0.705831
1630497992139,-0.695156,-0.140178,-0.706014
1630497992149,-0.694241,-0.14158099999999998,-0.702476
1630497992159,-0.693387,-0.142557,-0.699487
1630497992168,-0.693692,-0.141398,-0.69845
1630497992178,-0.6925939999999999,-0.141825,-0.698999
1630497992187,-0.693082,-0.14213,-0.699182
1630497992197,-0.691618,-0.141703,-0.699365
1630497992207,-0.69113,-0.14249599999999998,-0.700829
1630497992216,-0.690886,-0.143167,-0.701622
1630497992226,-0.691801,-0.144265,-0.7015
1630497992235,-0.691496,-0.145302,-0.70089
1630497992245,-0.691862,-0.144509,-0.701561
1630497992255,-0.69113,-0.144997,-0.701256
1630497992264,-0.691923,-0.144936,-0.700646
1630497992274,-0.69296,-0.144753,-0.701378
1630497992283,-0.692167,-0.14457,-0.700829
1630497992293,-0.69235,-0.145424,-0.701317
1630497992303,-0.692045,-0.144936,-0.701927
1630497992312,-0.691801,-0.143655,-0.703452
1630497992322,-0.691618,-0.14335,-0.699792
1630497992331,-0.692716,-0.14274,-0.700341
1630497992341,-0.69235,-0.141215,-0.69906
1630497992351,-0.69235,-0.140178,-0.697108
1630497992360,-0.692045,-0.138226,-0.700219
1630497992370,-0.6935089999999999,-0.138653,-0.70211
1630497992379,-0.692655,-0.138531,-0.700097
1630497992389,-0.69235,-0.139629,-0.700097
1630497992399,-0.69235,-0.140727,-0.69906
1630497992408,-0.6922889999999999,-0.1403,-0.698938
1630497992418,-0.69235,-0.141398,-0.700951
1630497992427,-0.693326,-0.14249599999999998,-0.701378
1630497992437,-0.693021,-0.142618,-0.700768
1630497992447,-0.692777,-0.14280099999999998,-0.701439
1630497992456,-0.69357,-0.143594,-0.701683
1630497992466,-0.6938139999999999,-0.144143,-0.70272
1630497992475,-0.693326,-0.143777,-0.702476
1630497992485,-0.693448,-0.143228,-0.702598
1630497992495,-0.693753,-0.14213,-0.701256
1630497992504,-0.694485,-0.142435,-0.701683
1630497992514,-0.69296,-0.142069,-0.700341
1630497992523,-0.6932039999999999,-0.14091,-0.700219
1630497992533,-0.6928989999999999,-0.141093,-0.70028
1630497992543,-0.693143,-0.14152,-0.700524
1630497992552,-0.693021,-0.141093,-0.700402
1630497992562,-0.693326,-0.14066599999999999,-0.701439
1630497992571,-0.692228,-0.140483,-0.700524
1630497992581,-0.69296,-0.141154,-0.700768
1630497992591,-0.692228,-0.13969,-0.700524
1630497992600,-0.6919839999999999,-0.139812,-0.699914
1630497992610,-0.69174,-0.139263,-0.699426
1630497992619,-0.692045,-0.13908,-0.698084
1630497992629,-0.691801,-0.139812,-0.698816
1630497992639,-0.692045,-0.14036099999999999,-0.699365
1630497992648,-0.6916789999999999,-0.140422,-0.698877
1630497992658,-0.69113,-0.139812,-0.699914
1630497992667,-0.691008,-0.139629,-0.699304
1630497992677,-0.691862,-0.140178,-0.699121
1630497992687,-0.692655,-0.139568,-0.701073
1630497992696,-0.692777,-0.14005599999999999,-0.701744
1630497992706,-0.691618,-0.142557,-0.700768
1630497992715,-0.692167,-0.142435,-0.698999
1630497992725,-0.690581,-0.141032,-0.697352
1630497992735,-0.691252,-0.141032,-0.696254
1630497992744,-0.694058,-0.140544,-0.697047
1630497992754,-0.695766,-0.139446,-0.700646
1630497992763,-0.695522,-0.139568,-0.70638
1630497992773,-0.694485,-0.14127599999999998,-0.709125
1630497992783,-0.694973,-0.143838,-0.706502
1630497992792,-0.693265,-0.14579,-0.702964
1630497992802,-0.69235,-0.14682699999999999,-0.701012
1630497992811,-0.691557,-0.145973,-0.699426
1630497992821,-0.692228,-0.146095,-0.699304
1630497992831,-0.691496,-0.146095,-0.700585
1630497992840,-0.691435,-0.145363,-0.701439
1630497992850,-0.6907639999999999,-0.145119,-0.702415
1630497992859,-0.6904589999999999,-0.144936,-0.702903
1630497992869,-0.689971,-0.145058,-0.70211
1630497992879,-0.689361,-0.144692,-0.701073
1630497992888,-0.690703,-0.14457,-0.701561
1630497992898,-0.690581,-0.146278,-0.7015
1630497992907,-0.689361,-0.146339,-0.702354
1630497992917,-0.6895439999999999,-0.147315,-0.702354
1630497992927,-0.689666,-0.1464,-0.701195
1630497992936,-0.691801,-0.146583,-0.701805
1630497992946,-0.69113,-0.144631,-0.704184
1630497992955,-0.689727,-0.144326,-0.701683
1630497992965,-0.691191,-0.143045,-0.701378
1630497992975,-0.6922889999999999,-0.14152,-0.700768
1630497992984,-0.692167,-0.14091,-0.699243
1630497992994,-0.691008,-0.139324,-0.701378
1630497993003,-0.691435,-0.139446,-0.703757
1630497993013,-0.691435,-0.13969,-0.704245
1630497993023,-0.691496,-0.14066599999999999,-0.70272
1630497993032,-0.69113,-0.140178,-0.701439
1630497993042,-0.6901539999999999,-0.139629,-0.699975
1630497993051,-0.690947,-0.14005599999999999,-0.70089
1630497993061,-0.6910689999999999,-0.139568,-0.702354
1630497993071,-0.6919839999999999,-0.139629,-0.703452
1630497993080,-0.6907639999999999,-0.139385,-0.703574
1630497993090,-0.689605,-0.139629,-0.7035129999999999
1630497993099,-0.690398,-0.13969,-0.703879
1630497993109,-0.690581,-0.139629,-0.704794
1630497993119,-0.691252,-0.1403,-0.704855
1630497993128,-0.6907639999999999,-0.14036099999999999,-0.70577
1630497993138,-0.6910689999999999,-0.139629,-0.704794
1630497993147,-0.6907639999999999,-0.138958,-0.70455
1630497993157,-0.6910689999999999,-0.139507,-0.704794
1630497993167,-0.6907639999999999,-0.13786,-0.705282
1630497993176,-0.69113,-0.138226,-0.705221
1630497993186,-0.69052,-0.137799,-0.706075
1630497993195,-0.690398,-0.139019,-0.704916
1630497993205,-0.690032,-0.137372,-0.705831
1630497993215,-0.690032,-0.136823,-0.70577
1630497993224,-0.68991,-0.136457,-0.704672
1630497993234,-0.690581,-0.13663999999999998,-0.7038179999999999
1630497993243,-0.6892389999999999,-0.136579,-0.703574
1630497993253,-0.689605,-0.136396,-0.704245
1630497993263,-0.689605,-0.13572499999999998,-0.7041229999999999
1630497993272,-0.6889339999999999,-0.135908,-0.7050379999999999
1630497993282,-0.688568,-0.135298,-0.7044279999999999
1630497993291,-0.688568,-0.135176,-0.704916
1630497993301,-0.6886289999999999,-0.134261,-0.705282
1630497993311,-0.687958,-0.133346,-0.7041229999999999
1630497993320,-0.686982,-0.132187,-0.702964
1630497993330,-0.6880189999999999,-0.131455,-0.702232
1630497993339,-0.688446,-0.131882,-0.7044279999999999
1630497993349,-0.686677,-0.134444,-0.7050379999999999
1630497993359,-0.685945,-0.135542,-0.703879
1630497993368,-0.686433,-0.134688,-0.701622
1630497993378,-0.6849689999999999,-0.13450499999999999,-0.700036
1630497993387,-0.685396,-0.13511499999999999,-0.700707
1630497993397,-0.6871039999999999,-0.134261,-0.70455
1630497993407,-0.688446,-0.134017,-0.708271
1630497993416,-0.688141,-0.13359,-0.7105279999999999
1630497993426,-0.686372,-0.136701,-0.710467
1630497993435,-0.6858839999999999,-0.139324,-0.706746
1630497993445,-0.68625,-0.142069,-0.704306
1630497993455,-0.6852739999999999,-0.143716,-0.70394
1630497993464,-0.686372,-0.144082,-0.705587
1630497993474,-0.686067,-0.144692,-0.7065629999999999
1630497993483,-0.6867989999999999,-0.145607,-0.707295
1630497993493,-0.686555,-0.145058,-0.707844
1630497993503,-0.687775,-0.144814,-0.709857
1630497993512,-0.6871039999999999,-0.144265,-0.710162
1630497993522,-0.6871039999999999,-0.144326,-0.70882
1630497993531,-0.687348,-0.143655,-0.7074779999999999
1630497993541,-0.6874089999999999,-0.143472,-0.708149
1630497993551,-0.687897,-0.143838,-0.7080879999999999
1630497993560,-0.688202,-0.143716,-0.708637
1630497993570,-0.687958,-0.14249599999999998,-0.7080879999999999
1630497993579,-0.687592,-0.142069,-0.708149
1630497993589,-0.686982,-0.141398,-0.707844
1630497993599,-0.685518,-0.140788,-0.707051
1630497993608,-0.6855789999999999,-0.139202,-0.702964
1630497993618,-0.688873,-0.138958,-0.704367
1630497993627,-0.6889339999999999,-0.137006,-0.703452
1630497993637,-0.6886289999999999,-0.134627,-0.704977
1630497993647,-0.6883239999999999,-0.133041,-0.706929
1630497993656,-0.688141,-0.132797,-0.706319
1630497993666,-0.687836,-0.131394,-0.7047329999999999
1630497993675,-0.6895439999999999,-0.132614,-0.7050379999999999
1630497993685,-0.689788,-0.133041,-0.7038179999999999
1630497993695,-0.689178,-0.132858,-0.7044279999999999
1630497993704,-0.689605,-0.133712,-0.704245
1630497993714,-0.688812,-0.133285,-0.704916
1630497993723,-0.688202,-0.131699,-0.704977
1630497993733,-0.6886289999999999,-0.131516,-0.705099
1630497993743,-0.688507,-0.131577,-0.704794
1630497993752,-0.68808,-0.131394,-0.7038179999999999
1630497993762,-0.687897,-0.131394,-0.704672
1630497993771,-0.689178,-0.131577,-0.7059529999999999
1630497993781,-0.689971,-0.133407,-0.705404
1630497993791,-0.68869,-0.132492,-0.7053429999999999
1630497993800,-0.68808,-0.13298,-0.7059529999999999
1630497993810,-0.6893,-0.13359,-0.706685
1630497993819,-0.689666,-0.133834,-0.706136
1630497993829,-0.689605,-0.134749,-0.70577
1630497993839,-0.689666,-0.133712,-0.70516
1630497993848,-0.6893,-0.133895,-0.705465
1630497993858,-0.6898489999999999,-0.133346,-0.70577
1630497993867,-0.6904589999999999,-0.13298,-0.704916
1630497993877,-0.691313,-0.13298,-0.706075
1630497993887,-0.690947,-0.133956,-0.705831
1630497993896,-0.6913739999999999,-0.133468,-0.705526
1630497993906,-0.691435,-0.134261,-0.704794
1630497993915,-0.690642,-0.134261,-0.705221
1630497993925,-0.690032,-0.134871,-0.704306
1630497993935,-0.689971,-0.134749,-0.7044279999999999
1630497993944,-0.689422,-0.133834,-0.703696
1630497993954,-0.689788,-0.133224,-0.703696
1630497993963,-0.6895439999999999,-0.133956,-0.701683
1630497993973,-0.690398,-0.13359,-0.703147
1630497993983,-0.690032,-0.134261,-0.703391
1630497993992,-0.68991,-0.13602999999999998,-0.7047329999999999
1630497994002,-0.690337,-0.135481,-0.7044279999999999
1630497994011,-0.689666,-0.135664,-0.70211
1630497994021,-0.688995,-0.135542,-0.700951
1630497994031,-0.690581,-0.13511499999999999,-0.701805
1630497994040,-0.691618,-0.134627,-0.703635
1630497994050,-0.691191,-0.134139,-0.706136
1630497994059,-0.690215,-0.134749,-0.709552
1630497994069,-0.690337,-0.137128,-0.706441
1630497994079,-0.690398,-0.138592,-0.703757
1630497994088,-0.690215,-0.139507,-0.701988
1630497994098,-0.689483,-0.140239,-0.700158
1630497994107,-0.689605,-0.139507,-0.701622
1630497994117,-0.689178,-0.140483,-0.701012
1630497994127,-0.6895439999999999,-0.140239,-0.701927
1630497994136,-0.688751,-0.14152,-0.7038179999999999
1630497994146,-0.6895439999999999,-0.141459,-0.7047329999999999
1630497994155,-0.689483,-0.14066599999999999,-0.70394
1630497994165,-0.688385,-0.141154,-0.703635
1630497994175,-0.689727,-0.141215,-0.7038179999999999
1630497994184,-0.689971,-0.14213,-0.70333
1630497994194,-0.690032,-0.14310599999999998,-0.703452
1630497994203,-0.6904589999999999,-0.14274,-0.703696
1630497994213,-0.689971,-0.144326,-0.703696
1630497994223,-0.689971,-0.144265,-0.70455
1630497994232,-0.69052,-0.144692,-0.7056479999999999
1630497994242,-0.6898489999999999,-0.143716,-0.7050379999999999
1630497994251,-0.688263,-0.142618,-0.702842
1630497994261,-0.690093,-0.140483,-0.702903
1630497994271,-0.690581,-0.139507,-0.701988
1630497994280,-0.691801,-0.137616,-0.701927
1630497994290,-0.691313,-0.135786,-0.704794
1630497994299,-0.6919839999999999,-0.13572499999999998,-0.704855
1630497994309,-0.69113,-0.136213,-0.704794
1630497994319,-0.691496,-0.13663999999999998,-0.702842
1630497994328,-0.691557,-0.137555,-0.702476
1630497994338,-0.692411,-0.137189,-0.702415
1630497994347,-0.691313,-0.136091,-0.702781
1630497994357,-0.6913739999999999,-0.137189,-0.702598
1630497994367,-0.691191,-0.137128,-0.703391
1630497994376,-0.69113,-0.135969,-0.7032079999999999
1630497994386,-0.690703,-0.136884,-0.703269
1630497994395,-0.691557,-0.136762,-0.703574
1630497994405,-0.692777,-0.136091,-0.704062
1630497994415,-0.69235,-0.135603,-0.704611
1630497994424,-0.6916789999999999,-0.135664,-0.703696
1630497994434,-0.69235,-0.135237,-0.703452
1630497994443,-0.690398,-0.13480999999999999,-0.7035129999999999
1630497994453,-0.691496,-0.134627,-0.703269
1630497994463,-0.6901539999999999,-0.134383,-0.704001
1630497994472,-0.690032,-0.13450499999999999,-0.70333
1630497994482,-0.690032,-0.133956,-0.70211
1630497994491,-0.690215,-0.132858,-0.702171
1630497994501,-0.691313,-0.133041,-0.702842
1630497994511,-0.6901539999999999,-0.131455,-0.702964
1630497994520,-0.690581,-0.130906,-0.702049
1630497994530,-0.690642,-0.13176,-0.7032079999999999
1630497994539,-0.6901539999999999,-0.132065,-0.703574
1630497994549,-0.6904589999999999,-0.13359,-0.703269
1630497994559,-0.689788,-0.134139,-0.702964
1630497994568,-0.6901539999999999,-0.13450499999999999,-0.702598
1630497994578,-0.6895439999999999,-0.13480999999999999,-0.703025
1630497994587,-0.6892389999999999,-0.134566,-0.701561
1630497994597,-0.6892389999999999,-0.133346,-0.701256
1630497994607,-0.6893,-0.132431,-0.702781
1630497994616,-0.691252,-0.134322,-0.70333
1630497994626,-0.691008,-0.134871,-0.702964
1630497994635,-0.690886,-0.133651,-0.703025
1630497994645,-0.689788,-0.133651,-0.702659
1630497994655,-0.69052,-0.135603,-0.702232
1630497994664,-0.692167,-0.136762,-0.701988
1630497994674,-0.693875,-0.136091,-0.704855
1630497994683,-0.6932039999999999,-0.135786,-0.708637
1630497994693,-0.69174,-0.136396,-0.710711
1630497994703,-0.691252,-0.138592,-0.708942
1630497994712,-0.691008,-0.139568,-0.704977
1630497994722,-0.689666,-0.139873,-0.702903
1630497994731,-0.6898489999999999,-0.140849,-0.70211
1630497994741,-0.689056,-0.140239,-0.702964
1630497994751,-0.6883239999999999,-0.1403,-0.7038179999999999
1630497994760,-0.6883239999999999,-0.140727,-0.704611
1630497994770,-0.687897,-0.141459,-0.7059529999999999
1630497994779,-0.688141,-0.141398,-0.706319
1630497994789,-0.6877139999999999,-0.142252,-0.706075
1630497994799,-0.68747,-0.14158099999999998,-0.7038179999999999
1630497994808,-0.688812,-0.141703,-0.703452
1630497994818,-0.68869,-0.14274,-0.70333
1630497994827,-0.688446,-0.14213,-0.703574
1630497994837,-0.688751,-0.142374,-0.703879
1630497994847,-0.689178,-0.142435,-0.703147
1630497994856,-0.689422,-0.14158099999999998,-0.701988
1630497994866,-0.688446,-0.141337,-0.702537
1630497994875,-0.687043,-0.139629,-0.702964
1630497994885,-0.688202,-0.138958,-0.700524
1630497994895,-0.689727,-0.13786,-0.701866
1630497994904,-0.6910689999999999,-0.137616,-0.700829
1630497994914,-0.692228,-0.135664,-0.701988
1630497994923,-0.692228,-0.135054,-0.704855
1630497994933,-0.692167,-0.136152,-0.7044279999999999
1630497994943,-0.692411,-0.137128,-0.70272
1630497994952,-0.6916789999999999,-0.135969,-0.702171
1630497994962,-0.692655,-0.136884,-0.702232
1630497994971,-0.693143,-0.13786,-0.702781
1630497994981,-0.69235,-0.138043,-0.7015
1630497994991,-0.691557,-0.138836,-0.701561
1630497995000,-0.692167,-0.138653,-0.703147
1630497995010,-0.691557,-0.139568,-0.7044279999999999
1630497995019,-0.691496,-0.140422,-0.7041229999999999
1630497995029,-0.692106,-0.140727,-0.704672
1630497995039,-0.6919839999999999,-0.139507,-0.704977
1630497995048,-0.692106,-0.139141,-0.705709
1630497995058,-0.691801,-0.139507,-0.705099
1630497995067,-0.692045,-0.139019,-0.70516
1630497995077,-0.692838,-0.139202,-0.704306
1630497995087,-0.692045,-0.138287,-0.70333
1630497995096,-0.692777,-0.138165,-0.703879
1630497995106,-0.692045,-0.137494,-0.7044279999999999
1630497995115,-0.691801,-0.137006,-0.7038179999999999
1630497995125,-0.69113,-0.136518,-0.703696
1630497995135,-0.69113,-0.13633499999999998,-0.703086
1630497995144,-0.690642,-0.135054,-0.702842
1630497995154,-0.6904589999999999,-0.135237,-0.702049
1630497995163,-0.690337,-0.134444,-0.701805
1630497995173,-0.6898489999999999,-0.134078,-0.702354
1630497995183,-0.690093,-0.13450499999999999,-0.702598
1630497995192,-0.689178,-0.13480999999999999,-0.702842
1630497995202,-0.690032,-0.134139,-0.702476
1630497995211,-0.6898489999999999,-0.134566,-0.702415
1630497995221,-0.6889339999999999,-0.134383,-0.702049
1630497995231,-0.69113,-0.134383,-0.70272
1630497995240,-0.690886,-0.134444,-0.704855
1630497995250,-0.6901539999999999,-0.13541999999999998,-0.703757
1630497995259,-0.689605,-0.135969,-0.702415
1630497995269,-0.6886289999999999,-0.134383,-0.701988
1630497995279,-0.6886289999999999,-0.134139,-0.700402
1630497995288,-0.691496,-0.133956,-0.701073
1630497995298,-0.693448,-0.132736,-0.703696
1630497995307,-0.695095,-0.131394,-0.707966
1630497995317,-0.692777,-0.131638,-0.7117479999999999
1630497995327,-0.691435,-0.134322,-0.709735
1630497995336,-0.6907639999999999,-0.13602999999999998,-0.704489
1630497995346,-0.689483,-0.138226,-0.702537
1630497995355,-0.689483,-0.138714,-0.70272
1630497995365,-0.688995,-0.138592,-0.70333
1630497995375,-0.688568,-0.13969,-0.703452
1630497995384,-0.689056,-0.139324,-0.704184
1630497995394,-0.688812,-0.138836,-0.704062
1630497995403,-0.6886289999999999,-0.138653,-0.70516
1630497995413,-0.687775,-0.139202,-0.706319
1630497995423,-0.688568,-0.138836,-0.70577
1630497995432,-0.6886289999999999,-0.138653,-0.704794
1630497995442,-0.689788,-0.138897,-0.7047329999999999
1630497995451,-0.689788,-0.139324,-0.70516
1630497995461,-0.6893,-0.138409,-0.7050379999999999
1630497995471,-0.689605,-0.137738,-0.704367
1630497995480,-0.690886,-0.13786,-0.705892
1630497995490,-0.690276,-0.136396,-0.706502
1630497995499,-0.687287,-0.13572499999999998,-0.704794
1630497995509,-0.687653,-0.134566,-0.70211
1630497995519,-0.6889339999999999,-0.133956,-0.70333
1630497995528,-0.689178,-0.13359,-0.7015
1630497995538,-0.6880189999999999,-0.132187,-0.70455
1630497995547,-0.6895439999999999,-0.131516,-0.706441
1630497995557,-0.689483,-0.13237,-0.706136
1630497995567,-0.6889339999999999,-0.133834,-0.70577
1630497995576,-0.6893,-0.134444,-0.704062
1630497995586,-0.690398,-0.134444,-0.70333
1630497995595,-0.69052,-0.134566,-0.704245
1630497995605,-0.6898489999999999,-0.134139,-0.705526
1630497995615,-0.6893,-0.134627,-0.7065629999999999
1630497995624,-0.690276,-0.134078,-0.7074779999999999
1630497995634,-0.690215,-0.134749,-0.706441
1630497995643,-0.6901539999999999,-0.133956,-0.706502
1630497995653,-0.689971,-0.133834,-0.706929
1630497995663,-0.690703,-0.131821,-0.707661
1630497995672,-0.690398,-0.132736,-0.706502
1630497995682,-0.69052,-0.131333,-0.706807
1630497995691,-0.690032,-0.12956399999999998,-0.707234
1630497995701,-0.689971,-0.13047899999999998,-0.706929
1630497995711,-0.688263,-0.130967,-0.706136
1630497995720,-0.687897,-0.13078399999999998,-0.705404
1630497995730,-0.686738,-0.130906,-0.704489
1630497995739,-0.686372,-0.131394,-0.704794
1630497995749,-0.686433,-0.131089,-0.703879
1630497995759,-0.686311,-0.131028,-0.7047329999999999
1630497995768,-0.685823,-0.130662,-0.706746
1630497995778,-0.685945,-0.131089,-0.7074779999999999
1630497995787,-0.685518,-0.132248,-0.708027
1630497995797,-0.685762,-0.133041,-0.706075
1630497995807,-0.685152,-0.13359,-0.706136
1630497995816,-0.684237,-0.133651,-0.704855
1630497995826,-0.684786,-0.132614,-0.7050379999999999
1630497995835,-0.686738,-0.133041,-0.7062579999999999
1630497995845,-0.686311,-0.133224,-0.7080879999999999
1630497995855,-0.686006,-0.133834,-0.7080879999999999
1630497995864,-0.687348,-0.13541999999999998,-0.707905
1630497995874,-0.686616,-0.13541999999999998,-0.70516
1630497995883,-0.686433,-0.134444,-0.703574
1630497995893,-0.688812,-0.134322,-0.706197
1630497995903,-0.691191,-0.13298,-0.709857
1630497995912,-0.691313,-0.131882,-0.7132729999999999
1630497995922,-0.690886,-0.133834,-0.715042
1630497995931,-0.6892389999999999,-0.134871,-0.7135779999999999
1630497995941,-0.689361,-0.13786,-0.7096129999999999
1630497995951,-0.686921,-0.13786,-0.7071729999999999
1630497995960,-0.686311,-0.138653,-0.704611
1630497995970,-0.68625,-0.138104,-0.705587
1630497995979,-0.686677,-0.137372,-0.706075
1630497995989,-0.685945,-0.137128,-0.707356
1630497995999,-0.6855789999999999,-0.137372,-0.709186
1630497996008,-0.6867989999999999,-0.137067,-0.7102229999999999
1630497996018,-0.686372,-0.13694499999999998,-0.70882
1630497996027,-0.6855789999999999,-0.136396,-0.709735
1630497996037,-0.685945,-0.136152,-0.708454
1630497996047,-0.686433,-0.137006,-0.7080879999999999
1630497996056,-0.686677,-0.136701,-0.708271
1630497996066,-0.686616,-0.137067,-0.709125
1630497996075,-0.6864939999999999,-0.137494,-0.7083929999999999
1630497996085,-0.6864939999999999,-0.136396,-0.7080879999999999
1630497996095,-0.686372,-0.13541999999999998,-0.708027
1630497996104,-0.6846639999999999,-0.134932,-0.705526
1630497996114,-0.686372,-0.134688,-0.705221
1630497996123,-0.686738,-0.132614,-0.705221
1630497996133,-0.6871039999999999,-0.131638,-0.70516
1630497996143,-0.6886289999999999,-0.12993,-0.707417
1630497996152,-0.688873,-0.128222,-0.709186
1630497996162,-0.688446,-0.126819,-0.70821
1630497996171,-0.688873,-0.127612,-0.707844
1630497996181,-0.689483,-0.126758,-0.7068679999999999
1630497996191,-0.68869,-0.12749,-0.706014
1630497996200,-0.689788,-0.127917,-0.704245
1630497996210,-0.6889339999999999,-0.12871,-0.704672
1630497996219,-0.688446,-0.12749,-0.706136
1630497996229,-0.688141,-0.128222,-0.706014
1630497996239,-0.687897,-0.12986899999999998,-0.706624
1630497996248,-0.6880189999999999,-0.13017399999999998,-0.707417
1630497996258,-0.6874089999999999,-0.130601,-0.707844
1630497996267,-0.6867989999999999,-0.131272,-0.70821
1630497996277,-0.687287,-0.131028,-0.7086979999999999
1630497996287,-0.687653,-0.132797,-0.70882
1630497996296,-0.687897,-0.132614,-0.708881
1630497996306,-0.6877139999999999,-0.131943,-0.708332
1630497996315,-0.6871039999999999,-0.13176,-0.707844
1630497996325,-0.686372,-0.13115,-0.7077829999999999
1630497996335,-0.687165,-0.130235,-0.7074779999999999
1630497996344,-0.6877139999999999,-0.129747,-0.708942
1630497996354,-0.687836,-0.129076,-0.708759
1630497996363,-0.688446,-0.12871,-0.708454
1630497996373,-0.688446,-0.127795,-0.709247
1630497996383,-0.686616,-0.128893,-0.709064
1630497996392,-0.6877139999999999,-0.12864899999999999,-0.709369
1630497996402,-0.687043,-0.12871,-0.708149
1630497996411,-0.686616,-0.127307,-0.706624
1630497996421,-0.6849689999999999,-0.127124,-0.704916
1630497996431,-0.686982,-0.12688,-0.70516
1630497996440,-0.6864939999999999,-0.127368,-0.7053429999999999
1630497996450,-0.6864939999999999,-0.12895399999999999,-0.70577
1630497996459,-0.686128,-0.12871,-0.7080879999999999
1630497996469,-0.684847,-0.1281,-0.705404
1630497996479,-0.68686,-0.128039,-0.704672
1630497996488,-0.688385,-0.128039,-0.7044279999999999
1630497996498,-0.689117,-0.12834399999999999,-0.705831
1630497996507,-0.6893,-0.128283,-0.710101
1630497996517,-0.6883239999999999,-0.128771,-0.712541
1630497996527,-0.687836,-0.130906,-0.711626
1630497996536,-0.687836,-0.132736,-0.709186
1630497996546,-0.6867989999999999,-0.133712,-0.706807
1630497996555,-0.686677,-0.133834,-0.7053429999999999
1630497996565,-0.686372,-0.133712,-0.706685
1630497996575,-0.686128,-0.132614,-0.707112
1630497996584,-0.685396,-0.13298,-0.706807
1630497996594,-0.685457,-0.133773,-0.709064
1630497996603,-0.685701,-0.133163,-0.709064
1630497996613,-0.686006,-0.133102,-0.7086979999999999
1630497996623,-0.68625,-0.133468,-0.708027
1630497996632,-0.685823,-0.133956,-0.707234
1630497996642,-0.6858839999999999,-0.133712,-0.707112
1630497996651,-0.687775,-0.134261,-0.707356
1630497996661,-0.68625,-0.13511499999999999,-0.7074779999999999
1630497996671,-0.686067,-0.135237,-0.7074779999999999
1630497996680,-0.687287,-0.135786,-0.706807
1630497996690,-0.687592,-0.13633499999999998,-0.70821
1630497996699,-0.686616,-0.136762,-0.70943
1630497996709,-0.686372,-0.136518,-0.707112
1630497996719,-0.687836,-0.13541999999999998,-0.70882
1630497996728,-0.688141,-0.134139,-0.7065629999999999
1630497996738,-0.689117,-0.132248,-0.705465
1630497996747,-0.68808,-0.130845,-0.707661
1630497996757,-0.689422,-0.130113,-0.708027
1630497996767,-0.689056,-0.12993,-0.7065629999999999
1630497996776,-0.6893,-0.12993,-0.705404
1630497996786,-0.690642,-0.13054,-0.706197
1630497996795,-0.689605,-0.130662,-0.7056479999999999
1630497996805,-0.690215,-0.131028,-0.70638
1630497996815,-0.6892389999999999,-0.130845,-0.705587
1630497996824,-0.6892389999999999,-0.131272,-0.7059529999999999
1630497996834,-0.68869,-0.130296,-0.7050379999999999
1630497996843,-0.688873,-0.130235,-0.704916
1630497996853,-0.689422,-0.13017399999999998,-0.704916
1630497996863,-0.69052,-0.129747,-0.706319
1630497996872,-0.690032,-0.129747,-0.705831
1630497996882,-0.690337,-0.130235,-0.706624
1630497996891,-0.6907639999999999,-0.129503,-0.705831
1630497996901,-0.6910689999999999,-0.129991,-0.705282
1630497996911,-0.6910689999999999,-0.129686,-0.705404
1630497996920,-0.691252,-0.12956399999999998,-0.705221
1630497996930,-0.691496,-0.12871,-0.704245
1630497996939,-0.69174,-0.12925899999999999,-0.704367
1630497996949,-0.690947,-0.12834399999999999,-0.705282
1630497996959,-0.691008,-0.12834399999999999,-0.704489
1630497996968,-0.690276,-0.12932,-0.704306
1630497996978,-0.6901539999999999,-0.129625,-0.70394
1630497996987,-0.6904589999999999,-0.128832,-0.704062
1630497996997,-0.689117,-0.129686,-0.703391
1630497997007,-0.6893,-0.128405,-0.702049
1630497997016,-0.691496,-0.127795,-0.702903
1630497997026,-0.6904589999999999,-0.129198,-0.7032079999999999
1630497997035,-0.6910689999999999,-0.131211,-0.703757
1630497997045,-0.691435,-0.130662,-0.7041229999999999
1630497997055,-0.690886,-0.130113,-0.70333
1630497997064,-0.689666,-0.130052,-0.701622
1630497997074,-0.691923,-0.12932,-0.701012
1630497997083,-0.693387,-0.129747,-0.701805
1630497997093,-0.694302,-0.12956399999999998,-0.7050379999999999
1630497997103,-0.693448,-0.129442,-0.709125
1630497997112,-0.693936,-0.130723,-0.7077829999999999
1630497997122,-0.692472,-0.132004,-0.705709
1630497997131,-0.692716,-0.132614,-0.702903
1630497997141,-0.6935089999999999,-0.131943,-0.701866
1630497997151,-0.69296,-0.131638,-0.702293
1630497997160,-0.6910689999999999,-0.132248,-0.702171
1630497997170,-0.691252,-0.132553,-0.702964
1630497997179,-0.690886,-0.131821,-0.704184
1630497997189,-0.690398,-0.133651,-0.704306
1630497997199,-0.690093,-0.131943,-0.7038179999999999
1630497997208,-0.6898489999999999,-0.133224,-0.703086
1630497997218,-0.68991,-0.134261,-0.701744
1630497997227,-0.69113,-0.134322,-0.702781
1630497997237,-0.690581,-0.134871,-0.703147
1630497997247,-0.691862,-0.135298,-0.704001
1630497997256,-0.6919839999999999,-0.135969,-0.705526
1630497997266,-0.692228,-0.13602999999999998,-0.7044279999999999
1630497997275,-0.693021,-0.13480999999999999,-0.705587
1630497997285,-0.690581,-0.134627,-0.704672
1630497997295,-0.690276,-0.133956,-0.701561
1630497997304,-0.692167,-0.131882,-0.7038179999999999
1630497997314,-0.6922889999999999,-0.130906,-0.702232
1630497997323,-0.692411,-0.130296,-0.701622
1630497997333,-0.692533,-0.129381,-0.704306
1630497997343,-0.692838,-0.128466,-0.7056479999999999
1630497997352,-0.6910689999999999,-0.129015,-0.7041229999999999
1630497997362,-0.690581,-0.128771,-0.702964
1630497997371,-0.691862,-0.129991,-0.701622
1630497997381,-0.69113,-0.130967,-0.702049
1630497997391,-0.691191,-0.132248,-0.7038179999999999
1630497997400,-0.691252,-0.132065,-0.703635
1630497997410,-0.691191,-0.132736,-0.7038179999999999
1630497997419,-0.691252,-0.132126,-0.705282
1630497997429,-0.690825,-0.132431,-0.704794
1630497997439,-0.690825,-0.132431,-0.705221
1630497997448,-0.690642,-0.13237,-0.704367
1630497997458,-0.690886,-0.131516,-0.70516
1630497997467,-0.691252,-0.13047899999999998,-0.7056479999999999
1630497997477,-0.691618,-0.130906,-0.704916
1630497997487,-0.692228,-0.130357,-0.70455
1630497997496,-0.69235,-0.13176,-0.7047329999999999
1630497997506,-0.6916789999999999,-0.130601,-0.703757
1630497997515,-0.690825,-0.13078399999999998,-0.704245
1630497997525,-0.690398,-0.129686,-0.705892
1630497997535,-0.6913739999999999,-0.12932,-0.70516
1630497997544,-0.691618,-0.129137,-0.704916
1630497997554,-0.69113,-0.12871,-0.705282
1630497997563,-0.690825,-0.129015,-0.705282
1630497997573,-0.691008,-0.12925899999999999,-0.704367
1630497997583,-0.690581,-0.13017399999999998,-0.703696
1630497997592,-0.690093,-0.129198,-0.702903
1630497997602,-0.6893,-0.12864899999999999,-0.702232
1630497997611,-0.689971,-0.12834399999999999,-0.701134
1630497997621,-0.690642,-0.128161,-0.704611
1630497997631,-0.689666,-0.129747,-0.704184
1630497997640,-0.691008,-0.12986899999999998,-0.704489
1630497997650,-0.688263,-0.128832,-0.703696
1630497997659,-0.6889339999999999,-0.127856,-0.702598
1630497997669,-0.68991,-0.12871,-0.702476
1630497997679,-0.692106,-0.127124,-0.703696
1630497997688,-0.692472,-0.126026,-0.706624
1630497997698,-0.692045,-0.127124,-0.7096129999999999
1630497997707,-0.691557,-0.129808,-0.70882
1630497997717,-0.690642,-0.131821,-0.70577
1630497997727,-0.690337,-0.13298,-0.704672
1630497997736,-0.690398,-0.132431,-0.703391
1630497997746,-0.689788,-0.132248,-0.703696
1630497997755,-0.6901539999999999,-0.13359,-0.7032079999999999
1630497997765,-0.689971,-0.133529,-0.70516
1630497997775,-0.689422,-0.131821,-0.704916
1630497997784,-0.690398,-0.13115,-0.705587
1630497997794,-0.689422,-0.130906,-0.7050379999999999
1630497997803,-0.690337,-0.131394,-0.702659
1630497997813,-0.690398,-0.131089,-0.702476
1630497997823,-0.691191,-0.131821,-0.703635
1630497997832,-0.691557,-0.132614,-0.705404
1630497997842,-0.6916789999999999,-0.132797,-0.70577
1630497997851,-0.691191,-0.133834,-0.705831
1630497997861,-0.692228,-0.13359,-0.7050379999999999
1630497997871,-0.69174,-0.132736,-0.7059529999999999
1630497997880,-0.6895439999999999,-0.131089,-0.703452
1630497997890,-0.6907639999999999,-0.131028,-0.702354
1630497997899,-0.691923,-0.12925899999999999,-0.702354
1630497997909,-0.6935089999999999,-0.12749,-0.700646
1630497997919,-0.693265,-0.12566,-0.705404
1630497997928,-0.692045,-0.124928,-0.707112
1630497997938,-0.692716,-0.126392,-0.706319
1630497997947,-0.691008,-0.126087,-0.704611
1630497997957,-0.6910689999999999,-0.12627,-0.70394
1630497997967,-0.6904589999999999,-0.126514,-0.7035129999999999
1630497997976,-0.690886,-0.127063,-0.703879
1630497997986,-0.690032,-0.127185,-0.703696
1630497997995,-0.688446,-0.128222,-0.702537
1630497998005,-0.689361,-0.127307,-0.703635
1630497998015,-0.690337,-0.127795,-0.70516
1630497998024,-0.6904589999999999,-0.128039,-0.705587
1630497998034,-0.690093,-0.127063,-0.705709
1630497998043,-0.691252,-0.126453,-0.707112
1630497998053,-0.691801,-0.125904,-0.707051
1630497998063,-0.692228,-0.125233,-0.704855
1630497998072,-0.691191,-0.125599,-0.705404
1630497998082,-0.691496,-0.126209,-0.706136
1630497998091,-0.691557,-0.12566,-0.7050379999999999
1630497998101,-0.6907639999999999,-0.125355,-0.705465
1630497998111,-0.690581,-0.12486699999999999,-0.705526
1630497998120,-0.690642,-0.124684,-0.7059529999999999
1630497998130,-0.690398,-0.123708,-0.704672
1630497998139,-0.691191,-0.122976,-0.705709
1630497998149,-0.690947,-0.12261,-0.704245
1630497998159,-0.690886,-0.122183,-0.704245
1630497998168,-0.69052,-0.12163399999999999,-0.704245
1630497998178,-0.691557,-0.122305,-0.7053429999999999
1630497998187,-0.69052,-0.122427,-0.704855
1630497998197,-0.6898489999999999,-0.122183,-0.7041229999999999
1630497998207,-0.688873,-0.121268,-0.701622
1630497998216,-0.690947,-0.121146,-0.702903
1630497998226,-0.691252,-0.12132899999999999,-0.7062579999999999
1630497998235,-0.690276,-0.12395199999999999,-0.706014
1630497998245,-0.690093,-0.124379,-0.705587
1630497998255,-0.6904589999999999,-0.122976,-0.703574
1630497998264,-0.689788,-0.121146,-0.701988
1630497998274,-0.69052,-0.12224399999999999,-0.700951
1630497998283,-0.693692,-0.120536,-0.7044279999999999
1630497998293,-0.695461,-0.119377,-0.708332
1630497998303,-0.694058,-0.121146,-0.710467
1630497998312,-0.692777,-0.124745,-0.710711
1630497998322,-0.692472,-0.126636,-0.706441
1630497998331,-0.691923,-0.127185,-0.705709
1630497998341,-0.691008,-0.127917,-0.7047329999999999
1630497998351,-0.691008,-0.127551,-0.704306
1630497998360,-0.690032,-0.128222,-0.704245
1630497998370,-0.688507,-0.12834399999999999,-0.7044279999999999
1630497998379,-0.690337,-0.127978,-0.70455
1630497998389,-0.6901539999999999,-0.128405,-0.704794
1630497998399,-0.6895439999999999,-0.127673,-0.70516
1630497998408,-0.690825,-0.127734,-0.70394
1630497998418,-0.690886,-0.12688,-0.704794
1630497998427,-0.691313,-0.126026,-0.706319
1630497998437,-0.691252,-0.127368,-0.704855
1630497998447,-0.691008,-0.127429,-0.704184
1630497998456,-0.690703,-0.125538,-0.704794
1630497998466,-0.6913739999999999,-0.126209,-0.70516
1630497998475,-0.6913739999999999,-0.126087,-0.7044279999999999
1630497998485,-0.689422,-0.125111,-0.702415
1630497998495,-0.693082,-0.124928,-0.699731
1630497998504,-0.694302,-0.123342,-0.70028
1630497998514,-0.695766,-0.122488,-0.701256
1630497998523,-0.694668,-0.122671,-0.704489
1630497998533,-0.695766,-0.122427,-0.705831
1630497998543,-0.695766,-0.123342,-0.705709
1630497998552,-0.696498,-0.125294,-0.704794
1630497998562,-0.694912,-0.127246,-0.703574
1630497998571,-0.6954,-0.127429,-0.702354
1630497998581,-0.69601,-0.127673,-0.703147
1630497998591,-0.696071,-0.128222,-0.7038179999999999
1630497998600,-0.69601,-0.127734,-0.705709
1630497998610,-0.694851,-0.1281,-0.705831
1630497998619,-0.694546,-0.128222,-0.705404
1630497998629,-0.6944239999999999,-0.127368,-0.706014
1630497998639,-0.692777,-0.125599,-0.705099
1630497998648,-0.692472,-0.125416,-0.706136
1630497998658,-0.693082,-0.123769,-0.706014
1630497998667,-0.6916789999999999,-0.123403,-0.707539
1630497998677,-0.6910689999999999,-0.12193899999999999,-0.708271
1630497998687,-0.69113,-0.120841,-0.706685
1630497998696,-0.692655,-0.119499,-0.706502
1630497998706,-0.690886,-0.11809599999999999,-0.707417
1630497998715,-0.690703,-0.115961,-0.706502
1630497998725,-0.688751,-0.115107,-0.7068679999999999
1630497998735,-0.687653,-0.115656,-0.705892
1630497998744,-0.68686,-0.114619,-0.705465
1630497998754,-0.686555,-0.11406999999999999,-0.705892
1630497998763,-0.686555,-0.113887,-0.70699
1630497998773,-0.686982,-0.114375,-0.7083929999999999
1630497998783,-0.6858839999999999,-0.114741,-0.707844
1630497998792,-0.686433,-0.114802,-0.707905
1630497998802,-0.6861889999999999,-0.113643,-0.708149
1630497998811,-0.6858839999999999,-0.113094,-0.707722
1630497998821,-0.687592,-0.113704,-0.7080879999999999
1630497998831,-0.68686,-0.114558,-0.7096129999999999
1630497998840,-0.685518,-0.116876,-0.709552
1630497998850,-0.685152,-0.118645,-0.709125
1630497998859,-0.6832,-0.118462,-0.7059529999999999
1630497998869,-0.683078,-0.115107,-0.705282
1630497998879,-0.685091,-0.117059,-0.706624
1630497998888,-0.6874089999999999,-0.1159,-0.712846
1630497998898,-0.690642,-0.11529,-0.716384
1630497998907,-0.6877139999999999,-0.116266,-0.71858
1630497998917,-0.688263,-0.11669299999999999,-0.7169329999999999
1630497998927,-0.687531,-0.117974,-0.712907
1630497998936,-0.684542,-0.117547,-0.7105279999999999
1630497998946,-0.682041,-0.11840099999999999,-0.711992
1630497998955,-0.6889339999999999,-0.116022,-0.707417
1630497998965,-0.685823,-0.116022,-0.709735
1630497998975,-0.684847,-0.11651,-0.710772
1630497998984,-0.68259,-0.11608299999999999,-0.71248
1630497998994,-0.684481,-0.115961,-0.712724
1630497999003,-0.683078,-0.115961,-0.7120529999999999
1630497999013,-0.682102,-0.11547299999999999,-0.71431
1630497999023,-0.68442,-0.115046,-0.711931
1630497999032,-0.6837489999999999,-0.11486299999999999,-0.7123579999999999
1630497999042,-0.683505,-0.115412,-0.711931
1630497999051,-0.683688,-0.115351,-0.712907
1630497999061,-0.68503,-0.11468,-0.712114
1630497999071,-0.684847,-0.115412,-0.713395
1630497999080,-0.684725,-0.114131,-0.715225
1630497999090,-0.683566,-0.113704,-0.71614
1630497999099,-0.68381,-0.11376499999999999,-0.7114429999999999
1630497999109,-0.6849689999999999,-0.112179,-0.712297
1630497999119,-0.685762,-0.112301,-0.710894
1630497999128,-0.686372,-0.11114199999999999,-0.714432
1630497999138,-0.6858839999999999,-0.110288,-0.716567
1630497999147,-0.685945,-0.108214,-0.714859
1630497999157,-0.686677,-0.107543,-0.713395
1630497999167,-0.684786,-0.10760399999999999,-0.711199
1630497999176,-0.684237,-0.108397,-0.710162
1630497999186,-0.684786,-0.108946,-0.7083929999999999
1630497999195,-0.684298,-0.108885,-0.709247
1630497999205,-0.684176,-0.109251,-0.710711
1630497999215,-0.683566,-0.110593,-0.7117479999999999
1630497999224,-0.6834439999999999,-0.111264,-0.711992
1630497999234,-0.683993,-0.11223999999999999,-0.712236
1630497999243,-0.684298,-0.112789,-0.713334
1630497999253,-0.685152,-0.113277,-0.713334
1630497999263,-0.6858839999999999,-0.113216,-0.7138829999999999
1630497999272,-0.686006,-0.11406999999999999,-0.7138829999999999
1630497999282,-0.686982,-0.113887,-0.714615
1630497999291,-0.686372,-0.11315499999999999,-0.714737
1630497999301,-0.686372,-0.113338,-0.715042
1630497999311,-0.6861889999999999,-0.111996,-0.715469
1630497999320,-0.68625,-0.111264,-0.7137
1630497999330,-0.686006,-0.1098,-0.71309
1630497999339,-0.6840539999999999,-0.109983,-0.714371
1630497999349,-0.685091,-0.108702,-0.7117479999999999
1630497999359,-0.6849689999999999,-0.109495,-0.712297
1630497999368,-0.68442,-0.110593,-0.713212
1630497999378,-0.685823,-0.110715,-0.713944
1630497999387,-0.683566,-0.109739,-0.712846
1630497999397,-0.683383,-0.110654,-0.712785
1630497999407,-0.683078,-0.109556,-0.710772
1630497999416,-0.6828339999999999,-0.10919,-0.709979
1630497999426,-0.684481,-0.109373,-0.710894
1630497999435,-0.683261,-0.111081,-0.713639
1630497999445,-0.683261,-0.112301,-0.7123579999999999
1630497999455,-0.683871,-0.113033,-0.713822
1630497999464,-0.6834439999999999,-0.111691,-0.7132729999999999
1630497999474,-0.682895,-0.113094,-0.71065
1630497999483,-0.684603,-0.113216,-0.710406
1630497999493,-0.68808,-0.111264,-0.715347
1630497999503,-0.68686,-0.109861,-0.720349
1630497999512,-0.685945,-0.110959,-0.720654
1630497999522,-0.684908,-0.114131,-0.71553
1630497999531,-0.68381,-0.116144,-0.710894
1630497999541,-0.683505,-0.11651,-0.708942
1630497999551,-0.6837489999999999,-0.117608,-0.7105279999999999
1630497999560,-0.683383,-0.117242,-0.711077
1630497999570,-0.682346,-0.116876,-0.712114
1630497999579,-0.682468,-0.118767,-0.7138829999999999
1630497999589,-0.6828339999999999,-0.117913,-0.715347
1630497999599,-0.6831389999999999,-0.118584,-0.714676
1630497999608,-0.683566,-0.11962099999999999,-0.713944
1630497999618,-0.683688,-0.119133,-0.71248
1630497999627,-0.68259,-0.119804,-0.712175
1630497999637,-0.684725,-0.11931599999999999,-0.712175
1630497999647,-0.6843589999999999,-0.12023099999999999,-0.712175
1630497999656,-0.684603,-0.120475,-0.711504
1630497999666,-0.684603,-0.12078,-0.711992
1630497999675,-0.685457,-0.121085,-0.7105279999999999
1630497999685,-0.686372,-0.120658,-0.7114429999999999
1630497999695,-0.68564,-0.121451,-0.713639
1630497999704,-0.685518,-0.121085,-0.711687
1630497999714,-0.68625,-0.120292,-0.7096129999999999
1630497999723,-0.687531,-0.11931599999999999,-0.70943
1630497999733,-0.688385,-0.119682,-0.707661
1630497999743,-0.6883239999999999,-0.116815,-0.71004
1630497999752,-0.688202,-0.116205,-0.712236
1630497999762,-0.6883239999999999,-0.116876,-0.71065
1630497999771,-0.687531,-0.116876,-0.7102229999999999
1630497999781,-0.689178,-0.117242,-0.709552
1630497999791,-0.6895439999999999,-0.117059,-0.709857
1630497999800,-0.688995,-0.116571,-0.710101
1630497999810,-0.688873,-0.116449,-0.710467
1630497999819,-0.687958,-0.116632,-0.710162
1630497999829,-0.68625,-0.118157,-0.710406
1630497999839,-0.687165,-0.118462,-0.708942
1630497999848,-0.686128,-0.119377,-0.7086979999999999
1630497999858,-0.68625,-0.11834,-0.70882
1630497999867,-0.686372,-0.118645,-0.709064
1630497999877,-0.68686,-0.11834,-0.70943
1630497999887,-0.6874089999999999,-0.118462,-0.71004
1630497999896,-0.688446,-0.118462,-0.709247
1630497999906,-0.689727,-0.118889,-0.709552
1630497999915,-0.6898489999999999,-0.117669,-0.709491
1630497999925,-0.689422,-0.11931599999999999,-0.711626
1630497999935,-0.689422,-0.11895,-0.710589
1630497999944,-0.690337,-0.118889,-0.710955
1630497999954,-0.689605,-0.11895,-0.711382
1630497999963,-0.689056,-0.118645,-0.710955
1630497999973,-0.6895439999999999,-0.118035,-0.709369
1630497999983,-0.688385,-0.118157,-0.708332
1630497999992,-0.6883239999999999,-0.11840099999999999,-0.70699
1630498000002,-0.687836,-0.117852,-0.7074779999999999
1630498000011,-0.6877139999999999,-0.117059,-0.7074779999999999
1630498000021,-0.687043,-0.116815,-0.706319
1630498000031,-0.687348,-0.116571,-0.706502
1630498000040,-0.688995,-0.117913,-0.70699
1630498000050,-0.688202,-0.119743,-0.706746
1630498000059,-0.688446,-0.120109,-0.706502
1630498000069,-0.6886289999999999,-0.119499,-0.706319
1630498000079,-0.6883239999999999,-0.118584,-0.706014
1630498000088,-0.6893,-0.11834,-0.7059529999999999
1630498000098,-0.691252,-0.117974,-0.704916
1630498000107,-0.691191,-0.116937,-0.708027
1630498000117,-0.690215,-0.116754,-0.712602
1630498000127,-0.691496,-0.118584,-0.7132729999999999
1630498000136,-0.689483,-0.12017,-0.70943
1630498000146,-0.689788,-0.121756,-0.7056479999999999
1630498000155,-0.689605,-0.122,-0.704489
1630498000165,-0.688446,-0.122915,-0.704611
1630498000175,-0.68808,-0.12224399999999999,-0.704916
1630498000184,-0.687775,-0.122488,-0.706807
1630498000194,-0.687653,-0.12285399999999999,-0.707722
1630498000203,-0.687287,-0.123708,-0.70821
1630498000213,-0.686982,-0.123891,-0.707539
1630498000223,-0.687836,-0.124318,-0.7076
1630498000232,-0.688446,-0.12444,-0.7068679999999999
1630498000242,-0.6895439999999999,-0.125721,-0.707661
1630498000251,-0.689788,-0.12566,-0.708515
1630498000261,-0.6889339999999999,-0.125782,-0.7090029999999999
1630498000271,-0.688263,-0.126575,-0.709186
1630498000280,-0.689361,-0.126331,-0.708942
1630498000290,-0.690215,-0.12566,-0.7074779999999999
1630498000299,-0.691008,-0.124806,-0.708271
1630498000309,-0.690642,-0.123342,-0.708027
1630498000319,-0.690032,-0.122671,-0.705709
1630498000328,-0.691923,-0.120963,-0.706197
1630498000338,-0.692106,-0.119438,-0.705099
1630498000347,-0.692533,-0.117669,-0.7041229999999999
1630498000357,-0.692411,-0.1159,-0.7050379999999999
1630498000367,-0.690886,-0.117852,-0.706197
1630498000376,-0.6922889999999999,-0.116266,-0.7044279999999999
1630498000386,-0.6919839999999999,-0.114924,-0.7047329999999999
1630498000395,-0.692472,-0.116266,-0.703696
1630498000405,-0.691801,-0.116632,-0.704306
1630498000415,-0.6922889999999999,-0.117364,-0.704855
1630498000424,-0.6925939999999999,-0.118157,-0.704062
1630498000434,-0.6922889999999999,-0.117547,-0.7044279999999999
1630498000443,-0.69235,-0.117852,-0.7044279999999999
1630498000453,-0.6919839999999999,-0.118035,-0.70516
1630498000463,-0.691923,-0.11834,-0.705282
1630498000472,-0.69235,-0.11840099999999999,-0.705709
1630498000482,-0.690947,-0.119743,-0.7059529999999999
1630498000491,-0.691862,-0.118157,-0.7062579999999999
1630498000501,-0.6925939999999999,-0.117852,-0.706197
1630498000511,-0.692716,-0.11809599999999999,-0.705526
1630498000520,-0.691618,-0.119377,-0.705892
1630498000530,-0.6919839999999999,-0.11931599999999999,-0.704977
1630498000539,-0.692045,-0.120536,-0.704916
1630498000549,-0.6916789999999999,-0.119743,-0.7050379999999999
1630498000559,-0.691618,-0.119438,-0.70455
1630498000568,-0.692411,-0.11901099999999999,-0.706075
1630498000578,-0.6925939999999999,-0.11895,-0.7053429999999999
1630498000587,-0.692472,-0.11809599999999999,-0.705587
1630498000597,-0.6925939999999999,-0.117547,-0.7053429999999999
1630498000607,-0.69174,-0.11730299999999999,-0.704916
1630498000616,-0.691557,-0.117608,-0.705099
1630498000626,-0.6910689999999999,-0.11730299999999999,-0.705099
1630498000635,-0.6913739999999999,-0.117486,-0.705526
1630498000645,-0.6913739999999999,-0.117608,-0.704184
1630498000655,-0.690886,-0.11730299999999999,-0.703635
1630498000664,-0.690642,-0.117547,-0.701378
1630498000674,-0.690398,-0.117608,-0.702537
1630498000683,-0.691862,-0.118279,-0.704306
1630498000693,-0.69052,-0.120414,-0.704062
1630498000703,-0.691618,-0.121146,-0.706014
1630498000712,-0.690398,-0.12132899999999999,-0.705526
1630498000722,-0.69052,-0.121878,-0.703391
1630498000731,-0.6925939999999999,-0.12315899999999999,-0.704367
1630498000741,-0.692716,-0.121512,-0.705465
1630498000751,-0.692838,-0.121085,-0.708271
1630498000760,-0.692838,-0.121878,-0.711687
1630498000770,-0.691862,-0.122305,-0.71126
1630498000779,-0.692472,-0.125294,-0.7086979999999999
1630498000789,-0.690642,-0.126697,-0.705404
1630498000799,-0.690215,-0.126636,-0.703452
1630498000808,-0.690398,-0.125111,-0.703757
1630498000818,-0.689056,-0.125172,-0.704245
1630498000827,-0.689117,-0.126026,-0.70516
1630498000837,-0.688812,-0.12486699999999999,-0.706746
1630498000847,-0.689605,-0.12505,-0.707051
1630498000856,-0.6889339999999999,-0.125538,-0.706014
1630498000866,-0.688507,-0.12627,-0.705099
1630498000875,-0.6893,-0.126148,-0.704184
1630498000885,-0.6901539999999999,-0.126026,-0.7056479999999999
1630498000895,-0.690276,-0.126148,-0.705892
1630498000904,-0.6904589999999999,-0.126636,-0.7053429999999999
1630498000914,-0.690215,-0.126514,-0.70577
1630498000923,-0.691557,-0.126087,-0.705526
1630498000933,-0.6922889999999999,-0.125782,-0.7062579999999999
1630498000943,-0.691618,-0.125782,-0.706441
1630498000952,-0.689422,-0.123708,-0.704184
1630498000962,-0.692228,-0.122915,-0.7035129999999999
1630498000971,-0.693631,-0.121146,-0.704245
1630498000981,-0.692655,-0.120841,-0.701866
1630498000991,-0.693326,-0.118584,-0.703269
1630498001000,-0.693265,-0.117852,-0.705282
1630498001010,-0.693631,-0.119072,-0.704977
1630498001019,-0.693021,-0.119499,-0.704489
1630498001029,-0.69296,-0.119438,-0.703757
1630498001039,-0.693631,-0.12017,-0.703452
1630498001048,-0.6928989999999999,-0.12017,-0.703025
1630498001058,-0.693936,-0.119804,-0.703574
1630498001067,-0.693936,-0.12071899999999999,-0.703757
1630498001077,-0.693631,-0.120963,-0.7050379999999999
1630498001087,-0.693326,-0.12224399999999999,-0.7047329999999999
1630498001096,-0.6938139999999999,-0.12193899999999999,-0.705221
1630498001106,-0.693448,-0.12102399999999999,-0.705587
1630498001115,-0.693875,-0.120414,-0.705465
1630498001125,-0.693326,-0.11931599999999999,-0.706075
1630498001135,-0.694058,-0.118218,-0.70577
1630498001144,-0.694058,-0.118279,-0.705282
1630498001154,-0.693326,-0.118584,-0.7041229999999999
1630498001163,-0.692228,-0.117608,-0.703391
1630498001173,-0.6919839999999999,-0.117242,-0.703025
1630498001183,-0.693326,-0.117608,-0.702415
1630498001192,-0.692716,-0.117486,-0.703879
1630498001202,-0.692411,-0.117913,-0.703147
1630498001211,-0.691862,-0.118279,-0.7041229999999999
1630498001221,-0.6922889999999999,-0.116876,-0.702842
1630498001231,-0.6928989999999999,-0.11608299999999999,-0.70394
1630498001240,-0.693753,-0.116754,-0.703879
1630498001250,-0.693936,-0.116815,-0.7044279999999999
1630498001259,-0.693448,-0.117242,-0.703757
1630498001269,-0.69357,-0.118035,-0.7035129999999999
1630498001279,-0.6932039999999999,-0.117547,-0.702171
1630498001288,-0.69296,-0.11730299999999999,-0.70211
1630498001298,-0.691862,-0.116815,-0.702537
1630498001307,-0.6925939999999999,-0.11669299999999999,-0.702659
1630498001317,-0.69296,-0.116815,-0.702476
1630498001327,-0.692228,-0.11638799999999999,-0.702049
1630498001336,-0.69296,-0.117913,-0.702964
1630498001346,-0.691008,-0.11779099999999999,-0.701988
1630498001355,-0.692838,-0.117242,-0.70211
1630498001365,-0.694058,-0.117547,-0.70394
1630498001375,-0.693082,-0.119377,-0.704916
1630498001384,-0.6928989999999999,-0.121756,-0.704977
1630498001394,-0.69174,-0.12102399999999999,-0.7038179999999999
1630498001403,-0.690703,-0.121573,-0.701073
1630498001413,-0.691557,-0.12132899999999999,-0.701805
1630498001423,-0.693448,-0.120292,-0.703391
1630498001432,-0.694668,-0.119072,-0.706136
1630498001442,-0.694485,-0.11901099999999999,-0.7096129999999999
1630498001451,-0.693631,-0.12139,-0.710467
1630498001461,-0.693448,-0.12285399999999999,-0.707722
1630498001471,-0.69418,-0.124196,-0.70455
1630498001480,-0.693326,-0.125233,-0.7032079999999999
1630498001490,-0.69235,-0.12456199999999999,-0.703452
1630498001499,-0.691496,-0.125233,-0.7047329999999999
1630498001509,-0.6904589999999999,-0.124989,-0.705709
