timestamp,ax,ay,az
1630498274081,0.074786,1.004243,-0.044469
1630498274090,0.074542,1.003755,-0.044286
1630498274100,0.073322,1.002901,-0.044469
1630498274110,0.072163,1.002108,-0.045018
1630498274119,0.071309,1.002169,-0.04636
1630498274129,0.069967,1.002474,-0.047824
1630498274138,0.069784,1.00284,-0.047763
1630498274148,0.06893,1.00345,-0.048861
1630498274158,0.070394,1.006195,-0.048799999999999996
1630498274167,0.07076,1.006744,-0.044225
1630498274177,0.072895,1.006683,-0.041602
1630498274186,0.074908,1.008879,-0.042638999999999996
1630498274196,0.075274,1.008025,-0.04453
1630498274206,0.075762,1.007598,-0.04697
1630498274215,0.074969,1.00772,-0.049104999999999996
1630498274225,0.07381,1.007964,-0.051118
1630498274234,0.072712,1.003328,-0.046299
1630498274244,0.071919,1.00162,-0.042578
1630498274254,0.075701,1.005646,-0.042638999999999996
1630498274263,0.078934,1.010099,-0.042212
1630498274273,0.081313,1.010648,-0.041358
1630498274282,0.08204499999999999,1.009184,-0.040077
1630498274292,0.081679,1.007354,-0.040077
1630498274302,0.082594,1.007049,-0.039894
1630498274311,0.081496,1.005707,-0.039710999999999996
1630498274321,0.082106,1.003938,-0.040382
1630498274330,0.080886,1.001742,-0.042761
1630498274340,0.079788,1.00162,-0.044774
1630498274350,0.0793,1.002535,-0.04636
1630498274359,0.07869,1.002718,-0.046665
1630498274369,0.079544,1.003755,-0.045689
1630498274378,0.07991,1.002962,-0.045323
1630497978009,0.047763,1.00406,-0.088633
1630497978018,0.046726,1.004731,-0.087352
1630497978028,0.04697,1.006195,-0.087047
1630497978037,0.047763,1.006805,-0.085644
1630497978047,0.049898,1.00589,-0.085217
1630497978057,0.050813,1.007354,-0.08479
1630497978066,0.049409999999999996,1.008696,-0.0854
1630497978076,0.049471,1.008208,-0.085156
1630497978085,0.048678,1.006622,-0.084912
1630497978095,0.048494999999999996,1.006134,-0.08479
1630497978105,0.048068,1.004243,-0.083753
1630497978114,0.047030999999999996,1.005341,-0.084607
1630497978124,0.047030999999999996,1.007171,-0.084302
1630497978133,0.047885,1.0065,-0.083936
1630497978143,0.047397,1.008574,-0.085461
1630497978153,0.047519,1.008757,-0.088572
1630497978162,0.045323,1.005951,-0.090646
1630497978172,0.044286,1.007049,-0.092598
1630497978181,0.045445,1.008696,-0.095099
1630497978191,0.044347,1.006012,-0.091561
1630497978201,0.040809,1.001132,-0.08723
1630497978210,0.03965,1.000888,-0.087718
1630497978220,0.041602,1.002718,-0.08967
1630497978229,0.042822,1.004914,-0.090219
1630497978239,0.043737,1.004609,-0.090707
1630497978249,0.043432,1.004731,-0.090463
1630497978258,0.044286,1.005158,-0.09028
1630497978268,0.044102999999999996,1.005219,-0.08881599999999999
1630497978277,0.044896,1.004792,-0.08723
1630497978287,0.044957,1.004853,-0.086315
1630497978297,0.043554,1.005036,-0.088755
1630497978306,0.043554,1.005219,-0.089914
1630497978316,0.043859,1.004182,-0.089792
1630497978325,0.045079,1.002718,-0.089792
1630497978335,0.045384,1.003999,-0.089609
1630497978345,0.043615,1.003389,-0.088572
1630497978354,0.043248999999999996,1.003877,-0.08912099999999999
1630497978364,0.044164,1.002535,-0.08942599999999999
1630497978373,0.044102999999999996,1.001864,-0.090219
1630497978383,0.044896,1.004548,-0.091195
1630497978393,0.045384,1.0065,-0.09333
1630497978402,0.045201,1.004914,-0.092415
1630497978412,0.043127,1.003145,-0.09089
1630497978421,0.0427,1.002108,-0.089853
1630497978431,0.044286,1.003206,-0.089487
1630497978441,0.042943999999999996,1.002962,-0.090341
1630497978450,0.043554,1.00467,-0.090585
1630497978460,0.04514,1.00589,-0.08967
1630497978469,0.04453,1.005463,-0.090097
1630497978479,0.044712999999999996,1.00528,-0.089243
1630497978489,0.046238,1.006805,-0.088938
1630497978498,0.046421,1.006561,-0.088145
1630497978508,0.046116,1.006012,-0.088633
1630497978517,0.047702,1.006256,-0.087352
1630497978527,0.047885,1.006622,-0.087047
1630497978537,0.045811,1.005646,-0.088267
1630497978546,0.045384,1.004792,-0.089304
1630497978556,0.04453,1.004121,-0.090097
1630497978565,0.045201,1.00528,-0.089487
1630497978575,0.044286,1.005463,-0.090951
1630497978585,0.044407999999999996,1.005097,-0.091256
1630497978594,0.044469,1.006073,-0.090585
1630497978604,0.043493,1.004731,-0.090768
1630497978613,0.04331,1.002657,-0.090829
1630497978623,0.043371,1.004853,-0.09089
1630497978633,0.043248999999999996,1.005585,-0.09143899999999999
1630497978642,0.042943999999999996,1.005158,-0.090036
1630497978652,0.04392,1.004731,-0.08906
1630497978661,0.044407999999999996,1.003938,-0.088328
1630497978671,0.043676,1.003145,-0.08790099999999999
1630497978681,0.043859,1.004243,-0.08973099999999999
1630497978690,0.044469,1.00345,-0.087962
1630497978700,0.045506,1.003145,-0.089365
1630497978709,0.044896,1.005463,-0.090585
1630497978719,0.044469,1.002779,-0.092964
1630497978729,0.042883,1.000827,-0.093574
1630497978738,0.042517,1.003633,-0.09436699999999999
1630497978748,0.042883,1.004975,-0.09394
1630497978757,0.042822,1.00223,-0.089243
1630497978767,0.041663,0.99918,-0.085217
1630497978777,0.042638999999999996,1.001864,-0.085644
1630497978786,0.046055,1.005036,-0.08601
1630497978796,0.047885,1.007232,-0.087169
1630497978805,0.047702,1.008513,-0.088389
1630497978815,0.048312,1.008574,-0.088267
1630497978825,0.047519,1.008025,-0.086986
1630497978834,0.047885,1.006988,-0.08558299999999999
1630497978844,0.046176999999999996,1.007537,-0.084851
1630497978853,0.04819,1.007232,-0.083875
1630497978863,0.049532,1.006805,-0.083387
1630497978873,0.047458,1.006866,-0.085095
1630497978882,0.048068,1.007171,-0.08649799999999999
1630497978892,0.047702,1.005768,-0.08680299999999999
1630497978901,0.045871999999999996,1.004548,-0.086742
1630497978911,0.046055,1.004548,-0.086742
1630497978921,0.046726,1.004121,-0.088572
1630497978930,0.04758,1.001742,-0.08851099999999999
1630497978940,0.044957,1.003267,-0.08967
1630497978949,0.045323,1.00467,-0.09272
1630497978959,0.044591,1.005646,-0.09467199999999999
1630497978969,0.04392,1.00345,-0.090829
1630497978978,0.043798,1.002718,-0.090524
1630497978988,0.043432,1.002718,-0.08973099999999999
1630497978997,0.045201,1.003267,-0.08912099999999999
1630497979007,0.044469,1.003206,-0.08851099999999999
1630497979017,0.046238,1.004792,-0.089548
1630497979026,0.04636,1.005707,-0.088389
1630497979036,0.046421,1.006195,-0.088084
1630497979045,0.045933,1.004792,-0.087962
1630497979055,0.044407999999999996,1.004182,-0.088755
1630497979065,0.045445,1.00345,-0.088694
1630497979074,0.045262,1.003816,-0.08942599999999999
1630497979084,0.044102999999999996,1.004365,-0.090524
1630497979093,0.044042,1.004426,-0.090646
1630497979103,0.044102999999999996,1.004975,-0.091256
1630497979113,0.043615,1.004426,-0.090219
1630497979122,0.043188,1.004426,-0.091317
1630497979132,0.043127,1.003633,-0.090463
1630497979141,0.042456,1.004792,-0.091378
1630497979151,0.043798,1.00589,-0.09113399999999999
1630497979161,0.043371,1.005951,-0.091378
1630497979170,0.043859,1.006073,-0.090768
1630497979180,0.043676,1.00589,-0.090036
1630497979189,0.043188,1.004792,-0.08973099999999999
1630497979199,0.043798,1.00406,-0.08973099999999999
1630497979209,0.04331,1.004182,-0.090219
1630497979218,0.042761,1.003938,-0.090341
1630497979228,0.042517,1.003389,-0.090341
1630497979237,0.042822,1.004365,-0.091195
1630497979247,0.042638999999999996,1.004975,-0.091256
1630497979257,0.042638999999999996,1.00589,-0.089975
1630497979266,0.042456,1.004548,-0.08784
1630497979276,0.043737,1.004365,-0.086742
1630497979285,0.043371,1.005097,-0.090463
1630497979295,0.044164,1.004487,-0.092903
1630497979305,0.0427,1.002657,-0.093147
1630497979314,0.039772,1.004975,-0.093757
1630497979324,0.039162,1.003755,-0.092842
1630497979333,0.036539,1.001681,-0.08912099999999999
1630497979343,0.038918,1.002962,-0.088084
1630497979353,0.04087,1.006195,-0.08967
1630497979362,0.043737,1.00894,-0.0915
1630497979372,0.045506,1.009184,-0.090768
1630497979381,0.044469,1.008208,-0.090341
1630497979391,0.043371,1.005524,-0.088694
1630497979401,0.041541,1.003206,-0.087596
1630497979410,0.041846,1.003633,-0.090097
1630497979420,0.041479999999999996,1.003816,-0.089914
1630497979429,0.040382,1.00406,-0.08906
1630497979439,0.040687,1.003389,-0.090646
1630497979449,0.041663,1.003084,-0.091805
1630497979458,0.041541,1.004304,-0.09174399999999999
1630497979468,0.041724,1.004792,-0.091195
1630497979477,0.042943999999999996,1.005219,-0.090524
1630497979487,0.042273,1.005402,-0.08912099999999999
1630497979497,0.043737,1.003511,-0.088084
1630497979506,0.042273,1.002901,-0.088999
1630497979516,0.042761,1.005341,-0.091256
1630497979525,0.043188,1.006744,-0.094916
1630497979535,0.041968,1.003816,-0.093452
1630497979545,0.040199,1.001376,-0.091378
1630497979554,0.038246999999999996,1.001986,-0.093147
1630497979564,0.039101,1.00223,-0.092476
1630497979573,0.039772,1.004182,-0.092964
1630497979583,0.040931,1.004975,-0.093452
1630497979593,0.040320999999999996,1.005707,-0.094184
1630497979602,0.039528,1.005829,-0.094001
1630497979612,0.039223,1.005646,-0.093269
1630497979621,0.038674,1.005341,-0.092476
1630497979631,0.03843,1.005219,-0.092842
1630497979641,0.03843,1.005463,-0.09406199999999999
1630497979650,0.03782,1.005219,-0.092964
1630497979660,0.038003,1.004548,-0.094794
1630497979669,0.036905,1.00345,-0.094855
1630497979679,0.0366,1.003206,-0.09455
1630497979689,0.036966,1.002352,-0.09455
1630497979698,0.038125,1.002657,-0.093818
1630497979708,0.03904,1.002962,-0.093574
1630497979717,0.039223,1.004731,-0.093452
1630497979727,0.040809,1.004121,-0.092903
1630497979737,0.041236,1.003999,-0.091622
1630497979746,0.041541,1.004365,-0.090341
1630497979756,0.040077,1.003389,-0.091195
1630497979765,0.040138,1.002352,-0.090402
1630497979775,0.040320999999999996,1.003816,-0.090585
1630497979785,0.041053,1.004487,-0.090951
1630497979794,0.040748,1.005158,-0.089914
1630497979804,0.040931,1.00467,-0.089304
1630497979813,0.040809,1.006378,-0.087169
1630497979823,0.041541,1.006561,-0.08527799999999999
1630497979833,0.042029,1.007537,-0.085156
1630497979842,0.042151,1.009611,-0.086986
1630497979852,0.044774,1.01077,-0.08967
1630497979861,0.043432,1.008086,-0.088328
1630497979871,0.040748,1.009916,-0.088328
1630497979881,0.040748,1.010099,-0.09028
1630497979890,0.040809,1.007537,-0.087779
1630497979900,0.040138,1.004609,-0.08527799999999999
1630497979909,0.041236,1.004426,-0.085766
1630497979919,0.043676,1.005951,-0.086437
1630497979929,0.045506,1.006744,-0.08662
1630497979938,0.046176999999999996,1.006439,-0.083448
1630497979948,0.045384,1.006622,-0.082472
1630497979957,0.043371,1.006866,-0.083082
1630497979967,0.043554,1.007476,-0.083753
1630497979977,0.043798,1.009367,-0.085034
1630497979986,0.041602,1.009306,-0.08680299999999999
1630497979996,0.039833,1.007415,-0.087596
1630497980005,0.038674,1.006012,-0.089365
1630497980015,0.038551999999999996,1.005036,-0.091378
1630497980025,0.037332,1.004121,-0.093635
1630497980034,0.036966,1.001254,-0.095648
1630497980044,0.036051,1.000949,-0.09759999999999999
1630497980053,0.034221,0.999912,-0.098698
1630497980063,0.033062,0.99857,-0.099491
1630497980073,0.030744,0.997777,-0.102236
1630497980082,0.029707,1.000217,-0.105347
1630497980092,0.030255999999999998,1.00162,-0.109556
1630497980101,0.029096999999999998,0.998814,-0.110105
1630497980111,0.026352,0.9971059999999999,-0.106933
1630497980121,0.025925,1.000888,-0.109861
1630497980130,0.025498,1.002352,-0.11345999999999999
1630497980140,0.025498,1.003511,-0.115351
1630497980149,0.023912,1.004365,-0.117059
1630497980159,0.025742,1.006805,-0.116632
1630497980169,0.026413,1.004792,-0.117547
1630497980178,0.02562,1.00467,-0.11699799999999999
1630497980188,0.025925,1.00406,-0.118889
1630497980197,0.024644,1.004731,-0.122793
1630497980207,0.023241,1.004609,-0.12261
1630497980217,0.022448,1.004426,-0.123525
1630497980226,0.022448,1.005219,-0.124745
1630497980236,0.020801,1.004914,-0.126087
1630497980245,0.018483,1.003755,-0.128588
1630497980255,0.017079999999999998,1.002291,-0.130906
1630497980265,0.017202,1.002718,-0.132431
1630497980274,0.015372,1.002901,-0.134566
1630497980284,0.015433,1.003145,-0.13602999999999998
1630497980293,0.013603,1.002901,-0.138836
1630497980303,0.011712,1.001132,-0.139995
1630497980313,0.01159,1.000278,-0.140727
1630497980322,0.011407,1.000095,-0.14036099999999999
1630497980332,0.010675,1.000278,-0.14188599999999998
1630497980341,0.009394,0.998692,-0.143777
1630497980351,0.008845,0.998753,-0.144997
1630497980361,0.008539999999999999,0.997533,-0.14804699999999998
1630497980370,0.006405,0.995337,-0.149084
1630497980380,0.006405,0.996679,-0.15207299999999999
1630497980389,0.0060999999999999995,0.9971059999999999,-0.153415
1630497980399,0.00549,0.996069,-0.153781
1630497980409,0.005856,0.995093,-0.156892
1630497980418,0.00671,0.992958,-0.158417
1630497980428,0.005063,0.996374,-0.163358
1630497980437,0.005429,0.996862,-0.166286
1630497980447,0.002806,0.994422,-0.165676
1630497980457,-0.002013,0.988444,-0.162626
1630497980466,-0.0046359999999999995,0.986736,-0.16006399999999998
1630497980476,-0.0048189999999999995,0.987407,-0.160796
1630497980485,-0.002928,0.992775,-0.161528
1630497980495,6.1e-05,0.993995,-0.162992
1630497980505,0.000305,0.9961909999999999,-0.16287
1630497980514,0.001464,0.993629,-0.161833
1630497980524,0.002257,0.99247,-0.16226
1630497980533,0.003538,0.994605,-0.161772
1630497980543,0.006588,0.996984,-0.161772
1630497980553,0.006893,0.998692,-0.163175
1630497980562,0.0064659999999999995,0.99979,-0.164212
1630497980572,0.0050019999999999995,0.99796,-0.163663
1630497980581,0.004148,0.995398,-0.163114
1630497980591,0.002196,0.993263,-0.161467
1630497980601,0.001098,0.992043,-0.160613
1630497980610,0.00061,0.9916159999999999,-0.161467
1630497980620,0.001098,0.990518,-0.161162
1630497980629,0.0021349999999999997,0.991982,-0.162504
1630497980639,0.001281,0.991189,-0.164334
1630497980649,0.0015249999999999999,0.99003,-0.16500499999999999
1630497980658,0.003355,0.992165,-0.167384
1630497980668,0.0040869999999999995,0.991189,-0.170007
1630497980677,0.003843,0.9931409999999999,-0.173057
1630497980687,0.002806,0.9922259999999999,-0.173667
1630497980697,0.000976,0.9900909999999999,-0.171044
1630497980706,0.0006709999999999999,0.989054,-0.169031
1630497980716,0.001647,0.991372,-0.16744499999999998
1630497980725,0.0030499999999999998,0.995642,-0.16652999999999998
1630497980735,0.00366,0.999363,-0.164456
1630497980745,0.003172,1.000339,-0.16165
1630497980754,0.003294,0.998814,-0.161101
1630497980764,0.0037819999999999998,0.9974109999999999,-0.160857
1630497980773,0.004148,1.000522,-0.161406
1630497980783,0.0042699999999999995,1.002169,-0.162809
1630497980793,0.003721,0.998692,-0.164944
1630497980802,0.004758,0.994788,-0.168116
1630497980812,0.00183,0.992897,-0.172813
1630497980821,-0.0013419999999999999,0.9891759999999999,-0.178425
1630497980831,-0.004697,0.9858819999999999,-0.181902
1630497980841,-0.0073809999999999995,0.9846619999999999,-0.183
1630497980850,-0.007686,0.986248,-0.185196
1630497980860,-0.007442,0.985455,-0.185806
1630497980869,-0.008296,0.9861869999999999,-0.186172
1630497980879,-0.008173999999999999,0.987346,-0.18605
1630497980889,-0.007503,0.987773,-0.186477
1630497980898,-0.008418,0.986858,-0.185867
1630497980908,-0.0070149999999999995,0.986065,-0.185928
1630497980917,-0.007442,0.9867969999999999,-0.187087
1630497980927,-0.008539999999999999,0.986004,-0.186172
1630497980937,-0.008967,0.9840519999999999,-0.186355
1630497980946,-0.009333,0.983686,-0.187514
1630497980956,-0.010248,0.983381,-0.18812399999999999
1630497980965,-0.008235,0.9864919999999999,-0.18849
1630497980975,-0.0066489999999999995,0.988444,-0.191418
1630497980985,-0.006222,0.98881,-0.192394
1630497980994,-0.005246,0.989847,-0.192943
1630497981004,-0.003355,0.992592,-0.194773
1630497981013,-0.003172,0.99247,-0.197579
1630497981023,-0.004575,0.993568,-0.195749
1630497981033,-0.004575,0.994422,-0.195749
1630497981042,-0.002989,0.993873,-0.194956
1630497981052,-0.0006709999999999999,0.995337,-0.196969
1630497981061,0.000976,0.999119,-0.200934
1630497981071,0.0008539999999999999,0.997838,-0.20349599999999998
1630497981081,-0.0006709999999999999,0.99552,-0.205082
1630497981090,-0.001037,0.99491,-0.20496
1630497981100,-0.001769,0.993934,-0.205753
1630497981109,-0.0034159999999999998,0.9919209999999999,-0.20630199999999999
1630497981119,-0.0035989999999999998,0.9903959999999999,-0.20874199999999998
1630497981129,-0.0060999999999999995,0.9903959999999999,-0.209779
1630497981138,-0.0062829999999999995,0.9897859999999999,-0.211304
1630497981148,-0.0068319999999999995,0.986126,-0.21228
1630497981157,-0.009394,0.983503,-0.21289
1630497981167,-0.009943,0.983259,-0.213927
1630497981177,-0.01159,0.984235,-0.216489
1630497981186,-0.014823,0.985333,-0.21984399999999998
1630497981196,-0.017629,0.986248,-0.221125
1630497981205,-0.019398,0.986248,-0.221796
1630497981215,-0.020374,0.984784,-0.222955
1630497981225,-0.022021,0.985699,-0.223626
1630497981234,-0.024339,0.986065,-0.225944
1630497981244,-0.027145,0.98637,-0.228262
1630497981253,-0.029828999999999998,0.986614,-0.227957
1630497981263,-0.029341,0.98637,-0.229116
1630497981273,-0.031293,0.985821,-0.228872
1630497981282,-0.031659,0.989603,-0.228384
1630497981292,-0.029219,0.99247,-0.23033599999999999
1630497981301,-0.031659,0.987468,-0.229482
1630497981311,-0.036539,0.979538,-0.22752999999999998
1630497981321,-0.03904,0.973804,-0.226066
1630497981330,-0.040015999999999996,0.972584,-0.227896
1630497981340,-0.043798,0.9712419999999999,-0.228567
1630497981349,-0.046176999999999996,0.974109,-0.230763
1630497981359,-0.045323,0.98088,-0.237595
1630497981369,-0.045628,0.985699,-0.242414
1630497981378,-0.04514,0.988627,-0.246745
1630497981388,-0.045628,0.987041,-0.249795
1630497981397,-0.042212,0.986614,-0.252052
1630497981407,-0.040320999999999996,0.986675,-0.252113
1630497981417,-0.037759,0.9871019999999999,-0.252967
1630497981426,-0.035868,0.986614,-0.250161
1630497981436,-0.034099,0.986553,-0.246806
1630497981445,-0.033549999999999996,0.98454,-0.243512
1630497981455,-0.035136,0.979904,-0.239974
1630497981465,-0.034221,0.980209,-0.237595
1630497981474,-0.033672,0.979355,-0.235277
1630497981484,-0.034038,0.9794769999999999,-0.235033
1630497981493,-0.033854999999999996,0.979904,-0.23546
1630497981503,-0.037149,0.978196,-0.234545
1630497981513,-0.040199,0.978074,-0.235277
1630497981522,-0.042517,0.980636,-0.23649699999999999
1630497981532,-0.043432,0.9797819999999999,-0.235765
1630497981541,-0.043554,0.9797819999999999,-0.238876
1630497981551,-0.045994,0.975451,-0.240584
1630497981561,-0.046848,0.9709369999999999,-0.243207
1630497981570,-0.049532,0.9709369999999999,-0.247416
1630497981580,-0.051422999999999996,0.971364,-0.252418
1630497981589,-0.052216,0.9721569999999999,-0.254492
1630497981599,-0.053375,0.974231,-0.253699
1630497981609,-0.057218,0.97783,-0.254309
1630497981618,-0.058987,0.979294,-0.255956
1630497981628,-0.058072,0.977708,-0.252967
1630497981637,-0.05734,0.974963,-0.251198
1630497981647,-0.057096,0.969229,-0.24851399999999998
1630497981657,-0.058133,0.966423,-0.24601299999999998
1630497981666,-0.058987,0.964776,-0.24509799999999998
1630497981676,-0.056242,0.9663619999999999,-0.245525
1630497981685,-0.050813,0.971486,-0.24583
1630497981695,-0.047030999999999996,0.974658,-0.246257
1630497981705,-0.043005,0.976915,-0.246257
1630497981714,-0.040504,0.9803919999999999,-0.24662299999999998
1630497981724,-0.038064,0.982588,-0.245769
1630497981733,-0.034831,0.984601,-0.242597
1630497981743,-0.032085999999999996,0.9852719999999999,-0.23973
1630497981753,-0.030012,0.986614,-0.236314
1630497981762,-0.027389,0.987956,-0.233447
1630497981772,-0.024399999999999998,0.98942,-0.230458
1630497981781,-0.023607,0.9867969999999999,-0.228872
1630497981791,-0.023119,0.984845,-0.22691999999999998
1630497981801,-0.024278,0.984174,-0.231129
1630497981810,-0.024217,0.98393,-0.232654
1630497981820,-0.024644,0.982039,-0.23424
1630497981829,-0.027694,0.981185,-0.237046
1630497981839,-0.029158,0.97966,-0.24156
1630497981849,-0.029463,0.980758,-0.245647
1630497981858,-0.029951,0.981673,-0.252357
1630497981868,-0.031171,0.980941,-0.257481
1630497981877,-0.031232,0.980331,-0.260836
1630497981887,-0.029096999999999998,0.979294,-0.264252
1630497981897,-0.02989,0.976488,-0.262422
1630497981906,-0.027632999999999998,0.9736819999999999,-0.25882299999999997
1630497981916,-0.027267,0.972706,-0.257786
1630497981925,-0.028853,0.9709369999999999,-0.258152
1630497981935,-0.028791999999999998,0.967704,-0.258335
1630497981945,-0.028304,0.9675819999999999,-0.25821299999999997
1630497981954,-0.027572,0.966911,-0.260226
1630497981964,-0.028182,0.966179,-0.260226
1630497981973,-0.025742,0.966606,-0.260531
1630497981983,-0.025376,0.9660569999999999,-0.261446
1630497981993,-0.025986,0.964349,-0.26126299999999997
1630497982002,-0.027816,0.964166,-0.261446
1630497982012,-0.026962,0.965386,-0.259677
1630497982021,-0.028364999999999998,0.965813,-0.260409
1630497982031,-0.029585,0.965203,-0.259494
1630497982041,-0.031903,0.965996,-0.25864
1630497982050,-0.031476,0.966606,-0.25668799999999997
1630497982060,-0.031476,0.967704,-0.254858
1630497982069,-0.03172,0.970266,-0.253455
1630497982079,-0.030866,0.9724619999999999,-0.253638
1630497982089,-0.031476,0.9736819999999999,-0.252662
1630497982098,-0.030683,0.976549,-0.253211
1630497982108,-0.031537,0.978501,-0.252845
1630497982117,-0.03172,0.9794769999999999,-0.251015
1630497982127,-0.030378,0.981734,-0.249368
1630497982137,-0.028487,0.982039,-0.249978
1630497982146,-0.029463,0.979294,-0.248392
1630497982156,-0.029096999999999998,0.97966,-0.247782
1630497982165,-0.028243,0.982588,-0.248087
1630497982175,-0.028182,0.982405,-0.24729399999999999
1630497982185,-0.029951,0.9810019999999999,-0.242231
1630497982194,-0.02928,0.979843,-0.238388
1630497982204,-0.026108,0.9834419999999999,-0.239364
1630497982213,-0.022935999999999998,0.987346,-0.239669
1630497982223,-0.022509,0.987407,-0.240584
1630497982233,-0.022448,0.98576,-0.242231
1630497982242,-0.023912,0.982344,-0.24326799999999998
1630497982252,-0.02562,0.9813069999999999,-0.243512
1630497982261,-0.026657,0.97966,-0.243939
1630497982271,-0.026657,0.979416,-0.24387799999999998
1630497982281,-0.026108,0.978196,-0.244976
1630497982290,-0.027145,0.975329,-0.243939
1630497982300,-0.028731,0.97539,-0.245037
1630497982309,-0.029585,0.9761219999999999,-0.246562
1630497982319,-0.02928,0.976305,-0.247782
1630497982329,-0.030927,0.974841,-0.248392
1630497982338,-0.030683,0.976305,-0.249856
1630497982348,-0.032208,0.9752069999999999,-0.251137
1630497982357,-0.031354,0.976244,-0.250222
1630497982367,-0.032513,0.9761219999999999,-0.249856
1630497982377,-0.031232,0.973011,-0.24790399999999999
1630497982386,-0.030012,0.975146,-0.247416
1630497982396,-0.028853,0.978684,-0.249978
1630497982405,-0.027755,0.9797819999999999,-0.2501
1630497982415,-0.028304,0.976244,-0.245952
1630497982425,-0.029158,0.9752069999999999,-0.244366
1630497982434,-0.028243,0.975146,-0.24387799999999998
1630497982444,-0.027327999999999998,0.9764269999999999,-0.244427
1630497982453,-0.026291,0.977891,-0.245769
1630497982463,-0.025131999999999998,0.978196,-0.24570799999999998
1630497982473,-0.024399999999999998,0.977586,-0.244
1630497982482,-0.023241,0.977586,-0.24204799999999999
1630497982492,-0.02257,0.978074,-0.23985199999999998
1630497982501,-0.021411,0.978745,-0.238388
1630497982511,-0.019275999999999998,0.9785619999999999,-0.237595
1630497982521,-0.01891,0.9791719999999999,-0.236619
1630497982530,-0.018971,0.978684,-0.235643
1630497982540,-0.019093,0.978806,-0.235338
1630497982549,-0.01952,0.9779519999999999,-0.235033
1630497982559,-0.019581,0.97905,-0.234484
1630497982569,-0.02013,0.9788669999999999,-0.233874
1630497982578,-0.020984,0.980148,-0.23430099999999998
1630497982588,-0.021533,0.981063,-0.235521
1630497982597,-0.023241,0.981978,-0.235277
1630497982607,-0.024399999999999998,0.981185,-0.235094
1630497982617,-0.025863999999999998,0.981063,-0.234545
1630497982626,-0.026352,0.980575,-0.233935
1630497982636,-0.026595999999999998,0.981368,-0.233569
1630497982645,-0.026718,0.9816119999999999,-0.232959
1630497982655,-0.026535,0.9822219999999999,-0.23277599999999998
1630497982665,-0.027816,0.982344,-0.23241
1630497982674,-0.027023,0.981856,-0.232044
1630497982684,-0.029341,0.979355,-0.232044
1630497982693,-0.030255999999999998,0.979538,-0.23058
1630497982703,-0.030987999999999998,0.978501,-0.22997
1630497982713,-0.031903,0.97722,-0.227957
1630497982722,-0.030012,0.980209,-0.22936
1630497982732,-0.028487,0.979904,-0.22972599999999999
1630497982741,-0.02989,0.978806,-0.22942099999999999
1630497982751,-0.030622,0.982466,-0.23058
1630497982761,-0.030317,0.98637,-0.232227
1630497982770,-0.030317,0.986675,-0.228689
1630497982780,-0.03111,0.98515,-0.224602
1630497982789,-0.02989,0.985699,-0.22478499999999998
1630497982799,-0.026962,0.988322,-0.22539499999999998
1630497982809,-0.024339,0.9882,-0.226493
1630497982818,-0.022997,0.987163,-0.225578
1630497982828,-0.023485,0.9867969999999999,-0.225029
1630497982837,-0.023667999999999998,0.985516,-0.224724
1630497982847,-0.024522,0.9843569999999999,-0.222345
1630497982857,-0.023607,0.984601,-0.220393
1630497982866,-0.023302,0.986614,-0.220088
1630497982876,-0.021777,0.986126,-0.21953899999999998
1630497982885,-0.020739999999999998,0.986858,-0.220088
1630497982895,-0.020862,0.9871019999999999,-0.220332
1630497982905,-0.020739999999999998,0.98698,-0.220088
1630497982914,-0.020923,0.985028,-0.21862399999999999
1630497982924,-0.020557,0.984784,-0.220332
1630497982933,-0.020618,0.98515,-0.22082
1630497982943,-0.020435,0.984723,-0.221308
1630497982953,-0.020374,0.9840519999999999,-0.22021
1630497982962,-0.02013,0.981063,-0.21862399999999999
1630497982972,-0.021289,0.97966,-0.21984399999999998
1630497982981,-0.020374,0.983259,-0.221857
1630497982991,-0.020618,0.98637,-0.22417499999999999
1630497983001,-0.021411,0.986248,-0.222406
1630497983010,-0.022387,0.982954,-0.219966
1630497983020,-0.023241,0.9822219999999999,-0.220515
1630497983029,-0.023546,0.983015,-0.221247
1630497983039,-0.022692,0.984906,-0.22204
1630497983049,-0.021045,0.985211,-0.221857
1630497983058,-0.020435,0.985516,-0.222467
1630497983068,-0.020618,0.984113,-0.21953899999999998
1630497983077,-0.020618,0.98332,-0.21838
1630497983087,-0.019886,0.983381,-0.21801399999999999
1630497983097,-0.019581,0.9837469999999999,-0.217221
1630497983106,-0.019337,0.984174,-0.216672
1630497983116,-0.019215,0.9852719999999999,-0.217465
1630497983125,-0.020618,0.98393,-0.21862399999999999
1630497983135,-0.021777,0.983625,-0.219295
1630497983145,-0.022021,0.9843569999999999,-0.219356
1630497983154,-0.020007999999999998,0.986431,-0.219417
1630497983164,-0.019764,0.986614,-0.218258
1630497983173,-0.018971,0.98759,-0.218197
1630497983183,-0.017751,0.988261,-0.217648
1630497983193,-0.01647,0.987468,-0.21801399999999999
1630497983202,-0.017202,0.9882,-0.217892
1630497983212,-0.018178,0.987163,-0.216794
1630497983221,-0.019337,0.9849669999999999,-0.217587
1630497983231,-0.019459,0.985028,-0.218502
1630497983241,-0.019764,0.983503,-0.219112
1630497983250,-0.021106,0.983503,-0.219478
1630497983260,-0.019825,0.9834419999999999,-0.219356
1630497983269,-0.019154,0.985028,-0.219356
1630497983279,-0.018056,0.984235,-0.21838
1630497983289,-0.018422,0.983686,-0.217587
1630497983298,-0.018422,0.9864919999999999,-0.217526
1630497983308,-0.016409,0.987773,-0.216367
1630497983317,-0.01525,0.989115,-0.214659
1630497983327,-0.015799,0.988993,-0.215757
1630497983337,-0.015799,0.985394,-0.214781
1630497983346,-0.016714,0.984296,-0.216733
1630497983356,-0.016958,0.984723,-0.221918
1630497983365,-0.018117,0.984296,-0.223382
1630497983375,-0.020252,0.98088,-0.219783
1630497983385,-0.020984,0.9797819999999999,-0.216428
1630497983394,-0.018543999999999998,0.983015,-0.215391
1630497983404,-0.015921,0.985394,-0.21581799999999998
1630497983413,-0.013603,0.98759,-0.21459799999999998
1630497983423,-0.01281,0.988383,-0.215879
1630497983433,-0.013359,0.988566,-0.21429299999999998
1630497983442,-0.012993,0.988383,-0.212341
1630497983452,-0.013297999999999999,0.986614,-0.212646
1630497983461,-0.013115,0.986614,-0.21185299999999999
1630497983471,-0.013969,0.985394,-0.212646
1630497983481,-0.014091,0.985699,-0.213622
1630497983490,-0.015006,0.9858819999999999,-0.214476
1630497983500,-0.015067,0.9858819999999999,-0.214232
1630497983509,-0.014395999999999999,0.986126,-0.214537
1630497983519,-0.013847,0.987834,-0.214354
1630497983529,-0.013054,0.988261,-0.214476
1630497983538,-0.012322,0.987346,-0.214842
1630497983548,-0.012871,0.987163,-0.21490299999999998
1630497983557,-0.013115,0.987346,-0.21429299999999998
1630497983567,-0.013054,0.986126,-0.21337799999999998
1630497983577,-0.013663999999999999,0.982405,-0.213012
1630497983586,-0.014152,0.983625,-0.21429299999999998
1630497983596,-0.013603,0.985211,-0.216672
1630497983605,-0.013176,0.986736,-0.21984399999999998
1630497983615,-0.014152,0.986553,-0.21838
1630497983625,-0.013542,0.9855769999999999,-0.21716
1630497983634,-0.012871,0.986065,-0.216367
1630497983644,-0.012139,0.984601,-0.215452
1630497983653,-0.01159,0.985333,-0.21594
1630497983663,-0.012199999999999999,0.98515,-0.215452
1630497983673,-0.012565999999999999,0.984845,-0.216855
1630497983682,-0.013725,0.983686,-0.21862399999999999
1630497983692,-0.014029999999999999,0.983564,-0.220332
1630497983701,-0.013603,0.983686,-0.220942
1630497983711,-0.013663999999999999,0.984418,-0.219966
1630497983721,-0.012322,0.983625,-0.219112
1630497983730,-0.012871,0.984296,-0.218685
1630497983740,-0.012078,0.985211,-0.217404
1630497983749,-0.011833999999999999,0.985333,-0.216855
1630497983759,-0.011224,0.9840519999999999,-0.215757
1630497983769,-0.011224,0.984784,-0.21612299999999998
1630497983778,-0.011956,0.984479,-0.216611
1630497983788,-0.012322,0.983564,-0.218258
1630497983797,-0.012565999999999999,0.983503,-0.218868
1630497983807,-0.012993,0.983869,-0.220027
1630497983817,-0.013847,0.984845,-0.220393
1630497983826,-0.013663999999999999,0.985638,-0.220271
1630497983836,-0.013115,0.9861869999999999,-0.218868
1630497983845,-0.013115,0.985943,-0.218075
1630497983855,-0.013542,0.984723,-0.218258
1630497983865,-0.013359,0.984174,-0.217587
1630497983874,-0.014335,0.98393,-0.21777
1630497983884,-0.014274,0.984418,-0.217831
1630497983893,-0.014213,0.984906,-0.21862399999999999
1630497983903,-0.015189,0.983564,-0.21899
1630497983913,-0.016226,0.981551,-0.22075899999999998
1630497983922,-0.016409,0.982039,-0.222528
1630497983932,-0.015921,0.983625,-0.22326
1630497983941,-0.015677,0.984601,-0.222589
1630497983951,-0.013847,0.986065,-0.22356499999999999
1630497983961,-0.014274,0.98393,-0.221918
1630497983970,-0.015555,0.982039,-0.22167399999999998
1630497983980,-0.014213,0.984479,-0.223504
1630497983989,-0.014213,0.985394,-0.225944
1630497983999,-0.014395999999999999,0.983015,-0.222467
1630497984009,-0.016897,0.98027,-0.217038
1630497984018,-0.014823,0.981856,-0.216001
1630497984028,-0.012383,0.984479,-0.217526
1630497984037,-0.010369999999999999,0.987346,-0.21923399999999998
1630497984047,-0.01098,0.987224,-0.220271
1630497984057,-0.011773,0.986309,-0.221552
1630497984066,-0.012322,0.984601,-0.22106399999999998
1630497984076,-0.012199999999999999,0.9849669999999999,-0.217282
1630497984085,-0.011956,0.985455,-0.215574
1630497984095,-0.011041,0.986858,-0.214049
1630497984105,-0.009637999999999999,0.987895,-0.21411
1630497984114,-0.009211,0.987895,-0.214476
1630497984124,-0.009516,0.9871019999999999,-0.21551299999999998
1630497984133,-0.010797,0.985516,-0.216672
1630497984143,-0.012383,0.984113,-0.21862399999999999
1630497984153,-0.013603,0.9834419999999999,-0.219966
1630497984162,-0.015189,0.981063,-0.219966
1630497984172,-0.015738,0.980636,-0.220942
1630497984181,-0.01586,0.982466,-0.219783
1630497984191,-0.01525,0.983869,-0.218075
1630497984201,-0.014274,0.984113,-0.216245
1630497984210,-0.015006,0.98576,-0.216672
1630497984220,-0.014579,0.987468,-0.218502
1630497984229,-0.014579,0.987041,-0.220576
1630497984239,-0.01647,0.984845,-0.218685
1630497984249,-0.017324,0.9843569999999999,-0.21777
1630497984258,-0.016347999999999998,0.9852719999999999,-0.21838
1630497984268,-0.016531,0.9852719999999999,-0.21770899999999999
1630497984277,-0.015677,0.9855769999999999,-0.21716
1630497984287,-0.014579,0.9855769999999999,-0.217526
1630497984297,-0.014335,0.986553,-0.217221
1630497984306,-0.013786,0.985699,-0.217038
1630497984316,-0.012931999999999999,0.985455,-0.216306
1630497984325,-0.013786,0.984235,-0.215696
1630497984335,-0.013786,0.983991,-0.216001
1630497984345,-0.013725,0.983198,-0.215757
1630497984354,-0.013786,0.983503,-0.21551299999999998
1630497984364,-0.014029999999999999,0.98454,-0.21520799999999998
1630497984373,-0.013542,0.987041,-0.215879
1630497984383,-0.012383,0.987285,-0.214232
1630497984393,-0.012199999999999999,0.987041,-0.21307299999999998
1630497984402,-0.012261,0.988078,-0.21307299999999998
1630497984412,-0.011467999999999999,0.987956,-0.214415
1630497984421,-0.012261,0.988322,-0.214842
1630497984431,-0.012444,0.988749,-0.215635
1630497984441,-0.012688,0.988993,-0.215574
1630497984450,-0.013969,0.986736,-0.216062
1630497984460,-0.014823,0.984479,-0.215635
1630497984469,-0.016714,0.98332,-0.216367
1630497984479,-0.017873,0.982039,-0.216916
1630497984489,-0.018788,0.980941,-0.216611
1630497984498,-0.01769,0.983076,-0.217526
1630497984508,-0.016714,0.985455,-0.21801399999999999
1630497984517,-0.016226,0.986248,-0.218685
1630497984527,-0.016897,0.986919,-0.217648
1630497984537,-0.017079999999999998,0.98759,-0.216611
1630497984546,-0.016287,0.9871019999999999,-0.21655
1630497984556,-0.016897,0.986553,-0.216428
1630497984565,-0.016653,0.984906,-0.216001
1630497984575,-0.017019,0.983259,-0.21801399999999999
1630497984585,-0.016836,0.983869,-0.218746
1630497984594,-0.017324,0.985089,-0.218441
1630497984604,-0.015555,0.9840519999999999,-0.216611
1630497984613,-0.013969,0.985089,-0.217953
1630497984623,-0.014213,0.9813069999999999,-0.217404
1630497984633,-0.015555,0.981795,-0.21862399999999999
1630497984642,-0.014091,0.98515,-0.221003
1630497984652,-0.014091,0.986553,-0.223077
1630497984661,-0.015006,0.983564,-0.217648
1630497984671,-0.016897,0.98088,-0.212646
1630497984681,-0.016104,0.983381,-0.21289
1630497984690,-0.012261,0.98637,-0.213805
1630497984700,-0.009333,0.9888709999999999,-0.21533
1630497984709,-0.008418,0.988688,-0.21581799999999998
1630497984719,-0.009394,0.988261,-0.215696
1630497984729,-0.009577,0.987163,-0.213012
1630497984738,-0.010431,0.987163,-0.210694
1630497984748,-0.011224,0.987163,-0.210023
1630497984757,-0.009516,0.986614,-0.20935199999999998
1630497984767,-0.010126,0.987041,-0.210206
1630497984777,-0.009516,0.987285,-0.211182
1630497984786,-0.010248,0.987346,-0.212036
1630497984796,-0.009821,0.986858,-0.212402
1630497984805,-0.009637999999999999,0.986919,-0.212829
1630497984815,-0.010003999999999999,0.986309,-0.212097
1630497984825,-0.010675,0.9861869999999999,-0.2135
1630497984834,-0.010431,0.985699,-0.212524
1630497984844,-0.010614,0.985638,-0.210755
1630497984853,-0.010797,0.982954,-0.210816
1630497984863,-0.010797,0.9843569999999999,-0.211487
1630497984873,-0.009455,0.987285,-0.214842
1630497984882,-0.009089,0.987895,-0.216672
1630497984892,-0.009943,0.985638,-0.21289
1630497984901,-0.010187,0.9849669999999999,-0.21106
1630497984911,-0.009028,0.986004,-0.208559
1630497984921,-0.008723,0.987407,-0.209596
1630497984930,-0.00793,0.988566,-0.20923
1630497984940,-0.007808,0.988932,-0.210023
1630497984949,-0.007076,0.989359,-0.210023
1630497984959,-0.006954,0.987529,-0.208986
1630497984969,-0.006954,0.986858,-0.20904699999999998
1630497984978,-0.0071979999999999995,0.986675,-0.208864
1630497984988,-0.0075639999999999995,0.986614,-0.209413
1630497984997,-0.007625,0.986736,-0.20965699999999998
1630497985007,-0.008052,0.987163,-0.210206
1630497985017,-0.008479,0.986858,-0.20984
1630497985026,-0.008357,0.9852719999999999,-0.20862
1630497985036,-0.008601,0.985821,-0.20904699999999998
1630497985045,-0.009211,0.986919,-0.20874199999999998
1630497985055,-0.009516,0.986858,-0.20923
1630497985065,-0.008905999999999999,0.988017,-0.209474
1630497985074,-0.008113,0.987651,-0.209474
1630497985084,-0.008905999999999999,0.987224,-0.209413
1630497985093,-0.009637999999999999,0.987163,-0.20923
1630497985103,-0.009699,0.987834,-0.209291
1630497985113,-0.00976,0.98759,-0.209535
1630497985122,-0.009516,0.986736,-0.208986
1630497985132,-0.010431,0.986736,-0.208071
1630497985141,-0.009637999999999999,0.987834,-0.208498
1630497985151,-0.010065,0.987224,-0.208803
1630497985161,-0.010126,0.9867969999999999,-0.208498
1630497985170,-0.010369999999999999,0.987163,-0.206973
1630497985180,-0.010675,0.986614,-0.207095
1630497985189,-0.009699,0.986248,-0.20813199999999998
1630497985199,-0.011407,0.98637,-0.208254
1630497985209,-0.011224,0.986614,-0.20801
1630497985218,-0.011895,0.988566,-0.20996199999999998
1630497985228,-0.011833999999999999,0.988383,-0.210084
1630497985237,-0.012261,0.988383,-0.210999
1630497985247,-0.012931999999999999,0.989054,-0.209779
1630497985257,-0.012627,0.98942,-0.207766
1630497985266,-0.012627,0.990152,-0.2074
1630497985276,-0.010431,0.992409,-0.209535
1630497985285,-0.010187,0.9922259999999999,-0.211304
1630497985295,-0.011467999999999999,0.990823,-0.210755
1630497985305,-0.012322,0.9900909999999999,-0.209169
1630497985314,-0.012017,0.990213,-0.209596
1630497985324,-0.013297999999999999,0.98881,-0.206668
1630497985333,-0.013786,0.987041,-0.203923
1630497985343,-0.011163,0.988688,-0.20618
1630497985353,-0.008845,0.990152,-0.20813199999999998
1630497985362,-0.009028,0.9888709999999999,-0.207949
1630497985372,-0.009699,0.988078,-0.208559
1630497985381,-0.009577,0.987773,-0.20801
1630497985391,-0.011407,0.986614,-0.208315
1630497985401,-0.010553,0.987834,-0.208254
1630497985410,-0.008967,0.988444,-0.208071
1630497985420,-0.008539999999999999,0.987651,-0.206668
1630497985429,-0.008723,0.985455,-0.20752199999999998
1630497985439,-0.008662,0.984479,-0.208376
1630497985449,-0.008357,0.9840519999999999,-0.208376
1630497985458,-0.008113,0.984601,-0.20843699999999998
1630497985468,-0.0075639999999999995,0.983381,-0.20935199999999998
1630497985477,-0.007137,0.982893,-0.208376
1630497985487,-0.007137,0.982954,-0.207095
1630497985497,-0.00793,0.983686,-0.205753
1630497985506,-0.006588,0.980819,-0.206729
1630497985516,-0.007076,0.983015,-0.20752199999999998
1630497985525,-0.006527,0.987346,-0.20923
1630497985535,-0.006222,0.990335,-0.212646
1630497985545,-0.007503,0.988688,-0.20984
1630497985554,-0.007991,0.988566,-0.207339
1630497985564,-0.007808,0.988566,-0.20782699999999998
1630497985573,-0.00732,0.988749,-0.207156
1630497985583,-0.006771,0.989298,-0.205143
1630497985593,-0.00671,0.9897859999999999,-0.2074
1630497985602,-0.006039,0.989969,-0.20801
1630497985612,-0.0068319999999999995,0.989847,-0.20965699999999998
1630497985621,-0.008173999999999999,0.988749,-0.210023
1630497985631,-0.008784,0.988261,-0.20843699999999998
1630497985641,-0.00976,0.986004,-0.209413
1630497985650,-0.010065,0.987163,-0.208254
1630497985660,-0.009577,0.98881,-0.20904699999999998
1630497985669,-0.010492,0.989664,-0.20984
1630497985679,-0.009943,0.989603,-0.20965699999999998
1630497985689,-0.01098,0.990213,-0.20996199999999998
1630497985698,-0.010797,0.989542,-0.21185299999999999
1630497985708,-0.01159,0.989969,-0.21215799999999999
1630497985717,-0.011529,0.989298,-0.212097
1630497985727,-0.012322,0.988566,-0.21368299999999998
1630497985737,-0.012871,0.987346,-0.214476
1630497985746,-0.012505,0.986248,-0.21472
1630497985756,-0.013663999999999999,0.984174,-0.215574
1630497985765,-0.014029999999999999,0.983808,-0.21655
1630497985775,-0.013725,0.982954,-0.217465
1630497985785,-0.013725,0.98271,-0.218258
1630497985794,-0.012505,0.983076,-0.218563
1630497985804,-0.012322,0.983198,-0.217953
1630497985813,-0.012505,0.982893,-0.216794
1630497985823,-0.010369999999999999,0.982344,-0.215086
1630497985833,-0.010735999999999999,0.982039,-0.21472
1630497985842,-0.01098,0.982588,-0.214964
1630497985852,-0.010735999999999999,0.983381,-0.21533
1630497985861,-0.008662,0.984479,-0.21472
1630497985871,-0.008479,0.9843569999999999,-0.21411
1630497985881,-0.008723,0.983503,-0.213256
1630497985890,-0.007442,0.984235,-0.213622
1630497985900,-0.00671,0.986004,-0.21307299999999998
1630497985909,-0.0060999999999999995,0.9871019999999999,-0.210694
1630497985919,-0.0059169999999999995,0.988261,-0.20996199999999998
1630497985929,-0.0044529999999999995,0.98698,-0.210145
1630497985938,-0.0046359999999999995,0.985638,-0.21045
1630497985948,-0.00549,0.986309,-0.212097
1630497985957,-0.0057339999999999995,0.988505,-0.214659
1630497985967,-0.005612,0.987712,-0.21337799999999998
1630497985977,-0.008723,0.984479,-0.2074
1630497985986,-0.008113,0.98515,-0.206729
1630497985996,-0.004758,0.988505,-0.207949
1630497986005,-0.003355,0.992287,-0.209169
1630497986015,-0.00366,0.9928359999999999,-0.208559
1630497986025,-0.00244,0.992104,-0.208376
1630497986034,-0.00366,0.989969,-0.208071
1630497986044,-0.004392,0.988932,-0.207888
1630497986053,-0.004758,0.988627,-0.2074
1630497986063,-0.0055509999999999995,0.987529,-0.206485
1630497986073,-0.006039,0.986675,-0.206241
1630497986082,-0.006222,0.986736,-0.206241
1630497986092,-0.006039,0.986553,-0.20813199999999998
1630497986101,-0.006039,0.98576,-0.209474
1630497986111,-0.0071979999999999995,0.9864919999999999,-0.210389
1630497986121,-0.0062829999999999995,0.986919,-0.210084
1630497986130,-0.007137,0.986065,-0.210694
1630497986140,-0.00732,0.983991,-0.210328
1630497986149,-0.006893,0.983869,-0.209474
1630497986159,-0.00671,0.982771,-0.208071
1630497986169,-0.0075639999999999995,0.982039,-0.208071
1630497986178,-0.0060999999999999995,0.985028,-0.20843699999999998
1630497986188,-0.0059169999999999995,0.986431,-0.21045
1630497986197,-0.006344,0.987285,-0.209718
1630497986207,-0.006588,0.985516,-0.206729
1630497986217,-0.007503,0.9849669999999999,-0.207339
1630497986226,-0.006344,0.986919,-0.207644
1630497986236,-0.0042699999999999995,0.988383,-0.206851
1630497986245,-0.003355,0.989725,-0.206424
1630497986255,-0.003538,0.9888709999999999,-0.205326
1630497986265,-0.004026,0.989054,-0.205204
1630497986274,-0.003538,0.988505,-0.204594
1630497986284,-0.003904,0.987895,-0.204655
1630497986293,-0.0032329999999999998,0.987529,-0.204838
1630497986303,-0.004758,0.988078,-0.203618
1630497986313,-0.0035989999999999998,0.988383,-0.203923
1630497986322,-0.004026,0.989969,-0.204228
1630497986332,-0.004392,0.9903959999999999,-0.204899
1630497986341,-0.004392,0.990762,-0.206058
1630497986351,-0.004026,0.990945,-0.205448
1630497986361,-0.003355,0.9907009999999999,-0.20599699999999999
1630497986370,-0.004514,0.9907009999999999,-0.206485
1630497986380,-0.004514,0.9910059999999999,-0.206668
1630497986389,-0.005124,0.989298,-0.206363
1630497986399,-0.005246,0.988688,-0.206363
1630497986409,-0.0046359999999999995,0.988383,-0.207461
1630497986418,-0.0059169999999999995,0.988444,-0.20752199999999998
1630497986428,-0.005429,0.988505,-0.20801
1630497986437,-0.006039,0.987468,-0.20874199999999998
1630497986447,-0.0053679999999999995,0.987041,-0.208254
1630497986457,-0.004331,0.9871019999999999,-0.207461
1630497986466,-0.004026,0.987224,-0.206485
1630497986476,-0.004148,0.987407,-0.206668
1630497986485,-0.0048189999999999995,0.98698,-0.206363
1630497986495,-0.00366,0.987041,-0.206668
1630497986505,-0.003538,0.986431,-0.206546
1630497986514,-0.003111,0.985516,-0.206546
1630497986524,-0.0040869999999999995,0.984906,-0.206851
1630497986533,-0.0035989999999999998,0.9861869999999999,-0.207461
1630497986543,-0.0040869999999999995,0.98637,-0.207644
1630497986553,-0.004148,0.986919,-0.206424
1630497986562,-0.003477,0.98698,-0.207461
1630497986572,-0.002806,0.986309,-0.208071
1630497986581,-0.003477,0.985089,-0.209474
1630497986591,-0.003172,0.986248,-0.210328
1630497986601,-0.002989,0.987773,-0.21106
1630497986610,-0.002928,0.986736,-0.207766
1630497986620,-0.004941,0.983198,-0.20288599999999998
1630497986629,-0.0034159999999999998,0.9843569999999999,-0.202642
1630497986639,-0.000915,0.987712,-0.203984
1630497986649,0.0,0.9910059999999999,-0.205936
1630497986658,0.000976,0.991738,-0.205936
1630497986668,0.000183,0.991555,-0.206973
1630497986677,0.000183,0.9913109999999999,-0.205326
1630497986687,0.0006709999999999999,0.9910059999999999,-0.204167
1630497986697,0.0008539999999999999,0.9903959999999999,-0.202215
1630497986706,0.000244,0.990213,-0.201178
1630497986716,0.000976,0.9897859999999999,-0.200934
1630497986725,0.000488,0.989908,-0.202154
1630497986735,0.000366,0.989237,-0.204167
1630497986745,-0.000488,0.988566,-0.205875
1630497986754,-0.0015249999999999999,0.9882,-0.20782699999999998
1630497986764,-0.002379,0.986675,-0.20801
1630497986773,-0.0030499999999999998,0.985943,-0.208193
1630497986783,-0.002196,0.986126,-0.2074
1630497986793,-0.002623,0.986004,-0.20721699999999998
1630497986802,-0.0032329999999999998,0.984906,-0.20679
1630497986812,-0.002989,0.984601,-0.206973
1630497986821,-0.001769,0.988261,-0.20843699999999998
1630497986831,-0.00244,0.98881,-0.211426
1630497986841,-0.0035989999999999998,0.988078,-0.20923
1630497986850,-0.004697,0.985455,-0.2074
1630497986860,-0.0051849999999999995,0.986126,-0.2074
1630497986869,-0.004148,0.986675,-0.207705
1630497986879,-0.004026,0.987285,-0.207156
1630497986889,-0.003355,0.987468,-0.208559
1630497986898,-0.004209,0.988139,-0.209413
1630497986908,-0.003355,0.988139,-0.210084
1630497986917,-0.004026,0.987346,-0.209474
1630497986927,-0.004148,0.986553,-0.20843699999999998
1630497986937,-0.003904,0.985699,-0.208986
1630497986946,-0.005246,0.984784,-0.209901
1630497986956,-0.005612,0.985516,-0.210206
1630497986965,-0.005978,0.985333,-0.210877
1630497986975,-0.0053679999999999995,0.985638,-0.211182
1630497986985,-0.0035989999999999998,0.987956,-0.211792
1630497986994,-0.004697,0.987285,-0.210572
1630497987004,-0.004392,0.986004,-0.208071
1630497987013,-0.0035989999999999998,0.986675,-0.208193
1630497987023,-0.004026,0.987407,-0.20843699999999998
1630497987033,-0.0034159999999999998,0.988261,-0.20862
1630497987042,-0.0037819999999999998,0.9894809999999999,-0.208986
1630497987052,-0.004331,0.988444,-0.209291
1630497987061,-0.005612,0.988688,-0.20923
1630497987071,-0.0060999999999999995,0.988261,-0.208986
1630497987081,-0.0051849999999999995,0.988566,-0.20874199999999998
1630497987090,-0.005978,0.988688,-0.20843699999999998
1630497987100,-0.005429,0.988139,-0.208193
1630497987109,-0.0059169999999999995,0.987468,-0.20782699999999998
1630497987119,-0.007259,0.9871019999999999,-0.207583
1630497987129,-0.006771,0.986309,-0.20752199999999998
1630497987138,-0.005978,0.986004,-0.208071
1630497987148,-0.006039,0.986858,-0.20782699999999998
1630497987157,-0.0068319999999999995,0.985089,-0.20904699999999998
1630497987167,-0.007869,0.987285,-0.209169
1630497987177,-0.00732,0.987224,-0.208376
1630497987186,-0.0070149999999999995,0.98698,-0.20679
1630497987196,-0.0066489999999999995,0.986919,-0.207034
1630497987205,-0.006954,0.985455,-0.207034
1630497987215,-0.006527,0.984235,-0.208925
1630497987225,-0.005856,0.987407,-0.210877
1630497987234,-0.00549,0.988322,-0.21228
1630497987244,-0.0070149999999999995,0.985089,-0.208498
1630497987253,-0.008479,0.982954,-0.202459
1630497987263,-0.0066489999999999995,0.9846619999999999,-0.201849
1630497987273,-0.004575,0.98942,-0.203679
1630497987282,-0.0018909999999999999,0.990579,-0.204594
1630497987292,-0.0013419999999999999,0.990518,-0.205082
1630497987301,-0.002806,0.9897859999999999,-0.205509
1630497987311,-0.003355,0.989664,-0.204594
1630497987321,-0.00244,0.9888709999999999,-0.202398
1630497987330,-0.0017079999999999999,0.98942,-0.199897
1630497987340,-0.001952,0.989908,-0.199531
1630497987349,-0.00122,0.989054,-0.199409
1630497987359,-0.00122,0.989542,-0.200995
1630497987369,-0.002745,0.989237,-0.202459
1630497987378,-0.001586,0.989237,-0.20313
1630497987388,-0.00244,0.989054,-0.203252
1630497987397,-0.002928,0.988566,-0.20319099999999998
1630497987407,-0.00366,0.98759,-0.203008
1630497987417,-0.003721,0.987956,-0.202642
1630497987426,-0.002928,0.987346,-0.201483
1630497987436,-0.002989,0.985516,-0.20197099999999998
1630497987445,-0.0030499999999999998,0.9882,-0.202703
1630497987455,-0.003477,0.9903959999999999,-0.205448
1630497987465,-0.0030499999999999998,0.990945,-0.20630199999999999
1630497987474,-0.004575,0.987346,-0.20252
1630497987484,-0.004575,0.986919,-0.201849
1630497987493,-0.0048189999999999995,0.987651,-0.202459
1630497987503,-0.003843,0.9888709999999999,-0.202032
1630497987513,-0.003172,0.989908,-0.20410599999999998
1630497987522,-0.002623,0.989542,-0.204838
1630497987532,-0.003843,0.989908,-0.204594
1630497987541,-0.004514,0.988078,-0.204167
1630497987551,-0.005307,0.98698,-0.203008
1630497987561,-0.0051849999999999995,0.987651,-0.20349599999999998
1630497987570,-0.0046359999999999995,0.987712,-0.202947
1630497987580,-0.004331,0.9882,-0.203252
1630497987589,-0.004026,0.989115,-0.203252
1630497987599,-0.004148,0.988444,-0.203679
1630497987609,-0.004514,0.988322,-0.203557
1630497987618,-0.005063,0.988078,-0.203618
1630497987628,-0.0053679999999999995,0.988688,-0.204411
1630497987637,-0.00488,0.987895,-0.205082
1630497987647,-0.00488,0.9882,-0.205448
1630497987657,-0.0046359999999999995,0.988017,-0.20313
1630497987666,-0.005673,0.987773,-0.203435
1630497987676,-0.004392,0.989115,-0.202337
1630497987685,-0.004575,0.989908,-0.202337
1630497987695,-0.0044529999999999995,0.9897859999999999,-0.202032
1630497987705,-0.0053679999999999995,0.989969,-0.201788
1630497987714,-0.005063,0.98881,-0.201605
1630497987724,-0.004575,0.9888709999999999,-0.202337
1630497987733,-0.005856,0.987956,-0.202093
1630497987743,-0.006771,0.987956,-0.202398
1630497987753,-0.006039,0.988078,-0.20313
1630497987762,-0.006588,0.987651,-0.203252
1630497987772,-0.006527,0.987834,-0.203984
1630497987781,-0.007808,0.988322,-0.203984
1630497987791,-0.007137,0.987041,-0.20227599999999998
1630497987801,-0.0070149999999999995,0.986065,-0.20008
1630497987810,-0.0059169999999999995,0.988322,-0.20075099999999999
1630497987820,-0.0053679999999999995,0.9882,-0.203008
1630497987829,-0.0053679999999999995,0.987956,-0.204899
1630497987839,-0.006344,0.988566,-0.204838
1630497987849,-0.00732,0.9903959999999999,-0.205753
1630497987858,-0.008539999999999999,0.990274,-0.203252
1630497987868,-0.009394,0.986919,-0.198616
1630497987877,-0.006588,0.988688,-0.199104
1630497987887,-0.003477,0.992897,-0.200202
1630497987897,-0.0023179999999999997,0.992958,-0.201239
1630497987906,-0.003355,0.991372,-0.200507
1630497987916,-0.003355,0.989725,-0.199348
1630497987925,-0.0034159999999999998,0.9897859999999999,-0.199897
1630497987935,-0.003721,0.9891759999999999,-0.199348
1630497987945,-0.003477,0.990152,-0.198799
1630497987954,-0.003172,0.9891759999999999,-0.198555
1630497987964,-0.0025009999999999998,0.988139,-0.198128
1630497987973,-0.0026839999999999998,0.987956,-0.197762
1630497987983,-0.003538,0.988322,-0.199043
1630497987993,-0.00366,0.988078,-0.199226
1630497988002,-0.0032329999999999998,0.98698,-0.19886
1630497988012,-0.0032329999999999998,0.987651,-0.199226
1630497988021,-0.003172,0.988139,-0.199043
1630497988031,-0.0035989999999999998,0.9888709999999999,-0.196969
1630497988041,-0.004148,0.987468,-0.197762
1630497988050,-0.003843,0.987773,-0.198616
1630497988060,-0.004148,0.990518,-0.199714
1630497988069,-0.0035989999999999998,0.991677,-0.202032
1630497988079,-0.0040869999999999995,0.9903959999999999,-0.199714
1630497988089,-0.0050019999999999995,0.987346,-0.197274
1630497988098,-0.0053679999999999995,0.98698,-0.197396
1630497988108,-0.005124,0.987407,-0.197091
1630497988117,-0.004514,0.987834,-0.198555
1630497988127,-0.003721,0.989237,-0.197396
1630497988137,-0.0023179999999999997,0.990213,-0.198189
1630497988146,-0.003172,0.9907009999999999,-0.198189
1630497988156,-0.002928,0.9907009999999999,-0.19763999999999998
1630497988165,-0.0034159999999999998,0.9910059999999999,-0.19733499999999998
1630497988175,-0.00366,0.989908,-0.196603
1630497988185,-0.004026,0.989725,-0.197701
1630497988194,-0.0046359999999999995,0.989237,-0.19825
1630497988204,-0.004514,0.99003,-0.198982
1630497988213,-0.0055509999999999995,0.990945,-0.199592
1630497988223,-0.00549,0.990579,-0.200019
1630497988233,-0.00549,0.99064,-0.200507
1630497988242,-0.008173999999999999,0.990213,-0.199104
1630497988252,-0.0070149999999999995,0.989359,-0.200507
1630497988261,-0.007137,0.990152,-0.199592
1630497988271,-0.0070149999999999995,0.990518,-0.200568
1630497988281,-0.006588,0.99064,-0.20008
1630497988290,-0.007503,0.990823,-0.199958
1630497988300,-0.007991,0.9897859999999999,-0.199714
1630497988309,-0.008113,0.989359,-0.199165
1630497988319,-0.008784,0.989237,-0.198555
1630497988329,-0.0077469999999999995,0.98942,-0.199104
1630497988338,-0.009089,0.988993,-0.198799
1630497988348,-0.008967,0.990152,-0.198738
1630497988357,-0.009028,0.9891759999999999,-0.200263
1630497988367,-0.009394,0.988322,-0.20069
1630497988377,-0.010248,0.987407,-0.200873
1630497988386,-0.010187,0.988627,-0.20075099999999999
1630497988396,-0.010553,0.988261,-0.199958
1630497988405,-0.010369999999999999,0.988444,-0.199287
1630497988415,-0.010675,0.989969,-0.20105599999999998
1630497988425,-0.009882,0.988139,-0.202703
1630497988434,-0.011285,0.9864919999999999,-0.203618
1630497988444,-0.011833999999999999,0.988688,-0.204899
1630497988453,-0.012199999999999999,0.989603,-0.205265
1630497988463,-0.014091,0.986736,-0.200568
1630497988473,-0.013969,0.9846619999999999,-0.196298
1630497988482,-0.011224,0.987895,-0.197762
1630497988492,-0.008662,0.990823,-0.198738
1630497988501,-0.007991,0.991372,-0.200202
1630497988511,-0.008418,0.989847,-0.199348
1630497988521,-0.008479,0.990457,-0.198616
1630497988530,-0.007625,0.990518,-0.19794499999999998
1630497988540,-0.008052,0.991677,-0.19672499999999998
1630497988549,-0.007991,0.992592,-0.19550499999999998
1630497988559,-0.007991,0.993568,-0.195871
1630497988569,-0.008539999999999999,0.992348,-0.19550499999999998
1630497988578,-0.009089,0.991189,-0.196542
1630497988588,-0.009516,0.990335,-0.197823
1630497988597,-0.00915,0.989298,-0.197884
1630497988607,-0.010065,0.989115,-0.199226
1630497988617,-0.010309,0.988139,-0.20008
1630497988626,-0.010492,0.988749,-0.200385
1630497988636,-0.009882,0.988566,-0.198799
1630497988645,-0.010431,0.986309,-0.19947
1630497988655,-0.010858,0.9858819999999999,-0.199287
1630497988665,-0.010309,0.98942,-0.20044599999999999
1630497988674,-0.010003999999999999,0.991555,-0.202459
1630497988684,-0.009821,0.991494,-0.200873
1630497988693,-0.010797,0.9891759999999999,-0.197884
1630497988703,-0.010675,0.988993,-0.197457
1630497988713,-0.011224,0.989908,-0.19702999999999998
1630497988722,-0.010553,0.990457,-0.198921
1630497988732,-0.010248,0.9903959999999999,-0.199775
1630497988741,-0.01159,0.988932,-0.201605
1630497988751,-0.013237,0.9888709999999999,-0.202947
1630497988761,-0.014029999999999999,0.988688,-0.203862
1630497988770,-0.014579,0.99003,-0.203435
1630497988780,-0.014579,0.9891759999999999,-0.203557
1630497988789,-0.012871,0.988322,-0.203435
1630497988799,-0.014761999999999999,0.988932,-0.205021
1630497988809,-0.014701,0.988322,-0.20496
1630497988818,-0.015493999999999999,0.987163,-0.205204
1630497988828,-0.016104,0.9849669999999999,-0.205082
1630497988837,-0.016958,0.984296,-0.20630199999999999
1630497988847,-0.017019,0.983503,-0.207095
1630497988857,-0.016714,0.983564,-0.206363
1630497988866,-0.016958,0.983503,-0.206424
1630497988876,-0.017873,0.984418,-0.206729
1630497988885,-0.018605,0.984113,-0.206363
1630497988895,-0.018117,0.984906,-0.207156
1630497988905,-0.018971,0.98454,-0.20721699999999998
1630497988914,-0.018666,0.9852719999999999,-0.20679
1630497988924,-0.018849,0.986858,-0.206119
1630497988933,-0.018849,0.986919,-0.20691199999999998
1630497988943,-0.019947,0.988078,-0.206729
1630497988953,-0.019459,0.987712,-0.207705
1630497988962,-0.020007999999999998,0.987224,-0.207034
1630497988972,-0.019337,0.985211,-0.20679
1630497988981,-0.021045,0.985943,-0.207949
1630497988991,-0.019825,0.987224,-0.207156
1630497989001,-0.020007999999999998,0.987468,-0.207339
1630497989010,-0.020374,0.987895,-0.20935199999999998
1630497989020,-0.020496,0.986614,-0.21045
1630497989029,-0.021167,0.9846619999999999,-0.210633
1630497989039,-0.020191,0.986675,-0.212097
1630497989049,-0.018727,0.988566,-0.214476
1630497989058,-0.019398,0.98759,-0.21276799999999998
1630497989068,-0.020374,0.983076,-0.204594
1630497989077,-0.019886,0.983198,-0.20313
1630497989087,-0.017934,0.987285,-0.20496
1630497989097,-0.01525,0.989847,-0.206973
1630497989106,-0.014579,0.990518,-0.206546
1630497989116,-0.014335,0.99003,-0.20660699999999999
1630497989125,-0.014761999999999999,0.989908,-0.205265
1630497989135,-0.014761999999999999,0.98942,-0.204289
1630497989145,-0.014395999999999999,0.99003,-0.202337
1630497989154,-0.013297999999999999,0.990335,-0.2013
1630497989164,-0.013481,0.990762,-0.201788
1630497989173,-0.012931999999999999,0.9891759999999999,-0.201788
1630497989183,-0.013176,0.988932,-0.202642
1630497989193,-0.013481,0.988261,-0.204228
1630497989202,-0.014274,0.987041,-0.205509
1630497989212,-0.015738,0.985211,-0.205326
1630497989221,-0.016042999999999998,0.985028,-0.204899
1630497989231,-0.015677,0.9843569999999999,-0.205265
1630497989241,-0.016104,0.985028,-0.204777
1630497989250,-0.014395999999999999,0.984784,-0.203374
1630497989260,-0.014518,0.984845,-0.202154
1630497989269,-0.012931999999999999,0.987834,-0.203374
1630497989279,-0.013542,0.9907009999999999,-0.205021
1630497989289,-0.014213,0.98942,-0.20557
1630497989298,-0.015493999999999999,0.98698,-0.201849
1630497989308,-0.015982,0.987468,-0.2013
1630497989317,-0.015006,0.988627,-0.201239
1630497989327,-0.01464,0.990274,-0.201788
1630497989337,-0.013297999999999999,0.9907009999999999,-0.20075099999999999
1630497989346,-0.012931999999999999,0.990518,-0.200385
1630497989356,-0.014029999999999999,0.989908,-0.199897
1630497989365,-0.013908,0.989542,-0.20008
1630497989375,-0.013908,0.987834,-0.201178
1630497989385,-0.014395999999999999,0.988566,-0.20105599999999998
1630497989394,-0.015127999999999999,0.987773,-0.19983599999999999
1630497989404,-0.014395999999999999,0.988444,-0.201422
1630497989413,-0.015067,0.988566,-0.201788
1630497989423,-0.015189,0.989054,-0.202459
1630497989433,-0.015982,0.988932,-0.202215
1630497989442,-0.015982,0.9900909999999999,-0.202459
1630497989452,-0.016287,0.990213,-0.202337
1630497989461,-0.016592,0.990274,-0.20252
1630497989471,-0.01647,0.9900909999999999,-0.203008
1630497989481,-0.015982,0.989359,-0.20252
1630497989490,-0.016531,0.988505,-0.202764
1630497989500,-0.017629,0.987773,-0.203008
1630497989509,-0.017446,0.987529,-0.202398
1630497989519,-0.017995,0.987285,-0.20191
1630497989529,-0.018971,0.987346,-0.202703
1630497989538,-0.018483,0.986736,-0.20227599999999998
1630497989548,-0.018543999999999998,0.986858,-0.203618
1630497989557,-0.017568,0.987529,-0.203252
1630497989567,-0.01891,0.98698,-0.204472
1630497989577,-0.01952,0.986553,-0.204228
1630497989586,-0.019459,0.988749,-0.204899
1630497989596,-0.018727,0.988017,-0.204045
1630497989605,-0.019275999999999998,0.987895,-0.204594
1630497989615,-0.0183,0.987163,-0.205387
1630497989625,-0.020069,0.984174,-0.20496
1630497989634,-0.019886,0.985028,-0.20569199999999999
1630497989644,-0.018422,0.987956,-0.208925
1630497989653,-0.01769,0.988444,-0.207888
1630497989663,-0.019581,0.9858819999999999,-0.20258099999999998
1630497989673,-0.021167,0.9846619999999999,-0.198738
1630497989682,-0.018727,0.988322,-0.199958
1630497989692,-0.015189,0.991982,-0.200385
1630497989701,-0.014518,0.994544,-0.20044599999999999
1630497989711,-0.014884,0.993385,-0.200324
1630497989721,-0.014518,0.9934459999999999,-0.200507
1630497989730,-0.013969,0.99247,-0.200507
1630497989740,-0.014701,0.99186,-0.199531
1630497989749,-0.015127999999999999,0.9916159999999999,-0.197884
1630497989759,-0.014457,0.989908,-0.197518
1630497989769,-0.014395999999999999,0.9891759999999999,-0.198128
1630497989778,-0.014579,0.988566,-0.20069
1630497989788,-0.015493999999999999,0.988688,-0.200934
1630497989797,-0.015493999999999999,0.988688,-0.202032
1630497989807,-0.01647,0.987773,-0.202215
1630497989817,-0.015921,0.986614,-0.202459
1630497989826,-0.015799,0.986553,-0.203618
1630497989836,-0.016409,0.98637,-0.20374
1630497989845,-0.01647,0.984784,-0.20197099999999998
1630497989855,-0.016774999999999998,0.9843569999999999,-0.201178
1630497989865,-0.015982,0.98698,-0.20258099999999998
1630497989874,-0.016042999999999998,0.989542,-0.205448
1630497989884,-0.015921,0.9888709999999999,-0.205204
1630497989893,-0.017811999999999998,0.986431,-0.202947
1630497989903,-0.019032,0.98637,-0.20191
1630497989913,-0.018422,0.987773,-0.201178
1630497989922,-0.015982,0.9894809999999999,-0.201178
1630497989932,-0.015006,0.988505,-0.201422
1630497989941,-0.014274,0.989542,-0.20191
1630497989951,-0.01586,0.98881,-0.202703
1630497989961,-0.015982,0.987346,-0.202764
1630497989970,-0.015493999999999999,0.987041,-0.201849
1630497989980,-0.016042999999999998,0.987224,-0.20252
1630497989989,-0.016409,0.987956,-0.202032
1630497989999,-0.015982,0.988322,-0.203557
1630497990009,-0.015982,0.98881,-0.202093
1630497990018,-0.015921,0.9894809999999999,-0.201178
1630497990028,-0.016714,0.989725,-0.201483
1630497990037,-0.016165,0.99003,-0.202032
1630497990047,-0.016531,0.990152,-0.20227599999999998
1630497990057,-0.016592,0.989542,-0.20191
1630497990066,-0.01647,0.989725,-0.20227599999999998
1630497990076,-0.016104,0.989664,-0.20288599999999998
1630497990085,-0.017019,0.989664,-0.20258099999999998
1630497990095,-0.017019,0.990152,-0.202398
1630497990105,-0.017506999999999998,0.98942,-0.202947
1630497990114,-0.018605,0.989054,-0.202642
1630497990124,-0.019275999999999998,0.9882,-0.203069
1630497990133,-0.018543999999999998,0.987651,-0.202337
1630497990143,-0.019154,0.987895,-0.20319099999999998
1630497990153,-0.018727,0.987651,-0.203984
1630497990162,-0.018361,0.988078,-0.203862
1630497990172,-0.019215,0.987163,-0.20410599999999998
1630497990181,-0.019459,0.987285,-0.20569199999999999
1630497990191,-0.019275999999999998,0.988078,-0.204167
1630497990201,-0.018971,0.986614,-0.20349599999999998
1630497990210,-0.018971,0.987163,-0.203862
1630497990220,-0.018117,0.987224,-0.204655
1630497990229,-0.018788,0.984723,-0.206119
1630497990239,-0.018483,0.985089,-0.20691199999999998
1630497990249,-0.01891,0.987956,-0.20923
1630497990258,-0.019642,0.9882,-0.20801
1630497990268,-0.020557,0.985699,-0.20319099999999998
1630497990277,-0.02013,0.9858819999999999,-0.19983599999999999
1630497990287,-0.016592,0.989664,-0.20008
1630497990297,-0.013786,0.991738,-0.201544
1630497990306,-0.013725,0.991555,-0.201239
1630497990316,-0.013237,0.991555,-0.200324
1630497990325,-0.013786,0.99003,-0.200568
1630497990335,-0.014274,0.9894809999999999,-0.200507
1630497990345,-0.013725,0.988627,-0.19886
1630497990354,-0.013603,0.989725,-0.198006
1630497990364,-0.013786,0.989359,-0.198921
1630497990373,-0.013542,0.988627,-0.199592
1630497990383,-0.013542,0.989664,-0.199592
1630497990393,-0.013786,0.989054,-0.200385
1630497990402,-0.014335,0.9888709999999999,-0.20105599999999998
1630497990412,-0.015311,0.988139,-0.200995
1630497990421,-0.016042999999999998,0.989115,-0.201544
1630497990431,-0.015006,0.988139,-0.20227599999999998
1630497990441,-0.015555,0.987285,-0.20044599999999999
1630497990450,-0.015921,0.985089,-0.200507
1630497990460,-0.017019,0.9867969999999999,-0.202154
1630497990469,-0.016531,0.98881,-0.204167
1630497990479,-0.015982,0.991067,-0.20630199999999999
1630497990489,-0.017995,0.988017,-0.20349599999999998
1630497990498,-0.018483,0.986858,-0.201849
1630497990508,-0.018849,0.987407,-0.202032
1630497990517,-0.018056,0.987956,-0.20252
1630497990527,-0.016347999999999998,0.990274,-0.203008
1630497990537,-0.016347999999999998,0.990823,-0.203984
1630497990546,-0.017141,0.989664,-0.203923
1630497990556,-0.017873,0.988444,-0.203374
1630497990565,-0.017873,0.988261,-0.202459
1630497990575,-0.017934,0.987956,-0.20252
1630497990585,-0.017385,0.988322,-0.202703
1630497990594,-0.017506999999999998,0.9882,-0.203008
1630497990604,-0.018178,0.987712,-0.204472
1630497990613,-0.019032,0.986919,-0.20410599999999998
1630497990623,-0.018971,0.987346,-0.20435
1630497990633,-0.018666,0.988139,-0.205082
1630497990642,-0.018422,0.9882,-0.205143
1630497990652,-0.019398,0.987956,-0.204716
1630497990661,-0.019398,0.988993,-0.204716
1630497990671,-0.019093,0.988627,-0.205204
1630497990681,-0.01891,0.989542,-0.204411
1630497990690,-0.018361,0.989115,-0.203862
1630497990700,-0.020007999999999998,0.987956,-0.203313
1630497990709,-0.020069,0.986553,-0.202398
1630497990719,-0.02135,0.985821,-0.20258099999999998
1630497990729,-0.019886,0.985516,-0.20258099999999998
1630497990738,-0.020374,0.986675,-0.202764
1630497990748,-0.020435,0.987163,-0.202764
1630497990757,-0.01952,0.987651,-0.203069
1630497990767,-0.018666,0.9871019999999999,-0.203374
1630497990777,-0.020069,0.987041,-0.203435
1630497990786,-0.020007999999999998,0.987041,-0.20349599999999998
1630497990796,-0.020679,0.986004,-0.199958
1630497990805,-0.019275999999999998,0.986431,-0.199531
1630497990815,-0.018361,0.989359,-0.202154
1630497990825,-0.017446,0.989908,-0.204228
1630497990834,-0.017873,0.987041,-0.203618
1630497990844,-0.019398,0.987895,-0.20288599999999998
1630497990853,-0.018849,0.9910059999999999,-0.204716
1630497990863,-0.018971,0.989542,-0.20069
1630497990873,-0.02013,0.986126,-0.196298
1630497990882,-0.017385,0.989969,-0.19550499999999998
1630497990892,-0.014152,0.993324,-0.196664
1630497990901,-0.012261,0.99369,-0.197823
1630497990911,-0.011833999999999999,0.993385,-0.197152
1630497990921,-0.013054,0.9931409999999999,-0.198128
1630497990930,-0.014029999999999999,0.992653,-0.19794499999999998
1630497990940,-0.015006,0.991982,-0.197884
1630497990949,-0.014823,0.991738,-0.197213
1630497990959,-0.01464,0.9913109999999999,-0.197213
1630497990969,-0.015677,0.991067,-0.198128
1630497990978,-0.015616,0.989908,-0.199531
1630497990988,-0.016042999999999998,0.988139,-0.200019
1630497990997,-0.01586,0.987712,-0.200812
1630497991007,-0.016958,0.987346,-0.200995
1630497991017,-0.016958,0.986431,-0.20136099999999998
1630497991026,-0.017873,0.9852719999999999,-0.200019
1630497991036,-0.017873,0.98698,-0.201483
1630497991045,-0.016714,0.987041,-0.202154
1630497991055,-0.017263,0.984601,-0.201178
1630497991065,-0.017446,0.987651,-0.204228
1630497991074,-0.0183,0.99003,-0.207095
1630497991084,-0.018666,0.989664,-0.208681
1630497991093,-0.01952,0.987712,-0.204289
1630497991103,-0.018971,0.985455,-0.203313
1630497991113,-0.018422,0.987224,-0.203679
1630497991122,-0.017995,0.987285,-0.20349599999999998
1630497991132,-0.017079999999999998,0.987163,-0.20374
1630497991141,-0.016347999999999998,0.987834,-0.204838
1630497991151,-0.017141,0.987895,-0.203862
1630497991161,-0.017385,0.98759,-0.20569199999999999
1630497991170,-0.017873,0.9861869999999999,-0.204472
1630497991180,-0.018117,0.986431,-0.204838
1630497991189,-0.017263,0.986675,-0.204533
1630497991199,-0.01891,0.987773,-0.205448
1630497991209,-0.019398,0.98881,-0.204838
1630497991218,-0.018239,0.99064,-0.205509
1630497991228,-0.018056,0.9907009999999999,-0.205082
1630497991237,-0.017506999999999998,0.991799,-0.20618
1630497991247,-0.018605,0.991067,-0.205265
1630497991257,-0.018605,0.9910059999999999,-0.205631
1630497991266,-0.019398,0.989847,-0.205326
1630497991276,-0.0183,0.989115,-0.205509
1630497991285,-0.017873,0.988688,-0.205631
1630497991295,-0.01891,0.988078,-0.204899
1630497991305,-0.019032,0.987834,-0.205875
1630497991314,-0.019154,0.98698,-0.20557
1630497991324,-0.018605,0.986614,-0.204594
1630497991333,-0.018727,0.9861869999999999,-0.20496
1630497991343,-0.018543999999999998,0.986248,-0.204899
1630497991353,-0.018056,0.987407,-0.203984
1630497991362,-0.017446,0.986553,-0.20410599999999998
1630497991372,-0.017385,0.986248,-0.20410599999999998
1630497991381,-0.017202,0.986065,-0.204533
1630497991391,-0.016714,0.986736,-0.20496
1630497991401,-0.016531,0.987956,-0.205021
1630497991410,-0.016958,0.987285,-0.20435
1630497991420,-0.016531,0.987956,-0.205448
1630497991429,-0.016774999999999998,0.987468,-0.205814
1630497991439,-0.017079999999999998,0.9858819999999999,-0.206119
1630497991449,-0.01647,0.988078,-0.207949
1630497991458,-0.01586,0.9894809999999999,-0.20935199999999998
1630497991468,-0.017568,0.986553,-0.206485
1630497991477,-0.019093,0.982161,-0.200934
1630497991487,-0.018117,0.983503,-0.20069
1630497991497,-0.014884,0.987041,-0.201849
1630497991506,-0.013054,0.989664,-0.202825
1630497991516,-0.012565999999999999,0.9900909999999999,-0.202947
1630497991525,-0.013176,0.990762,-0.20380099999999998
1630497991535,-0.013663999999999999,0.99003,-0.203252
1630497991545,-0.013359,0.9900909999999999,-0.20288599999999998
1630497991554,-0.013786,0.990213,-0.200629
1630497991564,-0.013725,0.991433,-0.200629
1630497991573,-0.012931999999999999,0.991372,-0.20044599999999999
1630497991583,-0.01342,0.99125,-0.2013
1630497991593,-0.013969,0.990457,-0.20197099999999998
1630497991602,-0.013908,0.990335,-0.201727
1630497991612,-0.015006,0.988688,-0.20252
1630497991621,-0.015127999999999999,0.987285,-0.20380099999999998
1630497991631,-0.015982,0.986675,-0.205753
1630497991641,-0.01647,0.986004,-0.20660699999999999
1630497991650,-0.016774999999999998,0.9861869999999999,-0.206729
1630497991660,-0.015493999999999999,0.986614,-0.20569199999999999
1630497991669,-0.016104,0.9846619999999999,-0.204899
1630497991679,-0.015677,0.9867969999999999,-0.206058
1630497991689,-0.014884,0.988688,-0.20801
1630497991698,-0.016042999999999998,0.988444,-0.208681
1630497991708,-0.016836,0.9864919999999999,-0.206668
1630497991717,-0.017934,0.986248,-0.206119
1630497991727,-0.016531,0.98698,-0.205936
1630497991737,-0.016104,0.988261,-0.206119
1630497991746,-0.015189,0.988322,-0.207095
1630497991756,-0.016653,0.988261,-0.208193
1630497991765,-0.016714,0.987956,-0.208376
1630497991775,-0.016714,0.986614,-0.207705
1630497991785,-0.017385,0.9858819999999999,-0.209413
1630497991794,-0.018178,0.985699,-0.209291
1630497991804,-0.018422,0.984235,-0.209535
1630497991813,-0.018788,0.984723,-0.209474
1630497991823,-0.018422,0.9858819999999999,-0.20935199999999998
1630497991833,-0.018849,0.9858819999999999,-0.210572
1630497991842,-0.018483,0.985516,-0.211121
1630497991852,-0.018849,0.987407,-0.210572
1630497991861,-0.019215,0.98698,-0.210328
1630497991871,-0.019154,0.986614,-0.210023
1630497991881,-0.018727,0.987285,-0.211121
1630497991890,-0.019275999999999998,0.9867969999999999,-0.21246299999999999
1630497991900,-0.020374,0.98637,-0.21228
1630497991909,-0.020069,0.986248,-0.21215799999999999
1630497991919,-0.019642,0.9864919999999999,-0.211731
1630497991929,-0.020191,0.986431,-0.210755
1630497991938,-0.02013,0.9871019999999999,-0.210145
1630497991948,-0.020313,0.986553,-0.209291
1630497991957,-0.019459,0.987163,-0.208803
1630497991967,-0.019947,0.987224,-0.209169
1630497991977,-0.019764,0.98759,-0.20935199999999998
1630497991986,-0.019398,0.985699,-0.20984
1630497991996,-0.020862,0.985028,-0.210572
1630497992005,-0.021167,0.986431,-0.210816
1630497992015,-0.019886,0.986126,-0.210816
1630497992025,-0.019398,0.986126,-0.209291
1630497992034,-0.01891,0.987407,-0.210023
1630497992044,-0.019337,0.985333,-0.209779
1630497992053,-0.019581,0.984723,-0.209596
1630497992063,-0.018483,0.987346,-0.212646
1630497992073,-0.0183,0.988139,-0.213256
1630497992082,-0.01952,0.985089,-0.209535
1630497992092,-0.020496,0.982954,-0.204472
1630497992101,-0.018543999999999998,0.984113,-0.203069
1630497992111,-0.016592,0.987346,-0.204655
1630497992121,-0.015189,0.988322,-0.20557
1630497992130,-0.015555,0.9897859999999999,-0.20691199999999998
1630497992140,-0.016042999999999998,0.989847,-0.207095
1630497992149,-0.016226,0.9888709999999999,-0.205936
1630497992159,-0.016287,0.98942,-0.204594
1630497992169,-0.015311,0.989237,-0.203008
1630497992178,-0.014884,0.989908,-0.202764
1630497992188,-0.014335,0.989908,-0.20252
1630497992197,-0.014274,0.99003,-0.20319099999999998
1630497992207,-0.014395999999999999,0.98881,-0.203618
1630497992217,-0.015738,0.987163,-0.205631
1630497992226,-0.016714,0.985638,-0.205631
1630497992236,-0.017202,0.985089,-0.206363
1630497992245,-0.016104,0.984906,-0.207034
1630497992255,-0.016592,0.985516,-0.207034
1630497992265,-0.016774999999999998,0.9855769999999999,-0.20599699999999999
1630497992274,-0.016347999999999998,0.985211,-0.204655
1630497992284,-0.015433,0.984784,-0.204411
1630497992293,-0.015738,0.987956,-0.204411
1630497992303,-0.015372,0.990457,-0.208193
1630497992313,-0.016287,0.989847,-0.20801
1630497992322,-0.01769,0.987163,-0.205326
1630497992332,-0.017811999999999998,0.987834,-0.20496
1630497992341,-0.016714,0.98881,-0.20496
1630497992351,-0.016226,0.989603,-0.204655
1630497992361,-0.015799,0.988688,-0.205509
1630497992370,-0.016836,0.988749,-0.206241
1630497992380,-0.016653,0.988139,-0.206485
1630497992389,-0.016165,0.987468,-0.206851
1630497992399,-0.017446,0.9867969999999999,-0.207156
1630497992409,-0.016347999999999998,0.986553,-0.206119
1630497992418,-0.016958,0.986065,-0.204533
1630497992428,-0.016409,0.98759,-0.205265
1630497992437,-0.01647,0.987773,-0.205448
1630497992447,-0.01586,0.989298,-0.205326
1630497992457,-0.016531,0.988322,-0.20599699999999999
1630497992466,-0.016592,0.988566,-0.206119
1630497992476,-0.016104,0.987895,-0.205753
1630497992485,-0.017385,0.988688,-0.20630199999999999
1630497992495,-0.016774999999999998,0.9894809999999999,-0.206729
1630497992505,-0.016653,0.989054,-0.206424
1630497992514,-0.017141,0.989237,-0.206058
1630497992524,-0.017141,0.989115,-0.206546
1630497992533,-0.016042999999999998,0.988078,-0.20599699999999999
1630497992543,-0.017629,0.986858,-0.20630199999999999
1630497992553,-0.018239,0.98637,-0.205814
1630497992562,-0.018727,0.985821,-0.207034
1630497992572,-0.018422,0.986309,-0.20782699999999998
1630497992581,-0.018543999999999998,0.9852719999999999,-0.20752199999999998
1630497992591,-0.018666,0.985943,-0.207095
1630497992601,-0.017811999999999998,0.986004,-0.206668
1630497992610,-0.017873,0.986553,-0.206546
1630497992620,-0.017446,0.987346,-0.206058
1630497992629,-0.018117,0.9867969999999999,-0.20496
1630497992639,-0.018239,0.986736,-0.205936
1630497992649,-0.018788,0.987773,-0.206485
1630497992658,-0.017934,0.988078,-0.205387
1630497992668,-0.01647,0.98759,-0.20496
1630497992677,-0.016774999999999998,0.987285,-0.206851
1630497992687,-0.017873,0.984906,-0.20679
1630497992697,-0.017751,0.984784,-0.2074
1630497992706,-0.016774999999999998,0.987346,-0.209901
1630497992716,-0.016347999999999998,0.98881,-0.210389
1630497992725,-0.018483,0.98576,-0.204472
1630497992735,-0.018971,0.984296,-0.200202
1630497992745,-0.015127999999999999,0.987041,-0.20069
1630497992754,-0.013237,0.990823,-0.201422
1630497992764,-0.011895,0.992348,-0.202154
1630497992773,-0.012931999999999999,0.9922259999999999,-0.202703
1630497992783,-0.013359,0.991494,-0.203557
1630497992793,-0.014029999999999999,0.990213,-0.202154
1630497992802,-0.014701,0.9897859999999999,-0.20191
1630497992812,-0.015372,0.9897859999999999,-0.20044599999999999
1630497992821,-0.014761999999999999,0.989603,-0.200568
1630497992831,-0.013908,0.989054,-0.201849
1630497992841,-0.014335,0.988688,-0.20191
1630497992850,-0.015433,0.988383,-0.203252
1630497992860,-0.015982,0.987956,-0.203008
1630497992869,-0.016347999999999998,0.987285,-0.202459
1630497992879,-0.016774999999999998,0.987529,-0.20349599999999998
1630497992889,-0.015921,0.987407,-0.203984
1630497992898,-0.016042999999999998,0.987041,-0.204838
1630497992908,-0.017324,0.98637,-0.20435
1630497992917,-0.018605,0.984235,-0.203618
1630497992927,-0.017995,0.986614,-0.204411
1630497992937,-0.017263,0.987956,-0.20752199999999998
1630497992946,-0.017934,0.988505,-0.207339
1630497992956,-0.019275999999999998,0.986858,-0.203252
1630497992965,-0.019642,0.985516,-0.201178
1630497992975,-0.018361,0.986858,-0.20166599999999998
1630497992985,-0.016958,0.989725,-0.203008
1630497992994,-0.017446,0.9903959999999999,-0.204045
1630497993004,-0.017934,0.989664,-0.204228
1630497993013,-0.018543999999999998,0.988688,-0.204411
1630497993023,-0.018788,0.989298,-0.204167
1630497993033,-0.020069,0.987285,-0.20380099999999998
1630497993042,-0.02013,0.986553,-0.20380099999999998
1630497993052,-0.020007999999999998,0.986736,-0.203618
1630497993061,-0.020557,0.986736,-0.204289
1630497993071,-0.020739999999999998,0.987163,-0.204228
1630497993081,-0.021106,0.988078,-0.20496
1630497993090,-0.021471999999999998,0.987956,-0.204777
1630497993100,-0.023485,0.988322,-0.205509
1630497993109,-0.022448,0.9882,-0.20569199999999999
1630497993119,-0.023667999999999998,0.987773,-0.205387
1630497993129,-0.023667999999999998,0.988932,-0.205143
1630497993138,-0.023972999999999998,0.989359,-0.20557
1630497993148,-0.022326,0.989237,-0.205143
1630497993157,-0.022997,0.988932,-0.20496
1630497993167,-0.023302,0.988505,-0.204228
1630497993177,-0.02379,0.987956,-0.20410599999999998
1630497993186,-0.024399999999999998,0.988688,-0.203923
1630497993196,-0.024827,0.988566,-0.204716
1630497993205,-0.024827,0.988566,-0.20496
1630497993215,-0.025071,0.987895,-0.205143
1630497993225,-0.025376,0.9867969999999999,-0.205387
1630497993234,-0.025986,0.98576,-0.205082
1630497993244,-0.027023,0.98454,-0.204838
1630497993253,-0.026352,0.986309,-0.206119
1630497993263,-0.028121,0.985638,-0.205936
1630497993273,-0.028243,0.984418,-0.206424
1630497993282,-0.028304,0.983503,-0.20721699999999998
1630497993292,-0.028791999999999998,0.984113,-0.207461
1630497993301,-0.028731,0.984418,-0.205082
1630497993311,-0.028487,0.985821,-0.204045
1630497993321,-0.027267,0.98759,-0.205631
1630497993330,-0.027084,0.987529,-0.20679
1630497993340,-0.026535,0.986675,-0.206851
1630497993349,-0.027572,0.9867969999999999,-0.205143
1630497993359,-0.028364999999999998,0.989054,-0.207278
1630497993369,-0.028548,0.987773,-0.20599699999999999
1630497993378,-0.029096999999999998,0.983564,-0.20105599999999998
1630497993388,-0.028182,0.984723,-0.199348
1630497993397,-0.024583,0.988932,-0.201117
1630497993407,-0.022631,0.9903959999999999,-0.201788
1630497993417,-0.021838,0.991067,-0.201117
1630497993426,-0.022448,0.990152,-0.201178
1630497993436,-0.022448,0.990213,-0.201483
1630497993445,-0.021899,0.9903959999999999,-0.200385
1630497993455,-0.022021,0.989908,-0.199348
1630497993465,-0.022326,0.989969,-0.198494
1630497993474,-0.022387,0.990884,-0.198189
1630497993484,-0.021899,0.989664,-0.199104
1630497993493,-0.02196,0.9903959999999999,-0.199714
1630497993503,-0.021777,0.9903959999999999,-0.20014099999999999
1630497993513,-0.021411,0.990274,-0.20105599999999998
1630497993522,-0.02196,0.989603,-0.200507
1630497993532,-0.022814,0.988932,-0.200202
1630497993541,-0.023302,0.989237,-0.20044599999999999
1630497993551,-0.023363,0.989725,-0.200202
1630497993561,-0.02379,0.987346,-0.20069
1630497993570,-0.024461,0.987651,-0.201788
1630497993580,-0.024399999999999998,0.988932,-0.204655
1630497993589,-0.024644,0.990945,-0.2074
1630497993599,-0.026168999999999998,0.986858,-0.204716
1630497993609,-0.027999,0.9840519999999999,-0.204167
1630497993618,-0.028426,0.983991,-0.204594
1630497993628,-0.028182,0.984235,-0.204899
1630497993637,-0.027327999999999998,0.9864919999999999,-0.205448
1630497993647,-0.027755,0.987285,-0.206729
1630497993657,-0.027084,0.9882,-0.20721699999999998
1630497993666,-0.027632999999999998,0.987224,-0.20721699999999998
1630497993676,-0.028182,0.986309,-0.206668
1630497993685,-0.028548,0.9849669999999999,-0.20660699999999999
1630497993695,-0.028914,0.98454,-0.206058
1630497993705,-0.02989,0.98393,-0.20813199999999998
1630497993714,-0.029828999999999998,0.985516,-0.208376
1630497993724,-0.030012,0.98637,-0.20843699999999998
1630497993733,-0.031232,0.986919,-0.20801
1630497993743,-0.030866,0.987468,-0.208803
1630497993753,-0.029951,0.987041,-0.20874199999999998
1630497993762,-0.030195,0.987224,-0.20862
1630497993772,-0.030012,0.987895,-0.20874199999999998
1630497993781,-0.030317,0.987651,-0.20923
1630497993791,-0.029523999999999998,0.987468,-0.20923
1630497993801,-0.02989,0.98698,-0.209169
1630497993810,-0.029768,0.986736,-0.20862
1630497993820,-0.028548,0.985516,-0.208925
1630497993829,-0.029036,0.987163,-0.20874199999999998
1630497993839,-0.028791999999999998,0.986736,-0.207766
1630497993849,-0.02745,0.9867969999999999,-0.208864
1630497993858,-0.027267,0.987712,-0.208071
1630497993868,-0.026962,0.986919,-0.207339
1630497993877,-0.02745,0.987163,-0.20679
1630497993887,-0.02684,0.9882,-0.20618
1630497993897,-0.026779,0.987529,-0.20618
1630497993906,-0.02501,0.987224,-0.20660699999999999
1630497993916,-0.02684,0.985699,-0.20557
1630497993925,-0.027389,0.9855769999999999,-0.20752199999999998
1630497993935,-0.02684,0.987407,-0.208315
1630497993945,-0.026474,0.987224,-0.20660699999999999
1630497993954,-0.026779,0.987041,-0.206363
1630497993964,-0.026413,0.987346,-0.208254
1630497993973,-0.026352,0.985089,-0.20904699999999998
1630497993983,-0.026962,0.985333,-0.209169
1630497993993,-0.025681,0.9871019999999999,-0.21167
1630497994002,-0.026413,0.987468,-0.21154799999999999
1630497994012,-0.027206,0.984418,-0.206119
1630497994021,-0.028243,0.982466,-0.20319099999999998
1630497994031,-0.025376,0.984906,-0.202947
1630497994041,-0.022997,0.9882,-0.20380099999999998
1630497994050,-0.021838,0.989237,-0.204716
1630497994060,-0.021045,0.9888709999999999,-0.204472
1630497994069,-0.021167,0.988444,-0.204899
1630497994079,-0.021471999999999998,0.987407,-0.204655
1630497994089,-0.020739999999999998,0.987834,-0.202703
1630497994098,-0.020984,0.988444,-0.201422
1630497994108,-0.020435,0.988322,-0.202093
1630497994117,-0.020496,0.987285,-0.202947
1630497994127,-0.020679,0.987712,-0.202825
1630497994137,-0.021716,0.986919,-0.204472
1630497994146,-0.020679,0.986309,-0.205021
1630497994156,-0.021777,0.98576,-0.205509
1630497994165,-0.021045,0.986309,-0.205448
1630497994175,-0.019947,0.987346,-0.204594
1630497994185,-0.020862,0.987285,-0.204838
1630497994194,-0.021167,0.98698,-0.202703
1630497994204,-0.020557,0.984845,-0.202764
1630497994213,-0.021411,0.9852719999999999,-0.20313
1630497994223,-0.021106,0.988444,-0.204838
1630497994233,-0.021289,0.989542,-0.207583
1630497994242,-0.02257,0.988627,-0.20721699999999998
1630497994252,-0.023546,0.987529,-0.205021
1630497994261,-0.022997,0.987346,-0.204045
1630497994271,-0.022997,0.989603,-0.205082
1630497994281,-0.021655,0.990335,-0.205021
1630497994290,-0.021777,0.9900909999999999,-0.206241
1630497994300,-0.022935999999999998,0.988932,-0.206424
1630497994309,-0.023363,0.988261,-0.20599699999999999
1630497994319,-0.023302,0.986675,-0.205753
1630497994329,-0.023972999999999998,0.98698,-0.207034
1630497994338,-0.024522,0.986248,-0.20679
1630497994348,-0.02501,0.986126,-0.207278
1630497994357,-0.025376,0.986431,-0.207644
1630497994367,-0.026168999999999998,0.986126,-0.206851
1630497994377,-0.026474,0.986736,-0.207034
1630497994386,-0.026168999999999998,0.986675,-0.208925
1630497994396,-0.026108,0.986614,-0.207644
1630497994405,-0.025498,0.987712,-0.208498
1630497994415,-0.02562,0.987346,-0.207949
1630497994425,-0.026108,0.987468,-0.207339
1630497994434,-0.025863999999999998,0.98759,-0.207644
1630497994444,-0.026108,0.987224,-0.208498
1630497994453,-0.02684,0.986614,-0.208254
1630497994463,-0.027877,0.985943,-0.209596
1630497994473,-0.028059999999999998,0.985211,-0.210938
1630497994482,-0.027999,0.9855769999999999,-0.209718
1630497994492,-0.029036,0.9852719999999999,-0.20984
1630497994501,-0.028182,0.9861869999999999,-0.208498
1630497994511,-0.028364999999999998,0.9861869999999999,-0.209169
1630497994521,-0.027572,0.987224,-0.208315
1630497994530,-0.027084,0.987041,-0.207705
1630497994540,-0.026291,0.986858,-0.208315
1630497994549,-0.027206,0.985821,-0.20752199999999998
1630497994559,-0.027084,0.9858819999999999,-0.208864
1630497994569,-0.027999,0.98698,-0.208864
1630497994578,-0.027145,0.9867969999999999,-0.207644
1630497994588,-0.025742,0.986858,-0.207583
1630497994597,-0.025863999999999998,0.9867969999999999,-0.209169
1630497994607,-0.026900999999999998,0.98515,-0.20874199999999998
1630497994617,-0.025559,0.987468,-0.208254
1630497994626,-0.024399999999999998,0.9897859999999999,-0.210145
1630497994636,-0.024156,0.9894809999999999,-0.209474
1630497994645,-0.026047,0.985516,-0.20374
1630497994655,-0.02623,0.985394,-0.200202
1630497994665,-0.023851,0.988322,-0.201117
1630497994674,-0.02196,0.990762,-0.20227599999999998
1630497994684,-0.021411,0.991738,-0.203008
1630497994693,-0.021106,0.9913109999999999,-0.20313
1630497994703,-0.022082,0.9910059999999999,-0.20374
1630497994713,-0.02257,0.990152,-0.20374
1630497994722,-0.021899,0.99003,-0.201788
1630497994732,-0.021228,0.990213,-0.200263
1630497994741,-0.021471999999999998,0.98942,-0.19886
1630497994751,-0.021594,0.988688,-0.2013
1630497994761,-0.021716,0.988688,-0.20319099999999998
1630497994770,-0.021471999999999998,0.987651,-0.204411
1630497994780,-0.022448,0.987163,-0.204655
1630497994789,-0.022203999999999998,0.986736,-0.205265
1630497994799,-0.022021,0.986065,-0.204838
1630497994809,-0.022082,0.986065,-0.205265
1630497994818,-0.022021,0.985821,-0.20569199999999999
1630497994828,-0.022692,0.985516,-0.204838
1630497994837,-0.022448,0.9834419999999999,-0.20349599999999998
1630497994847,-0.022997,0.98393,-0.203923
1630497994857,-0.021594,0.987224,-0.206058
1630497994866,-0.021228,0.988627,-0.208376
1630497994876,-0.022814,0.986614,-0.20599699999999999
1630497994885,-0.023363,0.985333,-0.203618
1630497994895,-0.022935999999999998,0.9861869999999999,-0.204411
1630497994905,-0.020557,0.988383,-0.204533
1630497994914,-0.020923,0.988017,-0.205265
1630497994924,-0.020618,0.988749,-0.205082
1630497994933,-0.020923,0.987834,-0.205265
1630497994943,-0.021471999999999998,0.987407,-0.205326
1630497994953,-0.020923,0.986248,-0.205753
1630497994962,-0.022509,0.9871019999999999,-0.205021
1630497994972,-0.023241,0.987285,-0.204411
1630497994981,-0.022326,0.987285,-0.204594
1630497994991,-0.022082,0.987712,-0.205448
1630497995001,-0.022692,0.988932,-0.20569199999999999
1630497995010,-0.022387,0.988322,-0.207461
1630497995020,-0.022387,0.988078,-0.206424
1630497995029,-0.023241,0.988017,-0.206668
1630497995039,-0.023241,0.987407,-0.206668
1630497995049,-0.022935999999999998,0.9882,-0.207461
1630497995058,-0.023607,0.988505,-0.206668
1630497995068,-0.023912,0.988383,-0.206485
1630497995077,-0.02379,0.987712,-0.206485
1630497995087,-0.024827,0.987407,-0.206851
1630497995097,-0.024156,0.9871019999999999,-0.206485
1630497995106,-0.025436999999999998,0.987468,-0.207583
1630497995116,-0.024827,0.987712,-0.208315
1630497995125,-0.02562,0.986248,-0.2074
1630497995135,-0.025436999999999998,0.985943,-0.208254
1630497995145,-0.026779,0.985333,-0.207705
1630497995154,-0.026474,0.986004,-0.207766
1630497995164,-0.026657,0.985943,-0.207949
1630497995173,-0.026352,0.985516,-0.20801
1630497995183,-0.027389,0.9843569999999999,-0.208803
1630497995193,-0.027511,0.9852719999999999,-0.20904699999999998
1630497995202,-0.026047,0.985028,-0.206668
1630497995212,-0.02623,0.983564,-0.205936
1630497995221,-0.024704999999999998,0.986126,-0.208376
1630497995231,-0.025315,0.984845,-0.208315
1630497995241,-0.025803,0.984723,-0.20862
1630497995250,-0.026718,0.987712,-0.210206
1630497995260,-0.026291,0.99064,-0.211609
1630497995269,-0.027327999999999998,0.988993,-0.20813199999999998
1630497995279,-0.029158,0.986126,-0.20258099999999998
1630497995289,-0.027084,0.987956,-0.202337
1630497995298,-0.023667999999999998,0.9916159999999999,-0.203618
1630497995308,-0.022082,0.99247,-0.204289
1630497995317,-0.021838,0.991189,-0.204167
1630497995327,-0.023546,0.990213,-0.203923
1630497995337,-0.023729,0.988261,-0.204289
1630497995346,-0.024156,0.987407,-0.203374
1630497995356,-0.024217,0.9867969999999999,-0.203252
1630497995365,-0.024217,0.986675,-0.202154
1630497995375,-0.024949,0.986309,-0.20197099999999998
1630497995385,-0.024766,0.986858,-0.202947
1630497995394,-0.024399999999999998,0.986858,-0.204045
1630497995404,-0.024156,0.988261,-0.204289
1630497995413,-0.023912,0.988078,-0.205448
1630497995423,-0.024034,0.987285,-0.20410599999999998
1630497995433,-0.024704999999999998,0.986919,-0.204472
1630497995442,-0.024399999999999998,0.987285,-0.203557
1630497995452,-0.024644,0.985943,-0.20374
1630497995461,-0.025254,0.984479,-0.203557
1630497995471,-0.025925,0.985455,-0.20380099999999998
1630497995481,-0.025986,0.987956,-0.205509
1630497995490,-0.025315,0.988444,-0.20752199999999998
1630497995500,-0.027023,0.986553,-0.204533
1630497995509,-0.028059999999999998,0.986248,-0.20380099999999998
1630497995519,-0.027816,0.987346,-0.205326
1630497995529,-0.026718,0.987529,-0.204594
1630497995538,-0.025803,0.989298,-0.206851
1630497995548,-0.025986,0.989054,-0.207766
1630497995557,-0.026779,0.988566,-0.207034
1630497995567,-0.027632999999999998,0.987773,-0.20660699999999999
1630497995577,-0.027572,0.986736,-0.205936
1630497995586,-0.028121,0.985638,-0.205204
1630497995596,-0.027816,0.986126,-0.205082
1630497995605,-0.027816,0.987285,-0.205509
1630497995615,-0.027389,0.987041,-0.206668
1630497995625,-0.028731,0.9864919999999999,-0.20618
1630497995634,-0.029036,0.988505,-0.206546
1630497995644,-0.02928,0.988322,-0.20630199999999999
1630497995653,-0.029463,0.988139,-0.20569199999999999
1630497995663,-0.028426,0.987712,-0.205936
1630497995673,-0.028548,0.988505,-0.20557
1630497995682,-0.02867,0.989298,-0.205204
1630497995692,-0.028914,0.987895,-0.205143
1630497995701,-0.030195,0.987712,-0.205875
1630497995711,-0.029707,0.987041,-0.205509
1630497995721,-0.030317,0.9861869999999999,-0.205082
1630497995730,-0.030134,0.985455,-0.203984
1630497995740,-0.031049,0.984601,-0.204045
1630497995749,-0.030866,0.984418,-0.20380099999999998
1630497995759,-0.030683,0.986126,-0.20435
1630497995769,-0.030073,0.985821,-0.205448
1630497995778,-0.030134,0.986065,-0.20557
1630497995788,-0.030683,0.986126,-0.206485
1630497995797,-0.03172,0.987285,-0.20618
1630497995807,-0.031171,0.986858,-0.204411
1630497995817,-0.030866,0.987834,-0.203679
1630497995826,-0.02989,0.989908,-0.204777
1630497995836,-0.028304,0.989725,-0.208315
1630497995845,-0.029951,0.986858,-0.207339
1630497995855,-0.029828999999999998,0.988505,-0.207339
1630497995865,-0.030744,0.990762,-0.207766
1630497995874,-0.031659,0.987956,-0.205631
1630497995884,-0.031476,0.985028,-0.201239
1630497995893,-0.02989,0.985699,-0.20075099999999999
1630497995903,-0.02684,0.987529,-0.202032
1630497995913,-0.025315,0.988932,-0.20105599999999998
1630497995922,-0.024461,0.988932,-0.20014099999999999
1630497995932,-0.025131999999999998,0.988932,-0.199714
1630497995941,-0.02562,0.990152,-0.201544
1630497995951,-0.025436999999999998,0.9900909999999999,-0.199897
1630497995961,-0.02684,0.990518,-0.198555
1630497995970,-0.026291,0.991189,-0.199531
1630497995980,-0.026779,0.991982,-0.200629
1630497995989,-0.027572,0.992104,-0.202154
1630497995999,-0.027511,0.99064,-0.203008
1630497996009,-0.028609,0.988932,-0.204045
1630497996018,-0.029646,0.9882,-0.203862
1630497996028,-0.029646,0.987529,-0.205204
1630497996037,-0.029707,0.986919,-0.205631
1630497996047,-0.029585,0.985394,-0.20618
1630497996057,-0.02928,0.984418,-0.204899
1630497996066,-0.02867,0.982954,-0.205326
1630497996076,-0.029219,0.9858819999999999,-0.206729
1630497996085,-0.02928,0.9867969999999999,-0.20813199999999998
1630497996095,-0.02989,0.9864919999999999,-0.20752199999999998
1630497996105,-0.030255999999999998,0.9846619999999999,-0.203862
1630497996114,-0.031659,0.984174,-0.204472
1630497996124,-0.030866,0.984723,-0.205021
1630497996133,-0.029341,0.986614,-0.205021
1630497996143,-0.029158,0.986858,-0.205875
1630497996153,-0.028791999999999998,0.988078,-0.20660699999999999
1630497996162,-0.030012,0.987956,-0.20679
1630497996172,-0.031354,0.987224,-0.207705
1630497996181,-0.03111,0.986431,-0.20752199999999998
1630497996191,-0.031781,0.985638,-0.20721699999999998
1630497996201,-0.032085999999999996,0.985638,-0.206363
1630497996210,-0.031964,0.9858819999999999,-0.206851
1630497996220,-0.032452,0.986126,-0.207705
1630497996229,-0.032513,0.9867969999999999,-0.207644
1630497996239,-0.032025,0.98759,-0.206485
1630497996249,-0.032635,0.988017,-0.20679
1630497996258,-0.032147,0.988322,-0.207034
1630497996268,-0.032452,0.988444,-0.207034
1630497996277,-0.032025,0.988444,-0.207278
1630497996287,-0.033549999999999996,0.987895,-0.207034
1630497996297,-0.033672,0.987529,-0.20813199999999998
1630497996306,-0.033489,0.988078,-0.207461
1630497996316,-0.035075,0.98698,-0.207461
1630497996325,-0.033428,0.987712,-0.206058
1630497996335,-0.034099,0.98759,-0.206424
1630497996345,-0.034099,0.987407,-0.205814
1630497996354,-0.032695999999999996,0.988261,-0.206363
1630497996364,-0.033123,0.987651,-0.206546
1630497996373,-0.033306,0.986675,-0.206058
1630497996383,-0.033428,0.985821,-0.20630199999999999
1630497996393,-0.034159999999999996,0.9864919999999999,-0.20660699999999999
1630497996402,-0.033367,0.986431,-0.206851
1630497996412,-0.032574,0.986309,-0.206546
1630497996421,-0.031598,0.9867969999999999,-0.207644
1630497996431,-0.034038,0.9846619999999999,-0.207949
1630497996441,-0.034221,0.9843569999999999,-0.20984
1630497996450,-0.033428,0.985638,-0.21167
1630497996460,-0.033428,0.986309,-0.212646
1630497996469,-0.035685,0.982466,-0.20691199999999998
1630497996479,-0.03599,0.981795,-0.204289
1630497996489,-0.03294,0.984845,-0.204533
1630497996498,-0.030134,0.987651,-0.204594
1630497996508,-0.029219,0.989054,-0.205082
1630497996517,-0.029096999999999998,0.99003,-0.204594
1630497996527,-0.028426,0.988993,-0.204411
1630497996537,-0.029523999999999998,0.988566,-0.20313
1630497996546,-0.029523999999999998,0.988627,-0.201788
1630497996556,-0.02867,0.9888709999999999,-0.199714
1630497996565,-0.028243,0.989298,-0.19983599999999999
1630497996575,-0.028426,0.9891759999999999,-0.200934
1630497996585,-0.028121,0.988749,-0.200995
1630497996594,-0.028364999999999998,0.988688,-0.20227599999999998
1630497996604,-0.02928,0.98759,-0.20380099999999998
1630497996613,-0.02928,0.986919,-0.204045
1630497996623,-0.029585,0.987468,-0.205448
1630497996633,-0.029646,0.986248,-0.204716
1630497996642,-0.029828999999999998,0.986736,-0.204716
1630497996652,-0.02928,0.987346,-0.205021
1630497996661,-0.029523999999999998,0.985516,-0.203557
1630497996671,-0.029951,0.98576,-0.203557
1630497996681,-0.028548,0.988078,-0.205082
1630497996690,-0.028791999999999998,0.988932,-0.20782699999999998
1630497996700,-0.02989,0.987041,-0.206668
1630497996709,-0.031964,0.98515,-0.205753
1630497996719,-0.030744,0.985821,-0.206546
1630497996729,-0.029585,0.986675,-0.206363
1630497996738,-0.02928,0.9882,-0.20691199999999998
1630497996748,-0.029463,0.9882,-0.20721699999999998
1630497996757,-0.029036,0.987895,-0.207644
1630497996767,-0.028914,0.987346,-0.20691199999999998
1630497996777,-0.029707,0.98698,-0.206973
1630497996786,-0.029463,0.986614,-0.207339
1630497996796,-0.030195,0.985028,-0.207156
1630497996805,-0.029646,0.985394,-0.206485
1630497996815,-0.029523999999999998,0.98515,-0.20752199999999998
1630497996825,-0.030012,0.98576,-0.207766
1630497996834,-0.02989,0.9861869999999999,-0.20801
1630497996844,-0.029585,0.986675,-0.208681
1630497996853,-0.029219,0.987163,-0.210511
1630497996863,-0.029828999999999998,0.987041,-0.210023
1630497996873,-0.029523999999999998,0.9867969999999999,-0.209718
1630497996882,-0.030134,0.9871019999999999,-0.210328
1630497996892,-0.029768,0.9871019999999999,-0.210694
1630497996901,-0.030134,0.986614,-0.20923
1630497996911,-0.0305,0.986614,-0.20923
1630497996921,-0.0305,0.985394,-0.208864
1630497996930,-0.029951,0.986004,-0.20874199999999998
1630497996940,-0.02989,0.9858819999999999,-0.209779
1630497996949,-0.029707,0.985516,-0.21045
1630497996959,-0.030560999999999998,0.984601,-0.21045
1630497996969,-0.03111,0.985089,-0.21246299999999999
1630497996978,-0.030987999999999998,0.986431,-0.21154799999999999
1630497996988,-0.02928,0.986248,-0.210755
1630497996997,-0.028426,0.986614,-0.210267
1630497997007,-0.028182,0.987163,-0.210938
1630497997017,-0.029341,0.9843569999999999,-0.21228
1630497997026,-0.029036,0.983869,-0.21215799999999999
1630497997036,-0.028609,0.985943,-0.215025
1630497997045,-0.028304,0.986736,-0.215391
1630497997055,-0.029707,0.9843569999999999,-0.21154799999999999
1630497997065,-0.030866,0.9813069999999999,-0.206546
1630497997074,-0.028975,0.983686,-0.207156
1630497997084,-0.025315,0.986065,-0.208071
1630497997093,-0.024399999999999998,0.988505,-0.209413
1630497997103,-0.024217,0.988444,-0.210084
1630497997113,-0.026413,0.988444,-0.209596
1630497997122,-0.025559,0.988444,-0.20801
1630497997132,-0.02562,0.988627,-0.206363
1630497997141,-0.024339,0.987712,-0.204594
1630497997151,-0.024278,0.987407,-0.204411
1630497997161,-0.024278,0.988261,-0.206058
1630497997170,-0.024827,0.987163,-0.207034
1630497997180,-0.02501,0.987346,-0.207644
1630497997189,-0.025376,0.986858,-0.208315
1630497997199,-0.026900999999999998,0.985638,-0.208803
1630497997209,-0.027084,0.9846619999999999,-0.208803
1630497997218,-0.026535,0.9855769999999999,-0.20984
1630497997228,-0.027145,0.985638,-0.208925
1630497997237,-0.026291,0.98515,-0.208559
1630497997247,-0.025863999999999998,0.983503,-0.207949
1630497997257,-0.026718,0.9834419999999999,-0.208864
1630497997266,-0.026108,0.9861869999999999,-0.209779
1630497997276,-0.026108,0.988383,-0.211365
1630497997285,-0.026291,0.987407,-0.209169
1630497997295,-0.028059999999999998,0.985638,-0.207461
1630497997305,-0.028121,0.9858819999999999,-0.207339
1630497997314,-0.026413,0.98759,-0.207705
1630497997324,-0.025863999999999998,0.988566,-0.207766
1630497997333,-0.026474,0.988139,-0.209291
1630497997343,-0.027206,0.987346,-0.20935199999999998
1630497997353,-0.027389,0.986065,-0.208864
1630497997362,-0.02745,0.986065,-0.209413
1630497997372,-0.027084,0.98454,-0.20904699999999998
1630497997381,-0.027938,0.985089,-0.208315
1630497997391,-0.027632999999999998,0.985516,-0.208193
1630497997401,-0.027755,0.985516,-0.20801
1630497997410,-0.027816,0.985943,-0.208986
1630497997420,-0.028791999999999998,0.9858819999999999,-0.209718
1630497997429,-0.029036,0.986858,-0.209108
1630497997439,-0.028791999999999998,0.987651,-0.209901
1630497997449,-0.028487,0.988627,-0.209535
1630497997458,-0.028059999999999998,0.9891759999999999,-0.210389
1630497997468,-0.027877,0.9891759999999999,-0.210938
1630497997477,-0.028243,0.987407,-0.210633
1630497997487,-0.029523999999999998,0.986675,-0.209901
1630497997497,-0.029219,0.98698,-0.209535
1630497997506,-0.029585,0.985089,-0.208498
1630497997516,-0.029523999999999998,0.985028,-0.208864
1630497997525,-0.029523999999999998,0.985333,-0.208071
1630497997535,-0.030073,0.985089,-0.209108
1630497997545,-0.029402,0.985943,-0.20923
1630497997554,-0.030073,0.985455,-0.210389
1630497997564,-0.029828999999999998,0.983991,-0.210328
1630497997573,-0.0305,0.986248,-0.210877
1630497997583,-0.030866,0.985516,-0.210206
1630497997593,-0.030439,0.986248,-0.208315
1630497997602,-0.029158,0.987224,-0.210999
1630497997612,-0.030012,0.984845,-0.210328
1630497997621,-0.031232,0.9837469999999999,-0.21167
1630497997631,-0.0305,0.9855769999999999,-0.213256
1630497997641,-0.030439,0.987346,-0.214842
1630497997650,-0.032695999999999996,0.984784,-0.21246299999999999
1630497997660,-0.033794,0.983076,-0.207766
1630497997669,-0.030866,0.985089,-0.20782699999999998
1630497997679,-0.028304,0.988078,-0.208254
1630497997689,-0.026413,0.989725,-0.208376
1630497997698,-0.026718,0.9888709999999999,-0.208864
1630497997708,-0.026900999999999998,0.989359,-0.208315
1630497997717,-0.026595999999999998,0.987956,-0.20843699999999998
1630497997727,-0.026047,0.988078,-0.206668
1630497997737,-0.026352,0.987468,-0.205753
1630497997746,-0.027877,0.986858,-0.206668
1630497997756,-0.027145,0.985394,-0.206424
1630497997765,-0.02623,0.985394,-0.208864
1630497997775,-0.026779,0.98515,-0.210023
1630497997785,-0.027023,0.9855769999999999,-0.20965699999999998
1630497997794,-0.027206,0.985028,-0.207949
1630497997804,-0.027999,0.98576,-0.20843699999999998
1630497997813,-0.027327999999999998,0.9864919999999999,-0.20843699999999998
1630497997823,-0.027999,0.986675,-0.208559
1630497997833,-0.027084,0.984784,-0.20801
1630497997842,-0.027389,0.982283,-0.208986
1630497997852,-0.029096999999999998,0.985089,-0.21106
1630497997861,-0.02867,0.98759,-0.213622
1630497997871,-0.029402,0.987651,-0.21459799999999998
1630497997881,-0.031842,0.985028,-0.211609
1630497997890,-0.032757,0.984174,-0.209474
1630497997900,-0.032208,0.986309,-0.20996199999999998
1630497997909,-0.030255999999999998,0.986675,-0.210328
1630497997919,-0.02867,0.987407,-0.210206
1630497997929,-0.029585,0.9871019999999999,-0.210023
1630497997938,-0.030560999999999998,0.986065,-0.210877
1630497997948,-0.031598,0.985089,-0.210999
1630497997957,-0.031415,0.9846619999999999,-0.210999
1630497997967,-0.031659,0.986126,-0.211792
1630497997977,-0.032818,0.9861869999999999,-0.211792
1630497997986,-0.032757,0.986553,-0.212036
1630497997996,-0.032695999999999996,0.986065,-0.21276799999999998
1630497998005,-0.034159999999999996,0.986736,-0.213439
1630497998015,-0.035075,0.9855769999999999,-0.2135
1630497998025,-0.034159999999999996,0.98576,-0.213622
1630497998034,-0.034099,0.9852719999999999,-0.212402
1630497998044,-0.033672,0.985638,-0.213439
1630497998053,-0.034648,0.985943,-0.212829
1630497998063,-0.033916,0.986004,-0.21276799999999998
1630497998073,-0.034526,0.986248,-0.212219
1630497998082,-0.033733,0.986431,-0.21228
1630497998092,-0.034159999999999996,0.986065,-0.212524
1630497998101,-0.034892,0.9852719999999999,-0.21276799999999998
1630497998111,-0.034648,0.985028,-0.21307299999999998
1630497998121,-0.03477,0.984235,-0.21337799999999998
1630497998130,-0.035746,0.98454,-0.213439
1630497998140,-0.036051,0.984296,-0.21246299999999999
1630497998149,-0.03599,0.984845,-0.212524
1630497998159,-0.035807,0.983503,-0.2135
1630497998169,-0.036356,0.983503,-0.21398799999999998
1630497998178,-0.0366,0.9852719999999999,-0.215269
1630497998188,-0.036295,0.98515,-0.21246299999999999
1630497998197,-0.035746,0.9855769999999999,-0.210877
1630497998207,-0.034159999999999996,0.9852719999999999,-0.213439
1630497998217,-0.035136,0.984174,-0.215269
1630497998226,-0.035013999999999997,0.981429,-0.215391
1630497998236,-0.036356,0.983808,-0.21612299999999998
1630497998245,-0.036966,0.985211,-0.216794
1630497998255,-0.03782,0.986248,-0.213744
1630497998265,-0.037454,0.985211,-0.210511
1630497998274,-0.034709,0.9882,-0.209718
1630497998284,-0.031232,0.990823,-0.209779
1630497998293,-0.030317,0.989115,-0.209901
1630497998303,-0.030866,0.987712,-0.209108
1630497998313,-0.031842,0.987285,-0.208925
1630497998322,-0.031415,0.9858819999999999,-0.20996199999999998
1630497998332,-0.031903,0.985211,-0.20923
1630497998341,-0.031354,0.985394,-0.209169
1630497998351,-0.030987999999999998,0.98698,-0.208254
1630497998361,-0.030805,0.986919,-0.209108
1630497998370,-0.030987999999999998,0.986065,-0.209535
1630497998380,-0.031903,0.9843569999999999,-0.20923
1630497998389,-0.031598,0.984418,-0.20862
1630497998399,-0.031293,0.985638,-0.210084
1630497998409,-0.031537,0.985516,-0.209596
1630497998418,-0.031049,0.986736,-0.20984
1630497998428,-0.030622,0.987895,-0.210877
1630497998437,-0.029523999999999998,0.987712,-0.20996199999999998
1630497998447,-0.02928,0.98576,-0.21276799999999998
1630497998457,-0.02989,0.987468,-0.21429299999999998
1630497998466,-0.030866,0.988749,-0.217892
1630497998476,-0.031049,0.988017,-0.216916
1630497998485,-0.033123,0.983564,-0.21368299999999998
1630497998495,-0.033001,0.983625,-0.21472
1630497998505,-0.031964,0.98393,-0.21411
1630497998514,-0.030134,0.984479,-0.215086
1630497998524,-0.028791999999999998,0.984296,-0.215879
1630497998533,-0.028487,0.984723,-0.216794
1630497998543,-0.02928,0.983686,-0.21655
1630497998553,-0.030378,0.9819169999999999,-0.214842
1630497998562,-0.030927,0.981978,-0.215147
1630497998572,-0.031476,0.981978,-0.215452
1630497998581,-0.031903,0.981978,-0.214964
1630497998591,-0.031293,0.98271,-0.21459799999999998
1630497998601,-0.031842,0.9822219999999999,-0.21337799999999998
1630497998610,-0.032818,0.98332,-0.213439
1630497998620,-0.03294,0.983808,-0.212524
1630497998629,-0.033549999999999996,0.98454,-0.211304
1630497998639,-0.033977,0.985516,-0.21045
1630497998649,-0.034953,0.985699,-0.210084
1630497998658,-0.035441,0.9864919999999999,-0.209535
1630497998668,-0.035136,0.987407,-0.20801
1630497998677,-0.036173,0.98759,-0.207156
1630497998687,-0.036722,0.9871019999999999,-0.207034
1630497998697,-0.037454,0.986431,-0.20630199999999999
1630497998706,-0.038064,0.9871019999999999,-0.206729
1630497998716,-0.039162,0.98759,-0.206119
1630497998725,-0.038186,0.987529,-0.206485
1630497998735,-0.039101,0.987651,-0.2074
1630497998745,-0.04087,0.987468,-0.206546
1630497998754,-0.041053,0.9882,-0.207583
1630497998764,-0.042456,0.986858,-0.208803
1630497998773,-0.042822,0.985943,-0.210999
1630497998783,-0.043615,0.985699,-0.211182
1630497998793,-0.044042,0.98576,-0.209474
1630497998802,-0.042943999999999996,0.9846619999999999,-0.20874199999999998
1630497998812,-0.041724,0.9858819999999999,-0.210755
1630497998821,-0.04087,0.9855769999999999,-0.212646
1630497998831,-0.043005,0.980148,-0.216306
1630497998841,-0.042517,0.9822219999999999,-0.211304
1630497998850,-0.043188,0.985638,-0.21411
1630497998860,-0.044407999999999996,0.985028,-0.212219
1630497998869,-0.043981,0.983259,-0.20935199999999998
1630497998879,-0.042517,0.984845,-0.208681
1630497998889,-0.039955,0.986431,-0.20996199999999998
1630497998898,-0.039284,0.985699,-0.209596
1630497998908,-0.039589,0.985516,-0.207766
1630497998917,-0.042456,0.9855769999999999,-0.20782699999999998
1630497998927,-0.041907,0.986248,-0.206973
1630497998937,-0.040809,0.987956,-0.20557
1630497998946,-0.039772,0.988688,-0.204655
1630497998956,-0.03965,0.990579,-0.204289
1630497998965,-0.03843,0.989847,-0.203557
1630497998975,-0.038551999999999996,0.989298,-0.203435
1630497998985,-0.040138,0.989115,-0.205082
1630497998994,-0.040015999999999996,0.989237,-0.205143
1630497999004,-0.04087,0.988627,-0.205631
1630497999013,-0.040382,0.987651,-0.206668
1630497999023,-0.040138,0.986858,-0.20721699999999998
1630497999033,-0.041236,0.9864919999999999,-0.207095
1630497999042,-0.041724,0.985089,-0.205814
1630497999052,-0.04331,0.983015,-0.20569199999999999
1630497999061,-0.042578,0.983991,-0.207339
1630497999071,-0.040992,0.988078,-0.209718
1630497999081,-0.041236,0.989847,-0.212341
1630497999090,-0.042212,0.9871019999999999,-0.208376
1630497999100,-0.043554,0.9837469999999999,-0.206241
1630497999109,-0.043798,0.984174,-0.207034
1630497999119,-0.043432,0.985211,-0.207766
1630497999129,-0.041479999999999996,0.986431,-0.208559
1630497999138,-0.041602,0.9867969999999999,-0.209596
1630497999148,-0.041907,0.986736,-0.210084
1630497999157,-0.040931,0.986004,-0.208681
1630497999167,-0.042761,0.9849669999999999,-0.209169
1630497999177,-0.042212,0.985211,-0.208254
1630497999186,-0.042456,0.985333,-0.207583
1630497999196,-0.041419,0.986004,-0.20801
1630497999205,-0.042273,0.98698,-0.210206
1630497999215,-0.043005,0.985821,-0.210389
1630497999225,-0.043066,0.986858,-0.210694
1630497999234,-0.042883,0.986919,-0.21106
1630497999244,-0.042943999999999996,0.9871019999999999,-0.210267
1630497999253,-0.0427,0.986736,-0.20996199999999998
1630497999263,-0.042638999999999996,0.986126,-0.209291
1630497999273,-0.042517,0.9852719999999999,-0.20874199999999998
1630497999282,-0.042943999999999996,0.985455,-0.20874199999999998
1630497999292,-0.042578,0.9843569999999999,-0.208071
1630497999301,-0.041907,0.984418,-0.20782699999999998
1630497999311,-0.042578,0.985394,-0.207156
1630497999321,-0.041419,0.9864919999999999,-0.207278
1630497999330,-0.041784999999999996,0.987468,-0.206424
1630497999340,-0.041479999999999996,0.987529,-0.206729
1630497999349,-0.041602,0.987468,-0.206424
1630497999359,-0.041907,0.9867969999999999,-0.207034
1630497999369,-0.042151,0.985821,-0.207156
1630497999378,-0.042273,0.9852719999999999,-0.208498
1630497999388,-0.0427,0.985089,-0.20874199999999998
1630497999397,-0.042334,0.984845,-0.206363
1630497999407,-0.042761,0.984479,-0.206973
1630497999417,-0.041724,0.987163,-0.208498
1630497999426,-0.042456,0.9852719999999999,-0.209901
1630497999436,-0.042334,0.985089,-0.211182
1630497999445,-0.042029,0.988993,-0.213927
1630497999455,-0.043554,0.988749,-0.212402
1630497999465,-0.045506,0.9840519999999999,-0.206851
1630497999474,-0.044652,0.98271,-0.204777
1630497999484,-0.041968,0.985516,-0.206363
1630497999493,-0.039467,0.987529,-0.20691199999999998
1630497999503,-0.037698,0.987407,-0.20618
1630497999513,-0.037637,0.9871019999999999,-0.206241
1630497999522,-0.037576,0.987956,-0.204472
1630497999532,-0.03721,0.98942,-0.203618
1630497999541,-0.036722,0.989237,-0.202642
1630497999551,-0.036661,0.989969,-0.20197099999999998
1630497999561,-0.03599,0.989908,-0.20197099999999998
1630497999570,-0.034221,0.990457,-0.20374
1630497999580,-0.033916,0.990518,-0.20374
1630497999589,-0.034709,0.987773,-0.20319099999999998
1630497999599,-0.034709,0.987224,-0.202764
1630497999609,-0.034404,0.986675,-0.20349599999999998
1630497999618,-0.034038,0.986309,-0.204716
1630497999628,-0.034159999999999996,0.986675,-0.205448
1630497999637,-0.033062,0.98576,-0.205265
1630497999647,-0.03294,0.986736,-0.205082
1630497999657,-0.033062,0.9846619999999999,-0.204045
1630497999666,-0.03294,0.9831369999999999,-0.203984
1630497999676,-0.032452,0.986858,-0.206363
1630497999685,-0.030987999999999998,0.988566,-0.209169
1630497999695,-0.03294,0.98759,-0.209901
1630497999705,-0.03477,0.9834419999999999,-0.205204
1630497999714,-0.035502,0.98332,-0.204289
1630497999724,-0.033184,0.985211,-0.206058
1630497999733,-0.032818,0.986858,-0.206729
1630497999743,-0.03233,0.987712,-0.20752199999999998
1630497999753,-0.032269,0.988078,-0.20782699999999998
1630497999762,-0.034404,0.988078,-0.207888
1630497999772,-0.034282,0.986736,-0.207949
1630497999781,-0.034709,0.986431,-0.20801
1630497999791,-0.033672,0.986675,-0.20679
1630497999801,-0.034709,0.987224,-0.207034
1630497999810,-0.033977,0.9882,-0.207644
1630497999820,-0.034159999999999996,0.987163,-0.207644
1630497999829,-0.033794,0.988139,-0.207949
1630497999839,-0.035318999999999996,0.988749,-0.208071
1630497999849,-0.03477,0.988139,-0.20904699999999998
1630497999858,-0.035197,0.986736,-0.209596
1630497999868,-0.035013999999999997,0.987712,-0.209535
1630497999877,-0.034038,0.987773,-0.20862
1630497999887,-0.033916,0.986675,-0.208193
1630497999897,-0.033549999999999996,0.987224,-0.207583
1630497999906,-0.032818,0.987163,-0.206363
1630497999916,-0.033306,0.9882,-0.20569199999999999
1630497999925,-0.033489,0.988627,-0.20599699999999999
1630497999935,-0.032757,0.9882,-0.205204
1630497999945,-0.033184,0.988078,-0.205631
1630497999954,-0.033123,0.987651,-0.206424
1630497999964,-0.033001,0.987773,-0.206546
1630497999973,-0.033854999999999996,0.986431,-0.206668
1630497999983,-0.034221,0.9855769999999999,-0.206668
1630497999993,-0.034404,0.986065,-0.207339
1630498000002,-0.033184,0.987834,-0.20752199999999998
1630498000012,-0.032085999999999996,0.987834,-0.20752199999999998
1630498000021,-0.032452,0.986614,-0.208376
1630498000031,-0.03294,0.982954,-0.207949
1630498000041,-0.034343,0.983198,-0.20996199999999998
1630498000050,-0.03233,0.9861869999999999,-0.212646
1630498000060,-0.031537,0.987346,-0.213195
1630498000069,-0.033184,0.983564,-0.207156
1630498000079,-0.035623999999999996,0.9803919999999999,-0.202764
1630498000089,-0.033916,0.982466,-0.20288599999999998
1630498000098,-0.030866,0.985394,-0.203862
1630498000108,-0.029646,0.987895,-0.206058
1630498000117,-0.028121,0.99003,-0.207095
1630498000127,-0.029646,0.9907009999999999,-0.207156
1630498000137,-0.029341,0.989603,-0.205631
1630498000146,-0.030622,0.987956,-0.20374
1630498000156,-0.030255999999999998,0.988322,-0.203374
1630498000165,-0.029828999999999998,0.988078,-0.203618
1630498000175,-0.028548,0.988505,-0.20410599999999998
1630498000185,-0.029828999999999998,0.98881,-0.205082
1630498000194,-0.029523999999999998,0.9882,-0.20496
1630498000204,-0.030439,0.9867969999999999,-0.204899
1630498000213,-0.030317,0.986736,-0.205631
1630498000223,-0.02989,0.986553,-0.20691199999999998
1630498000233,-0.029523999999999998,0.986126,-0.207339
1630498000242,-0.029707,0.985699,-0.20813199999999998
1630498000252,-0.0305,0.985333,-0.20843699999999998
1630498000261,-0.029768,0.9858819999999999,-0.206546
1630498000271,-0.029828999999999998,0.984723,-0.20630199999999999
1630498000281,-0.030744,0.9849669999999999,-0.207156
1630498000290,-0.029646,0.986919,-0.208498
1630498000300,-0.029707,0.987529,-0.211609
1630498000309,-0.030805,0.987407,-0.209474
1630498000319,-0.031354,0.985943,-0.20752199999999998
1630498000329,-0.0305,0.986309,-0.2074
1630498000338,-0.030683,0.9867969999999999,-0.208193
1630498000348,-0.030317,0.986431,-0.20843699999999998
1630498000357,-0.030927,0.987163,-0.208864
1630498000367,-0.030805,0.987285,-0.210084
1630498000377,-0.031476,0.987041,-0.210084
1630498000386,-0.031537,0.986431,-0.21045
1630498000396,-0.032025,0.9858819999999999,-0.211426
1630498000405,-0.030866,0.984784,-0.210267
1630498000415,-0.031903,0.984418,-0.20996199999999998
1630498000425,-0.031293,0.984845,-0.210328
1630498000434,-0.032818,0.984479,-0.210145
1630498000444,-0.032635,0.984418,-0.210511
1630498000453,-0.034159999999999996,0.985089,-0.211792
1630498000463,-0.033794,0.985638,-0.212524
1630498000473,-0.033001,0.985943,-0.212341
1630498000482,-0.032879,0.9855769999999999,-0.213012
1630498000492,-0.03294,0.987163,-0.21307299999999998
1630498000501,-0.032695999999999996,0.987041,-0.212829
1630498000511,-0.032574,0.9871019999999999,-0.21215799999999999
1630498000521,-0.033001,0.9864919999999999,-0.21154799999999999
1630498000530,-0.032513,0.98637,-0.21045
1630498000540,-0.032025,0.986431,-0.210328
1630498000549,-0.031842,0.986248,-0.209169
1630498000559,-0.03111,0.98576,-0.208803
1630498000569,-0.031781,0.986675,-0.207705
1630498000578,-0.030927,0.985943,-0.207278
1630498000588,-0.030622,0.986675,-0.207461
1630498000597,-0.030317,0.987529,-0.206973
1630498000607,-0.02989,0.98759,-0.207339
1630498000617,-0.030378,0.985638,-0.207949
1630498000626,-0.030987999999999998,0.985943,-0.207888
1630498000636,-0.031049,0.987346,-0.20843699999999998
1630498000645,-0.030560999999999998,0.987773,-0.207888
1630498000655,-0.02989,0.987956,-0.206546
1630498000665,-0.02928,0.989237,-0.207583
1630498000674,-0.02989,0.986065,-0.206668
1630498000684,-0.029402,0.9858819999999999,-0.208254
1630498000693,-0.028914,0.98881,-0.210816
1630498000703,-0.029158,0.988627,-0.21106
1630498000713,-0.031659,0.984113,-0.206668
1630498000722,-0.032269,0.981795,-0.20313
1630498000732,-0.030622,0.983015,-0.20435
1630498000741,-0.029036,0.987041,-0.205875
1630498000751,-0.027206,0.989237,-0.206851
1630498000761,-0.025986,0.9897859999999999,-0.20691199999999998
1630498000770,-0.02684,0.990274,-0.207461
1630498000780,-0.027999,0.988749,-0.205814
1630498000789,-0.027816,0.9891759999999999,-0.20374
1630498000799,-0.027327999999999998,0.989298,-0.203069
1630498000809,-0.025925,0.988688,-0.20252
1630498000818,-0.025986,0.98881,-0.202703
1630498000828,-0.025742,0.988566,-0.203252
1630498000837,-0.02623,0.988383,-0.20349599999999998
1630498000847,-0.026535,0.987834,-0.20569199999999999
1630498000857,-0.026474,0.986431,-0.206119
1630498000866,-0.027145,0.9858819999999999,-0.205936
1630498000876,-0.027572,0.985638,-0.206485
1630498000885,-0.02684,0.986004,-0.207156
1630498000895,-0.026657,0.98637,-0.20691199999999998
1630498000905,-0.027572,0.984784,-0.206119
1630498000914,-0.02684,0.984906,-0.207095
1630498000924,-0.027511,0.987834,-0.20862
1630498000933,-0.027206,0.989725,-0.211609
1630498000943,-0.028121,0.987956,-0.21106
1630498000953,-0.029523999999999998,0.9861869999999999,-0.207766
1630498000962,-0.029096999999999998,0.986004,-0.20721699999999998
1630498000972,-0.028304,0.986858,-0.207461
1630498000981,-0.028182,0.987346,-0.208193
1630498000991,-0.027694,0.987956,-0.20984
1630498001001,-0.028609,0.987041,-0.210084
1630498001010,-0.028975,0.986065,-0.212036
1630498001020,-0.029828999999999998,0.9858819999999999,-0.211243
1630498001029,-0.029646,0.986126,-0.210328
1630498001039,-0.029158,0.9864919999999999,-0.210084
1630498001049,-0.029523999999999998,0.985638,-0.210511
1630498001058,-0.029219,0.985821,-0.20984
1630498001068,-0.030317,0.986248,-0.209718
1630498001077,-0.030560999999999998,0.986858,-0.210877
1630498001087,-0.030987999999999998,0.987651,-0.21045
1630498001097,-0.030378,0.9871019999999999,-0.210511
1630498001106,-0.030987999999999998,0.988322,-0.211304
1630498001116,-0.030987999999999998,0.989725,-0.211975
1630498001125,-0.030805,0.990152,-0.21215799999999999
1630498001135,-0.031537,0.987834,-0.212402
1630498001145,-0.032390999999999996,0.98759,-0.210999
1630498001154,-0.032513,0.987163,-0.21045
1630498001164,-0.032390999999999996,0.98637,-0.21167
1630498001173,-0.032208,0.985394,-0.211792
1630498001183,-0.032452,0.986065,-0.210938
1630498001193,-0.032574,0.984418,-0.211304
1630498001202,-0.032695999999999996,0.9837469999999999,-0.21045
1630498001212,-0.032025,0.983625,-0.210572
1630498001221,-0.03233,0.983869,-0.210633
1630498001231,-0.031964,0.984113,-0.210816
1630498001241,-0.030378,0.984723,-0.210816
1630498001250,-0.0305,0.9852719999999999,-0.211304
1630498001260,-0.031903,0.985394,-0.210938
1630498001269,-0.032513,0.984174,-0.210267
1630498001279,-0.031781,0.984418,-0.210572
1630498001289,-0.031476,0.986004,-0.210999
1630498001298,-0.031171,0.9864919999999999,-0.210694
1630498001308,-0.031354,0.985638,-0.20996199999999998
1630498001317,-0.031842,0.98698,-0.210328
1630498001327,-0.030622,0.986675,-0.20935199999999998
1630498001337,-0.030866,0.987041,-0.20801
1630498001346,-0.029219,0.9882,-0.208254
1630498001356,-0.028243,0.986004,-0.208559
1630498001365,-0.029463,0.983991,-0.20862
1630498001375,-0.02928,0.987346,-0.210877
1630498001385,-0.029036,0.989298,-0.213439
1630498001394,-0.030134,0.986736,-0.209169
1630498001404,-0.032452,0.983076,-0.204289
1630498001413,-0.030987999999999998,0.985333,-0.203252
1630498001423,-0.028426,0.988566,-0.205204
1630498001433,-0.026352,0.990884,-0.206363
1630498001442,-0.026168999999999998,0.9922259999999999,-0.205814
1630498001452,-0.025986,0.9910059999999999,-0.20599699999999999
1630498001461,-0.026291,0.9897859999999999,-0.205021
1630498001471,-0.027511,0.98881,-0.204533
1630498001481,-0.026779,0.989664,-0.20374
1630498001490,-0.026291,0.987895,-0.20435
1630498001500,-0.026291,0.988078,-0.204411
1630498001509,-0.027145,0.98759,-0.20569199999999999
1630498001519,-0.026779,0.98698,-0.206363
1630498001529,-0.027267,0.986614,-0.20691199999999998
1630498001538,-0.027816,0.986614,-0.207339
1630498001548,-0.02867,0.984723,-0.20679
1630498001557,-0.028791999999999998,0.985394,-0.20691199999999998
1630498001567,-0.028243,0.986431,-0.20660699999999999
1630498001577,-0.027511,0.985638,-0.206851
1630498001586,-0.028791999999999998,0.983869,-0.205753
1630498001596,-0.02989,0.983686,-0.207888
1630498001605,-0.028548,0.986858,-0.210877
1630498001615,-0.029828999999999998,0.988078,-0.213317
1630498001625,-0.031171,0.985333,-0.209474
1630498001634,-0.031293,0.9843569999999999,-0.208071
1630498001644,-0.031293,0.9858819999999999,-0.208376
1630498001653,-0.030073,0.988078,-0.207644
1630498001663,-0.028548,0.987956,-0.208254
1630498001673,-0.028731,0.9888709999999999,-0.208559
1630498001682,-0.029219,0.988749,-0.208864
1630498001692,-0.028853,0.9867969999999999,-0.209474
1630498001701,-0.029523999999999998,0.985455,-0.208803
1630498001711,-0.029523999999999998,0.986431,-0.208864
1630498001721,-0.028059999999999998,0.985089,-0.208803
1630498001730,-0.028121,0.9852719999999999,-0.208864
1630498001740,-0.027816,0.985394,-0.20862
1630498001749,-0.028487,0.98576,-0.20801
1630498001759,-0.027694,0.986736,-0.20843699999999998
1630498001769,-0.027572,0.986858,-0.207644
1630498001778,-0.028304,0.988078,-0.207095
1630498001788,-0.027694,0.9891759999999999,-0.207949
1630498001797,-0.027755,0.989298,-0.20813199999999998
1630498001807,-0.027816,0.989298,-0.20862
1630498001817,-0.029341,0.989054,-0.208925
1630498001826,-0.028304,0.988505,-0.208681
