timestamp,ax,ay,az
1630497978059,-0.080078125,-0.01568603515625,1.01824951171875
1630497978059,-0.091552734375,-0.00390625,0.98492431640625
1630497978060,-0.10260009765625,0.0101318359375,0.97357177734375
1630497978095,-0.094482421875,0.01580810546875,0.98712158203125
1630497978095,-0.08062744140625,0.00909423828125,1.01116943359375
1630497978095,-0.08599853515625,0.0128173828125,0.9752197265625
1630497978157,-0.0947265625,0.0128173828125,0.99566650390625
1630497978159,-0.08868408203125,0.02105712890625,0.98907470703125
1630497978166,-0.08465576171875,0.01959228515625,0.995361328125
1630497978203,-0.08880615234375,0.01641845703125,0.99627685546875
1630497978203,-0.083740234375,0.01678466796875,0.99755859375
1630497978203,-0.07745361328125,0.0142822265625,0.9884033203125
1630497978291,-0.08953857421875,0.01715087890625,1.00927734375
1630497978291,-0.08154296875,0.01806640625,0.99493408203125
1630497978291,-0.0765380859375,0.02288818359375,1.0147705078125
1630497978307,-0.07183837890625,0.0179443359375,0.99188232421875
1630497978307,-0.07073974609375,0.0181884765625,0.986328125
1630497978308,-0.06976318359375,0.0179443359375,0.99591064453125
1630497978371,-0.0682373046875,0.01568603515625,0.98504638671875
1630497978371,-0.066650390625,0.01214599609375,0.989990234375
1630497978373,-0.06524658203125,0.0086669921875,0.994384765625
1630497978418,-0.05682373046875,0.01171875,1.019775390625
1630497978436,-0.0498046875,0.01568603515625,1.00299072265625
1630497978437,-0.0574951171875,0.01513671875,1.0247802734375
1630497978507,-0.05279541015625,0.01214599609375,1.00250244140625
1630497978508,-0.0498046875,0.0115966796875,0.99957275390625
1630497978510,-0.05120849609375,0.01519775390625,1.001953125
1630497978541,-0.0538330078125,0.0150146484375,0.99127197265625
1630497978542,-0.05303955078125,0.02520751953125,1.0084228515625
1630497978542,-0.04888916015625,0.01959228515625,0.9981689453125
1630497978608,-0.0518798828125,0.020751953125,1.0130615234375
1630497978609,-0.05474853515625,0.0186767578125,1.0030517578125
1630497978609,-0.056396484375,0.01934814453125,1.0211181640625
1630497978676,-0.0562744140625,0.019775390625,0.9984130859375
1630497978677,-0.06292724609375,0.02008056640625,0.98834228515625
1630497978678,-0.068603515625,0.01629638671875,1.004638671875
1630497978758,-0.05841064453125,0.0225830078125,1.0023193359375
1630497978761,-0.060302734375,0.021484375,1.00616455078125
1630497978761,-0.0592041015625,0.0228271484375,1.0013427734375
1630497978778,-0.06488037109375,0.01788330078125,0.993896484375
1630497978778,-0.06256103515625,0.0198974609375,0.99090576171875
1630497978778,-0.06536865234375,0.0179443359375,0.9954833984375
1630497978825,-0.07672119140625,0.0194091796875,0.9896240234375
1630497978826,-0.0777587890625,0.01654052734375,0.98956298828125
1630497978826,-0.06988525390625,0.02020263671875,0.994140625
1630497978942,-0.0772705078125,0.01702880859375,1.00152587890625
1630497978942,-0.0731201171875,0.0125732421875,1.01025390625
1630497978942,-0.0662841796875,0.01806640625,0.9952392578125
1630497978958,-0.06427001953125,0.0198974609375,0.99951171875
1630497978959,-0.06317138671875,0.0220947265625,1.00067138671875
1630497978962,-0.0672607421875,0.02142333984375,0.9866943359375
1630497979056,-0.06597900390625,0.02105712890625,0.986328125
1630497979057,-0.06219482421875,0.02410888671875,0.9952392578125
1630497979057,-0.06707763671875,0.01995849609375,0.97821044921875
1630497979071,-0.069091796875,0.02703857421875,1.0078125
1630497979074,-0.06396484375,0.0224609375,1.0133056640625
1630497979078,-0.0634765625,0.02569580078125,1.00738525390625
1630497979136,-0.0633544921875,0.0233154296875,1.0048828125
1630497979136,-0.06536865234375,0.02178955078125,1.003662109375
1630497979140,-0.06414794921875,0.02044677734375,0.9969482421875
1630497979182,-0.065673828125,0.02093505859375,0.998046875
1630497979183,-0.0670166015625,0.0194091796875,0.9931640625
1630497979183,-0.06439208984375,0.02691650390625,0.987548828125
1630497979284,-0.06134033203125,0.023193359375,0.98822021484375
1630497979284,-0.0596923828125,0.021240234375,0.99859619140625
1630497979284,-0.05828857421875,0.018798828125,1.0025634765625
1630497979330,-0.05914306640625,0.021484375,1.00189208984375
1630497979330,-0.056884765625,0.02374267578125,1.0018310546875
1630497979345,-0.0587158203125,0.01727294921875,1.00579833984375
1630497979413,-0.06005859375,0.02099609375,1.00762939453125
1630497979414,-0.0589599609375,0.026123046875,1.00201416015625
1630497979414,-0.0579833984375,0.0238037109375,1.00439453125
1630497979434,-0.06317138671875,0.03106689453125,0.99603271484375
1630497979434,-0.06597900390625,0.03021240234375,1.00201416015625
1630497979435,-0.0555419921875,0.0267333984375,1.00341796875
1630497979478,-0.0665283203125,0.02874755859375,0.99566650390625
1630497979478,-0.0687255859375,0.02587890625,0.99713134765625
1630497979492,-0.06396484375,0.02288818359375,1.001953125
1630497979557,-0.064697265625,0.02740478515625,0.9974365234375
1630497979557,-0.06817626953125,0.02862548828125,0.990966796875
1630497979557,-0.06549072265625,0.02325439453125,0.99359130859375
1630497979641,-0.062255859375,0.02410888671875,1.00018310546875
1630497979641,-0.06414794921875,0.02764892578125,1.001953125
1630497979642,-0.06536865234375,0.02886962890625,1.00128173828125
1630497979660,-0.066162109375,0.02813720703125,0.9951171875
1630497979661,-0.06884765625,0.02301025390625,0.997802734375
1630497979668,-0.06390380859375,0.0255126953125,0.99542236328125
1630497979719,-0.0645751953125,0.0238037109375,0.99957275390625
1630497979719,-0.06591796875,0.02374267578125,1.00140380859375
1630497979719,-0.06671142578125,0.0218505859375,0.9976806640625
1630497979791,-0.063232421875,0.02203369140625,1.0013427734375
1630497979792,-0.0626220703125,0.0203857421875,1.0020751953125
1630497979797,-0.06365966796875,0.0213623046875,1.0057373046875
1630497979858,-0.067626953125,0.02685546875,0.9962158203125
1630497979859,-0.06671142578125,0.0255126953125,0.998291015625
1630497979859,-0.0672607421875,0.026123046875,0.9986572265625
1630497979910,-0.06402587890625,0.02618408203125,1.001220703125
1630497979915,-0.0675048828125,0.02630615234375,1.0045166015625
1630497979920,-0.0703125,0.02484130859375,0.99517822265625
1630497979971,-0.069580078125,0.02801513671875,0.99468994140625
1630497979971,-0.0693359375,0.025634765625,0.9893798828125
1630497979971,-0.0694580078125,0.02545166015625,0.99334716796875
1630497980035,-0.0626220703125,0.01934814453125,0.99359130859375
1630497980035,-0.06689453125,0.0205078125,1.0003662109375
1630497980035,-0.06683349609375,0.02081298828125,0.9984130859375
1630497980093,-0.06134033203125,0.0235595703125,1.00421142578125
1630497980093,-0.06060791015625,0.02880859375,0.99603271484375
1630497980094,-0.06353759765625,0.02618408203125,0.99432373046875
1630497980139,-0.05975341796875,0.0289306640625,1.00885009765625
1630497980139,-0.06195068359375,0.02490234375,1.0045166015625
1630497980139,-0.05682373046875,0.0252685546875,1.00762939453125
1630497980206,-0.06982421875,0.02386474609375,1.00030517578125
1630497980206,-0.06512451171875,0.02667236328125,0.99493408203125
1630497980206,-0.0670166015625,0.02471923828125,1.000244140625
1630497980253,-0.0682373046875,0.0208740234375,0.99627685546875
1630497980254,-0.07080078125,0.02130126953125,0.99334716796875
1630497980269,-0.066650390625,0.0206298828125,0.9993896484375
1630497980303,-0.06915283203125,0.02484130859375,0.99359130859375
1630497980303,-0.06634521484375,0.0234375,0.9969482421875
1630497980304,-0.06494140625,0.0228271484375,0.98931884765625
1630497980411,-0.065185546875,0.02557373046875,0.9993896484375
1630497980413,-0.06842041015625,0.025146484375,1.00323486328125
1630497980417,-0.06707763671875,0.0272216796875,1.00201416015625
1630497980445,-0.06719970703125,0.025146484375,1.0008544921875
1630497980448,-0.0662841796875,0.025634765625,1.00347900390625
1630497980450,-0.07049560546875,0.02154541015625,0.99481201171875
1630497980507,-0.0723876953125,0.02294921875,0.99884033203125
1630497980507,-0.07196044921875,0.023681640625,0.99493408203125
1630497980508,-0.07080078125,0.02239990234375,0.99615478515625
1630497980553,-0.07379150390625,0.02410888671875,0.99639892578125
1630497980556,-0.0714111328125,0.025634765625,0.993408203125
1630497980557,-0.069580078125,0.02459716796875,0.99609375
1630497980615,-0.07037353515625,0.02886962890625,0.9981689453125
1630497980616,-0.07373046875,0.02325439453125,0.99664306640625
1630497980631,-0.0694580078125,0.02801513671875,0.9952392578125
1630497980667,-0.06884765625,0.03033447265625,0.9964599609375
1630497980667,-0.06695556640625,0.02880859375,0.9967041015625
1630497980667,-0.0687255859375,0.0277099609375,1.00140380859375
1630497980749,-0.067138671875,0.02197265625,0.9986572265625
1630497980749,-0.06591796875,0.0255126953125,1.00390625
1630497980749,-0.064697265625,0.0279541015625,1.00909423828125
1630497980831,-0.0714111328125,0.01617431640625,0.99517822265625
1630497980831,-0.07415771484375,0.02239990234375,0.99853515625
1630497980867,-0.07568359375,0.0208740234375,0.9970703125
1630497980867,-0.07586669921875,0.01922607421875,0.99615478515625
1630497980868,-0.0755615234375,0.0201416015625,0.995361328125
1630497980914,-0.0736083984375,0.02130126953125,0.9923095703125
1630497980914,-0.07281494140625,0.02459716796875,0.993896484375
1630497980915,-0.07659912109375,0.028564453125,0.9970703125
1630497980977,-0.072998046875,0.025390625,0.9976806640625
1630497980978,-0.07208251953125,0.0277099609375,0.9969482421875
1630497980978,-0.07080078125,0.02374267578125,0.99371337890625
1630497981022,-0.0697021484375,0.022705078125,0.99981689453125
1630497981022,-0.072265625,0.0233154296875,0.9954833984375
1630497981041,-0.0709228515625,0.02447509765625,1.0045166015625
1630497981085,-0.07061767578125,0.0225830078125,1.0
1630497981086,-0.06219482421875,0.0244140625,0.9981689453125
1630497981086,-0.06597900390625,0.02325439453125,1.00140380859375
1630497981148,-0.0662841796875,0.02496337890625,1.01483154296875
1630497981148,-0.06719970703125,0.0240478515625,1.010009765625
1630497981148,-0.062744140625,0.020751953125,1.01190185546875
1630497981195,-0.06195068359375,0.02374267578125,1.00323486328125
1630497981197,-0.06182861328125,0.02392578125,1.00421142578125
1630497981289,-0.0638427734375,0.02313232421875,1.01287841796875
1630497981289,-0.06591796875,0.0257568359375,1.0147705078125
1630497981289,-0.07159423828125,0.02777099609375,1.003662109375
1630497981361,-0.0760498046875,0.03070068359375,1.00360107421875
1630497981361,-0.08709716796875,0.02935791015625,0.9957275390625
1630497981361,-0.07904052734375,0.0291748046875,0.997802734375
1630497981426,-0.087646484375,0.02825927734375,1.00323486328125
1630497981439,-0.088134765625,0.026611328125,1.011474609375
1630497981440,-0.0916748046875,0.02239990234375,1.01318359375
1630497981489,-0.112548828125,0.00823974609375,0.9869384765625
1630497981489,-0.12359619140625,0.01031494140625,0.98980712890625
1630497981490,-0.1094970703125,0.0130615234375,0.98779296875
1630497981492,-0.097412109375,0.02203369140625,0.997314453125
1630497981492,-0.10546875,0.0189208984375,0.9892578125
1630497981493,-0.11993408203125,0.0084228515625,0.9912109375
1630497981551,-0.1273193359375,0.01397705078125,0.98931884765625
1630497981553,-0.13739013671875,0.00921630859375,0.983642578125
1630497981553,-0.12994384765625,0.01129150390625,0.98699951171875
1630497981602,-0.14013671875,0.0108642578125,0.9869384765625
1630497981602,-0.143798828125,0.010498046875,0.97711181640625
1630497981602,-0.13848876953125,0.010498046875,0.98858642578125
1630497981685,-0.15362548828125,0.0118408203125,0.97991943359375
1630497981685,-0.14727783203125,0.01025390625,0.9744873046875
1630497981686,-0.15283203125,0.0054931640625,0.97869873046875
1630497981733,-0.15875244140625,-0.0037841796875,0.980712890625
1630497981733,-0.15802001953125,-0.0032958984375,0.98370361328125
1630497981735,-0.15460205078125,0.0018310546875,0.9810791015625
1630497981822,-0.1513671875,0.00250244140625,0.98333740234375
1630497981822,-0.1536865234375,-0.00054931640625,0.98065185546875
1630497981822,-0.15045166015625,0.00213623046875,0.9869384765625
1630497981854,-0.15643310546875,-0.00341796875,0.98187255859375
1630497981855,-0.151123046875,0.00311279296875,0.9849853515625
1630497981855,-0.1552734375,-0.00323486328125,0.98291015625
1630497981948,-0.16033935546875,0.0013427734375,0.97442626953125
1630497981949,-0.15814208984375,0.00262451171875,0.97998046875
1630497981951,-0.1556396484375,-0.00079345703125,0.97894287109375
1630497981961,-0.16046142578125,-0.0120849609375,0.99090576171875
1630497981961,-0.16156005859375,-0.011474609375,0.985595703125
1630497981962,-0.165771484375,-0.02484130859375,0.9881591796875
1630497982028,-0.16259765625,-0.01361083984375,0.977783203125
1630497982032,-0.1636962890625,-0.02386474609375,0.97833251953125
1630497982033,-0.16241455078125,-0.00494384765625,0.97149658203125
1630497982125,-0.16741943359375,0.01434326171875,0.98583984375
1630497982126,-0.1641845703125,0.0067138671875,0.98358154296875
1630497982126,-0.16400146484375,0.01995849609375,0.98095703125
1630497982193,-0.16436767578125,0.02325439453125,0.983642578125
1630497982193,-0.16473388671875,0.020751953125,0.98468017578125
1630497982193,-0.16534423828125,0.02197265625,0.9849853515625
1630497982210,-0.174072265625,0.00653076171875,0.98138427734375
1630497982210,-0.1693115234375,0.0126953125,0.97894287109375
1630497982211,-0.1708984375,0.01055908203125,0.9835205078125
1630497982240,-0.17779541015625,-0.01123046875,1.00091552734375
1630497982243,-0.18280029296875,-0.025146484375,0.9918212890625
1630497982261,-0.17510986328125,-0.004150390625,0.99481201171875
1630497982339,-0.1905517578125,-0.03253173828125,0.99102783203125
1630497982339,-0.18572998046875,-0.030029296875,0.99066162109375
1630497982343,-0.1923828125,-0.03118896484375,0.98553466796875
1630497982404,-0.20538330078125,-0.0322265625,0.96343994140625
1630497982419,-0.1973876953125,-0.0347900390625,0.98150634765625
1630497982421,-0.20037841796875,-0.028564453125,0.96746826171875
1630497982451,-0.20965576171875,-0.0322265625,0.9696044921875
1630497982466,-0.21612548828125,-0.03753662109375,0.97869873046875
1630497982525,-0.231689453125,-0.0220947265625,0.970703125
1630497982525,-0.2288818359375,-0.03033447265625,0.979736328125
1630497982525,-0.22357177734375,-0.033203125,0.982421875
1630497982592,-0.22650146484375,-0.01202392578125,0.972412109375
1630497982592,-0.2261962890625,-0.01300048828125,0.9635009765625
1630497982593,-0.2283935546875,-0.0135498046875,0.97509765625
1630497982657,-0.2322998046875,-0.00054931640625,0.99114990234375
1630497982658,-0.22698974609375,-0.01007080078125,0.980224609375
1630497982658,-0.228759765625,0.00592041015625,0.984619140625
1630497982658,-0.23492431640625,-0.0045166015625,0.98919677734375
1630497982659,-0.233642578125,-0.0068359375,0.9881591796875
1630497982660,-0.22552490234375,-0.00543212890625,0.97454833984375
1630497982757,-0.2275390625,-0.01812744140625,0.97467041015625
1630497982757,-0.23089599609375,-0.01715087890625,0.9658203125
1630497982758,-0.23858642578125,-0.02703857421875,0.96380615234375
1630497982811,-0.2518310546875,-0.02593994140625,0.9376220703125
1630497982811,-0.2440185546875,-0.0281982421875,0.95452880859375
1630497982811,-0.26190185546875,-0.01983642578125,0.93017578125
1630497982893,-0.27154541015625,-0.01776123046875,0.91839599609375
1630497982902,-0.27545166015625,-0.0263671875,0.90948486328125
1630497982902,-0.28057861328125,-0.023681640625,0.92352294921875
1630497982921,-0.2716064453125,-0.025634765625,0.91668701171875
1630497982922,-0.24615478515625,-0.01422119140625,0.96234130859375
1630497982922,-0.2601318359375,-0.0224609375,0.94158935546875
1630497982968,-0.22869873046875,-0.01544189453125,0.98284912109375
1630497982968,-0.2379150390625,-0.0103759765625,0.97808837890625
1630497982968,-0.2266845703125,-0.02435302734375,0.99346923828125
1630497983061,-0.22430419921875,-0.04241943359375,0.9888916015625
1630497983061,-0.226318359375,-0.04083251953125,0.97711181640625
1630497983062,-0.22052001953125,-0.0316162109375,0.99652099609375
1630497983089,-0.23760986328125,-0.0467529296875,0.96710205078125
1630497983090,-0.250244140625,-0.03704833984375,0.9495849609375
1630497983105,-0.245361328125,-0.0406494140625,0.954833984375
1630497983174,-0.2427978515625,-0.04571533203125,0.96612548828125
1630497983174,-0.25360107421875,-0.036376953125,0.9449462890625
1630497983174,-0.245361328125,-0.04254150390625,0.9527587890625
1630497983207,-0.23468017578125,-0.0401611328125,0.96429443359375
1630497983208,-0.23834228515625,-0.04510498046875,0.9705810546875
1630497983209,-0.236572265625,-0.04095458984375,0.9715576171875
1630497983302,-0.242431640625,-0.035400390625,0.96630859375
1630497983302,-0.239990234375,-0.03521728515625,0.96142578125
1630497983302,-0.23724365234375,-0.0406494140625,0.9652099609375
1630497983319,-0.24615478515625,-0.03607177734375,0.95574951171875
1630497983319,-0.24798583984375,-0.0335693359375,0.94720458984375
1630497983319,-0.252197265625,-0.03271484375,0.9537353515625
1630497983409,-0.23992919921875,-0.03875732421875,0.98211669921875
1630497983409,-0.24383544921875,-0.035888671875,0.96221923828125
1630497983409,-0.23895263671875,-0.03741455078125,0.9681396484375
1630497983442,-0.24163818359375,-0.0479736328125,0.97869873046875
1630497983443,-0.23736572265625,-0.043701171875,0.9686279296875
1630497983443,-0.234375,-0.04345703125,0.96466064453125
1630497983524,-0.23193359375,-0.03564453125,0.9678955078125
1630497983524,-0.23223876953125,-0.03961181640625,0.96905517578125
1630497983525,-0.23333740234375,-0.02734375,0.968505859375
1630497983541,-0.23492431640625,-0.0250244140625,0.96722412109375
1630497983542,-0.23431396484375,-0.02984619140625,0.96087646484375
1630497983542,-0.23065185546875,-0.02545166015625,0.97503662109375
1630497983641,-0.23284912109375,-0.02392578125,0.97796630859375
1630497983643,-0.23297119140625,-0.02264404296875,0.9676513671875
1630497983643,-0.2342529296875,-0.02490234375,0.96246337890625
1630497983707,-0.24285888671875,-0.03582763671875,0.9564208984375
1630497983707,-0.23626708984375,-0.0372314453125,0.96343994140625
1630497983707,-0.24017333984375,-0.03143310546875,0.955810546875
1630497983793,-0.23065185546875,-0.04400634765625,0.97003173828125
1630497983793,-0.22991943359375,-0.03955078125,0.96551513671875
1630497983794,-0.2249755859375,-0.04400634765625,0.97003173828125
1630497983808,-0.22332763671875,-0.041015625,0.97509765625
1630497983808,-0.22918701171875,-0.0426025390625,0.968017578125
1630497983810,-0.22637939453125,-0.043212890625,0.96868896484375
1630497983942,-0.2276611328125,-0.0250244140625,0.96710205078125
1630497983948,-0.2257080078125,-0.0106201171875,0.95819091796875
1630497983950,-0.22998046875,-0.03790283203125,0.983642578125
1630497983950,-0.22467041015625,-0.01165771484375,0.96533203125
1630497983950,-0.224365234375,-0.0306396484375,0.97637939453125
1630497983962,-0.22943115234375,-0.0186767578125,0.95916748046875
1630497983998,-0.2269287109375,-0.010498046875,0.9754638671875
1630497984001,-0.22344970703125,-0.005615234375,0.97021484375
1630497984001,-0.2222900390625,-0.01055908203125,0.96630859375
1630497984058,-0.223388671875,-0.01580810546875,0.9677734375
1630497984061,-0.2242431640625,-0.01275634765625,0.96270751953125
1630497984061,-0.2255859375,-0.01593017578125,0.97198486328125
1630497984073,-0.2130126953125,-0.01556396484375,0.97296142578125
1630497984073,-0.2137451171875,-0.01678466796875,0.9825439453125
1630497984077,-0.212158203125,-0.01904296875,0.9794921875
1630497984189,-0.212890625,-0.0194091796875,0.97869873046875
1630497984189,-0.21148681640625,-0.015625,0.983154296875
1630497984189,-0.2130126953125,-0.02117919921875,0.98126220703125
1630497984255,-0.21063232421875,-0.02032470703125,0.9713134765625
1630497984264,-0.212158203125,-0.01910400390625,0.97601318359375
1630497984264,-0.2135009765625,-0.02362060546875,0.97314453125
1630497984264,-0.21533203125,-0.01922607421875,0.96807861328125
1630497984267,-0.2135009765625,-0.01806640625,0.96917724609375
1630497984270,-0.21734619140625,-0.02130126953125,0.97393798828125
1630497984324,-0.2130126953125,-0.0147705078125,0.97076416015625
1630497984324,-0.2105712890625,-0.01812744140625,0.97344970703125
1630497984324,-0.21160888671875,-0.018798828125,0.97540283203125
1630497984386,-0.2073974609375,-0.01531982421875,0.979736328125
1630497984386,-0.20989990234375,-0.01568603515625,0.9776611328125
1630497984386,-0.210693359375,-0.0164794921875,0.9791259765625
1630497984439,-0.207275390625,-0.01904296875,0.974365234375
1630497984440,-0.21099853515625,-0.018798828125,0.96795654296875
1630497984441,-0.2117919921875,-0.01617431640625,0.97528076171875
1630497984506,-0.21142578125,-0.01324462890625,0.97540283203125
1630497984506,-0.21038818359375,-0.01739501953125,0.97998046875
1630497984506,-0.208740234375,-0.01531982421875,0.9783935546875
1630497984575,-0.21063232421875,-0.01763916015625,0.96630859375
1630497984575,-0.2120361328125,-0.0172119140625,0.9769287109375
1630497984575,-0.2069091796875,-0.017822265625,0.9644775390625
1630497984624,-0.20501708984375,-0.016357421875,0.97479248046875
1630497984624,-0.20263671875,-0.0223388671875,0.98095703125
1630497984624,-0.20794677734375,-0.02105712890625,0.9803466796875
1630497984691,-0.2047119140625,-0.0152587890625,0.9710693359375
1630497984692,-0.2039794921875,-0.020751953125,0.970703125
1630497984692,-0.20587158203125,-0.0206298828125,0.9705810546875
1630497984756,-0.20452880859375,-0.01593017578125,0.98016357421875
1630497984756,-0.20111083984375,-0.01507568359375,0.97808837890625
1630497984756,-0.2025146484375,-0.01910400390625,0.98126220703125
1630497984808,-0.20172119140625,-0.01849365234375,0.97698974609375
1630497984809,-0.20159912109375,-0.02154541015625,0.98040771484375
1630497984809,-0.2003173828125,-0.01715087890625,0.9744873046875
1630497984872,-0.20697021484375,-0.018310546875,0.983154296875
1630497984872,-0.20086669921875,-0.01934814453125,0.97674560546875
1630497984875,-0.20355224609375,-0.0225830078125,0.972900390625
1630497984934,-0.20806884765625,-0.01995849609375,0.97601318359375
1630497984934,-0.20904541015625,-0.02459716796875,0.966552734375
1630497984935,-0.20819091796875,-0.021484375,0.97442626953125
1630497984998,-0.207275390625,-0.02679443359375,0.97137451171875
1630497984999,-0.2064208984375,-0.0191650390625,0.9776611328125
1630497985014,-0.2069091796875,-0.02105712890625,0.9764404296875
1630497985014,-0.20526123046875,-0.0245361328125,0.9755859375
1630497985023,-0.20965576171875,-0.023681640625,0.97064208984375
1630497985023,-0.208740234375,-0.0233154296875,0.97882080078125
1630497985108,-0.2086181640625,-0.02398681640625,0.97283935546875
1630497985108,-0.2088623046875,-0.021728515625,0.97174072265625
1630497985108,-0.2088623046875,-0.02239990234375,0.9749755859375
1630497985175,-0.2069091796875,-0.021728515625,0.967529296875
1630497985175,-0.2103271484375,-0.0179443359375,0.97515869140625
1630497985177,-0.2122802734375,-0.02001953125,0.97686767578125
1630497985206,-0.20965576171875,-0.02044677734375,0.97186279296875
1630497985207,-0.21148681640625,-0.02642822265625,0.96954345703125
1630497985221,-0.21136474609375,-0.02099609375,0.9718017578125
1630497985289,-0.20599365234375,-0.0257568359375,0.97564697265625
1630497985289,-0.208984375,-0.02752685546875,0.96856689453125
1630497985289,-0.21002197265625,-0.027099609375,0.97296142578125
1630497985359,-0.20306396484375,-0.02215576171875,0.97802734375
1630497985378,-0.2041015625,-0.02606201171875,0.9744873046875
1630497985382,-0.20257568359375,-0.025390625,0.978271484375
1630497985407,-0.20361328125,-0.01776123046875,0.9798583984375
1630497985407,-0.20623779296875,-0.01898193359375,0.975341796875
1630497985408,-0.20465087890625,-0.013671875,0.98199462890625
1630497985423,-0.20751953125,-0.01416015625,0.97296142578125
1630497985424,-0.2081298828125,-0.017333984375,0.9720458984375
1630497985424,-0.20660400390625,-0.01654052734375,0.97210693359375
1630497985543,-0.2099609375,-0.0201416015625,0.970458984375
1630497985543,-0.2108154296875,-0.01861572265625,0.97113037109375
1630497985543,-0.209716796875,-0.0206298828125,0.9732666015625
1630497985627,-0.2037353515625,-0.02239990234375,0.9853515625
1630497985628,-0.2034912109375,-0.0220947265625,0.9774169921875
1630497985628,-0.20330810546875,-0.0235595703125,0.9859619140625
1630497985629,-0.2061767578125,-0.0157470703125,0.97528076171875
1630497985629,-0.208740234375,-0.02349853515625,0.97332763671875
1630497985629,-0.20330810546875,-0.018310546875,0.98193359375
1630497985733,-0.2032470703125,-0.01849365234375,0.96661376953125
1630497985733,-0.21124267578125,-0.015625,0.96881103515625
1630497985734,-0.20684814453125,-0.01953125,0.9715576171875
1630497985765,-0.20751953125,-0.01251220703125,0.9705810546875
1630497985765,-0.2100830078125,-0.012451171875,0.9722900390625
1630497985766,-0.20855712890625,-0.0155029296875,0.971923828125
1630497985827,-0.2069091796875,-0.018310546875,0.9737548828125
1630497985827,-0.20709228515625,-0.016845703125,0.9739990234375
1630497985827,-0.205322265625,-0.01922607421875,0.970458984375
1630497985874,-0.20855712890625,-0.01776123046875,0.973388671875
1630497985874,-0.2095947265625,-0.02166748046875,0.97357177734375
1630497985874,-0.2039794921875,-0.01629638671875,0.9737548828125
1630497985941,-0.20379638671875,-0.02630615234375,0.97235107421875
1630497985942,-0.20684814453125,-0.0177001953125,0.97369384765625
1630497985943,-0.203125,-0.018310546875,0.9774169921875
1630497985985,-0.201416015625,-0.0198974609375,0.9798583984375
1630497985985,-0.19805908203125,-0.0201416015625,0.9794921875
1630497985985,-0.19610595703125,-0.02099609375,0.97998046875
1630497986096,-0.19842529296875,-0.01690673828125,0.97344970703125
1630497986096,-0.1995849609375,-0.01416015625,0.98114013671875
1630497986096,-0.2000732421875,-0.0166015625,0.97552490234375
1630497986174,-0.1964111328125,-0.01739501953125,0.9776611328125
1630497986175,-0.19561767578125,-0.0213623046875,0.9759521484375
1630497986175,-0.19970703125,-0.018310546875,0.9735107421875
1630497986175,-0.1944580078125,-0.01959228515625,0.972412109375
1630497986175,-0.193603515625,-0.0203857421875,0.97601318359375
1630497986177,-0.19683837890625,-0.0159912109375,0.97772216796875
1630497986245,-0.196044921875,-0.018310546875,0.98052978515625
1630497986249,-0.19281005859375,-0.01678466796875,0.97735595703125
1630497986250,-0.1929931640625,-0.0177001953125,0.98272705078125
1630497986303,-0.19378662109375,-0.0162353515625,0.9761962890625
1630497986303,-0.19757080078125,-0.01708984375,0.98065185546875
1630497986303,-0.194580078125,-0.0167236328125,0.9805908203125
1630497986343,-0.19744873046875,-0.0172119140625,0.9757080078125
1630497986343,-0.20001220703125,-0.01953125,0.973388671875
1630497986344,-0.19482421875,-0.01629638671875,0.97515869140625
1630497986394,-0.19757080078125,-0.01611328125,0.97540283203125
1630497986394,-0.1966552734375,-0.01812744140625,0.97210693359375
1630497986395,-0.19805908203125,-0.01495361328125,0.9735107421875
1630497986470,-0.19927978515625,-0.0111083984375,0.97930908203125
1630497986470,-0.1995849609375,-0.01397705078125,0.97393798828125
1630497986472,-0.19842529296875,-0.0145263671875,0.9818115234375
1630497986558,-0.1964111328125,-0.0108642578125,0.9820556640625
1630497986558,-0.1949462890625,-0.01251220703125,0.98223876953125
1630497986559,-0.19610595703125,-0.014404296875,0.988525390625
1630497986591,-0.19793701171875,-0.01885986328125,0.98291015625
1630497986591,-0.1954345703125,-0.01318359375,0.97393798828125
1630497986591,-0.1953125,-0.0137939453125,0.97357177734375
1630497986656,-0.1910400390625,-0.016357421875,0.97955322265625
1630497986656,-0.19696044921875,-0.0133056640625,0.97491455078125
1630497986656,-0.19287109375,-0.01153564453125,0.975341796875
1630497986725,-0.1951904296875,-0.0223388671875,0.9764404296875
1630497986725,-0.1920166015625,-0.01702880859375,0.97637939453125
1630497986725,-0.1904296875,-0.0179443359375,0.97479248046875
1630497986756,-0.19830322265625,-0.02008056640625,0.97552490234375
1630497986757,-0.1959228515625,-0.02001953125,0.9749755859375
1630497986759,-0.1947021484375,-0.01629638671875,0.9765625
1630497986787,-0.2021484375,-0.0208740234375,0.9754638671875
1630497986787,-0.1964111328125,-0.01910400390625,0.97503662109375
1630497986788,-0.1956787109375,-0.01971435546875,0.9783935546875
1630497986850,-0.198486328125,-0.01593017578125,0.983154296875
1630497986851,-0.1944580078125,-0.02093505859375,0.9814453125
1630497986851,-0.1968994140625,-0.0177001953125,0.98333740234375
1630497986912,-0.2032470703125,-0.01483154296875,0.9749755859375
1630497986912,-0.19964599609375,-0.0159912109375,0.98028564453125
1630497986912,-0.2005615234375,-0.01318359375,0.97784423828125
1630497986976,-0.20294189453125,-0.01220703125,0.97332763671875
1630497986977,-0.2060546875,-0.0152587890625,0.96588134765625
1630497986978,-0.20404052734375,-0.01611328125,0.96978759765625
1630497987037,-0.20721435546875,-0.0184326171875,0.95928955078125
1630497987037,-0.20550537109375,-0.02166748046875,0.96466064453125
1630497987038,-0.2056884765625,-0.023193359375,0.97186279296875
1630497987086,-0.193115234375,-0.02374267578125,0.97991943359375
1630497987086,-0.1990966796875,-0.020263671875,0.97735595703125
1630497987086,-0.1953125,-0.02783203125,0.97747802734375
1630497987160,-0.20001220703125,-0.02520751953125,0.97943115234375
1630497987160,-0.1993408203125,-0.02764892578125,0.98321533203125
1630497987160,-0.1986083984375,-0.02484130859375,0.9786376953125
1630497987254,-0.19464111328125,-0.01605224609375,0.97589111328125
1630497987254,-0.1943359375,-0.021240234375,0.97637939453125
1630497987262,-0.1962890625,-0.0284423828125,0.98260498046875
1630497987286,-0.19329833984375,-0.016845703125,0.97747802734375
1630497987293,-0.19354248046875,-0.0167236328125,0.97674560546875
1630497987293,-0.18927001953125,-0.017333984375,0.9825439453125
1630497987375,-0.19281005859375,-0.0155029296875,0.98358154296875
1630497987377,-0.19390869140625,-0.01519775390625,0.975341796875
1630497987379,-0.18804931640625,-0.01251220703125,0.98095703125
1630497987411,-0.1942138671875,-0.017333984375,0.96820068359375
1630497987423,-0.19781494140625,-0.0223388671875,0.9715576171875
1630497987427,-0.19207763671875,-0.02227783203125,0.97442626953125
1630497987523,-0.1912841796875,-0.02227783203125,0.97845458984375
1630497987531,-0.19390869140625,-0.02386474609375,0.97674560546875
1630497987536,-0.18536376953125,-0.01959228515625,0.9833984375
1630497987536,-0.19586181640625,-0.02032470703125,0.97320556640625
1630497987540,-0.18914794921875,-0.02435302734375,0.98382568359375
1630497987541,-0.1895751953125,-0.01605224609375,0.98388671875
1630497987600,-0.1890869140625,-0.01300048828125,0.983154296875
1630497987604,-0.19073486328125,-0.01580810546875,0.98577880859375
1630497987604,-0.19024658203125,-0.019287109375,0.98284912109375
1630497987645,-0.19293212890625,-0.01690673828125,0.98162841796875
1630497987645,-0.19219970703125,-0.01763916015625,0.98211669921875
1630497987645,-0.19036865234375,-0.01654052734375,0.98382568359375
1630497987742,-0.19329833984375,-0.0213623046875,0.97613525390625
1630497987757,-0.192626953125,-0.0208740234375,0.96978759765625
1630497987759,-0.1898193359375,-0.0225830078125,0.975830078125
1630497987760,-0.1947021484375,-0.02154541015625,0.97259521484375
1630497987766,-0.1923828125,-0.02447509765625,0.97216796875
1630497987768,-0.19049072265625,-0.0205078125,0.97857666015625
1630497987826,-0.19366455078125,-0.02105712890625,0.97735595703125
1630497987827,-0.197021484375,-0.01910400390625,0.972900390625
1630497987827,-0.18951416015625,-0.0238037109375,0.97637939453125
1630497987893,-0.1854248046875,-0.0169677734375,0.984619140625
1630497987894,-0.18621826171875,-0.0184326171875,0.98199462890625
1630497987894,-0.19000244140625,-0.0225830078125,0.98065185546875
1630497987989,-0.1842041015625,-0.020751953125,0.98248291015625
1630497987989,-0.18170166015625,-0.0196533203125,0.9873046875
1630497987989,-0.186279296875,-0.01806640625,0.9849853515625
1630497988023,-0.1888427734375,-0.0234375,0.97833251953125
1630497988023,-0.1861572265625,-0.0155029296875,0.98419189453125
1630497988024,-0.18560791015625,-0.0181884765625,0.98272705078125
1630497988040,-0.19622802734375,-0.0263671875,0.9755859375
1630497988043,-0.19110107421875,-0.0213623046875,0.97735595703125
1630497988044,-0.1932373046875,-0.023193359375,0.97784423828125
1630497988107,-0.19671630859375,-0.0218505859375,0.96905517578125
1630497988108,-0.19671630859375,-0.022705078125,0.9718017578125
1630497988110,-0.198974609375,-0.02374267578125,0.96905517578125
1630497988174,-0.19354248046875,-0.02362060546875,0.97393798828125
1630497988174,-0.19219970703125,-0.02166748046875,0.97998046875
1630497988174,-0.1903076171875,-0.0223388671875,0.9822998046875
1630497988207,-0.1934814453125,-0.02435302734375,0.984130859375
1630497988207,-0.192626953125,-0.0247802734375,0.9810791015625
1630497988209,-0.19354248046875,-0.0208740234375,0.97991943359375
1630497988269,-0.192626953125,-0.023193359375,0.9808349609375
1630497988269,-0.193603515625,-0.02197265625,0.976318359375
1630497988269,-0.1923828125,-0.0213623046875,0.977783203125
1630497988325,-0.19561767578125,-0.01763916015625,0.97528076171875
1630497988325,-0.195556640625,-0.0189208984375,0.97332763671875
1630497988325,-0.194580078125,-0.014892578125,0.9739990234375
1630497988425,-0.19451904296875,-0.01898193359375,0.9725341796875
1630497988434,-0.1947021484375,-0.02032470703125,0.97833251953125
1630497988434,-0.19146728515625,-0.01458740234375,0.97613525390625
1630497988440,-0.19317626953125,-0.01861572265625,0.97979736328125
1630497988444,-0.19287109375,-0.0177001953125,0.975341796875
1630497988444,-0.193359375,-0.02374267578125,0.97515869140625
1630497988551,-0.18841552734375,-0.0150146484375,0.9783935546875
1630497988551,-0.185546875,-0.01971435546875,0.97979736328125
1630497988568,-0.18487548828125,-0.0181884765625,0.9833984375
1630497988613,-0.18499755859375,-0.0142822265625,0.986083984375
1630497988614,-0.1865234375,-0.0167236328125,0.984130859375
1630497988617,-0.1842041015625,-0.015869140625,0.981201171875
1630497988645,-0.18267822265625,-0.018798828125,0.98004150390625
1630497988645,-0.18927001953125,-0.017578125,0.98248291015625
1630497988646,-0.18475341796875,-0.01788330078125,0.979248046875
1630497988694,-0.192626953125,-0.02020263671875,0.981689453125
1630497988697,-0.1915283203125,-0.02130126953125,0.97674560546875
1630497988697,-0.19195556640625,-0.0194091796875,0.974609375
1630497988755,-0.19012451171875,-0.01568603515625,0.97857666015625
1630497988755,-0.1922607421875,-0.01885986328125,0.9791259765625
1630497988756,-0.19317626953125,-0.0142822265625,0.9766845703125
1630497988800,-0.189453125,-0.01568603515625,0.9803466796875
1630497988800,-0.18597412109375,-0.017578125,0.9793701171875
1630497988802,-0.18701171875,-0.01806640625,0.9814453125
1630497988873,-0.19219970703125,-0.0181884765625,0.9761962890625
1630497988874,-0.1895751953125,-0.0191650390625,0.97686767578125
1630497988874,-0.1890869140625,-0.0179443359375,0.9815673828125
1630497988939,-0.1923828125,-0.0174560546875,0.97796630859375
1630497988939,-0.19049072265625,-0.01904296875,0.9765625
1630497988939,-0.19171142578125,-0.0150146484375,0.9793701171875
1630497988977,-0.19268798828125,-0.01708984375,0.9742431640625
1630497988977,-0.19000244140625,-0.0142822265625,0.97381591796875
1630497988979,-0.18975830078125,-0.015380859375,0.97491455078125
1630497989069,-0.1895751953125,-0.01727294921875,0.97613525390625
1630497989069,-0.19171142578125,-0.0130615234375,0.98492431640625
1630497989071,-0.1883544921875,-0.00946044921875,0.97503662109375
1630497989111,-0.18701171875,-0.014404296875,0.97515869140625
1630497989111,-0.18377685546875,-0.0155029296875,0.98101806640625
1630497989111,-0.1876220703125,-0.01434326171875,0.97283935546875
1630497989175,-0.17901611328125,-0.014892578125,0.984375
1630497989175,-0.18328857421875,-0.0181884765625,0.9873046875
1630497989175,-0.18218994140625,-0.0155029296875,0.982421875
1630497989226,-0.18463134765625,-0.0142822265625,0.977783203125
1630497989226,-0.18475341796875,-0.0135498046875,0.98309326171875
1630497989226,-0.187255859375,-0.01617431640625,0.97723388671875
1630497989337,-0.1876220703125,-0.01275634765625,0.97821044921875
1630497989338,-0.18475341796875,-0.015380859375,0.978271484375
1630497989338,-0.188720703125,-0.012451171875,0.9786376953125
1630497989338,-0.18841552734375,-0.0157470703125,0.9779052734375
1630497989338,-0.1878662109375,-0.011474609375,0.982177734375
1630497989348,-0.1851806640625,-0.0152587890625,0.97894287109375
1630497989418,-0.1834716796875,-0.01446533203125,0.98321533203125
1630497989465,-0.18682861328125,-0.0130615234375,0.98193359375
1630497989465,-0.19000244140625,-0.0125732421875,0.98089599609375
1630497989465,-0.1873779296875,-0.01422119140625,0.9833984375
1630497989552,-0.18951416015625,-0.01605224609375,0.9794921875
1630497989568,-0.18994140625,-0.0133056640625,0.97747802734375
1630497989570,-0.19024658203125,-0.0146484375,0.98101806640625
1630497989583,-0.19232177734375,-0.01336669921875,0.9774169921875
1630497989600,-0.1925048828125,-0.0118408203125,0.974365234375
1630497989605,-0.19317626953125,-0.01116943359375,0.978515625
1630497989646,-0.19268798828125,-0.010009765625,0.97967529296875
1630497989655,-0.19390869140625,-0.01519775390625,0.97857666015625
1630497989662,-0.19122314453125,-0.00787353515625,0.97479248046875
1630497989725,-0.18701171875,-0.01666259765625,0.9736328125
1630497989725,-0.18914794921875,-0.0123291015625,0.9735107421875
1630497989725,-0.18707275390625,-0.00927734375,0.97808837890625
1630497989757,-0.18988037109375,-0.01409912109375,0.98028564453125
1630497989757,-0.18328857421875,-0.01580810546875,0.988525390625
1630497989757,-0.1859130859375,-0.0126953125,0.98565673828125
1630497989857,-0.19049072265625,-0.01654052734375,0.97735595703125
1630497989857,-0.18927001953125,-0.019287109375,0.981689453125
1630497989858,-0.1865234375,-0.021728515625,0.9822998046875
1630497989858,-0.18701171875,-0.01165771484375,0.98577880859375
1630497989859,-0.18804931640625,-0.01519775390625,0.98553466796875
1630497989859,-0.1907958984375,-0.01287841796875,0.978759765625
1630497989973,-0.19305419921875,-0.02288818359375,0.98297119140625
1630497989978,-0.1898193359375,-0.0164794921875,0.98065185546875
1630497989979,-0.19293212890625,-0.0179443359375,0.98095703125
1630497990003,-0.1949462890625,-0.01470947265625,0.9786376953125
1630497990003,-0.1961669921875,-0.0162353515625,0.9783935546875
1630497990003,-0.19677734375,-0.01629638671875,0.97894287109375
1630497990034,-0.2005615234375,-0.0167236328125,0.97271728515625
1630497990034,-0.202392578125,-0.0179443359375,0.970703125
1630497990035,-0.1949462890625,-0.01812744140625,0.979736328125
1630497990116,-0.20025634765625,-0.0174560546875,0.97265625
1630497990116,-0.20391845703125,-0.0189208984375,0.97259521484375
1630497990116,-0.20074462890625,-0.01629638671875,0.9698486328125
1630497990190,-0.20416259765625,-0.01190185546875,0.96478271484375
1630497990190,-0.20660400390625,-0.0115966796875,0.9696044921875
1630497990190,-0.20343017578125,-0.01690673828125,0.97125244140625
1630497990285,-0.203857421875,-0.01544189453125,0.98199462890625
1630497990285,-0.19677734375,-0.019775390625,0.9776611328125
1630497990285,-0.2020263671875,-0.0167236328125,0.97589111328125
1630497990285,-0.20062255859375,-0.0125732421875,0.97515869140625
1630497990285,-0.1951904296875,-0.01788330078125,0.97711181640625
1630497990285,-0.19830322265625,-0.01483154296875,0.9759521484375
1630497990404,-0.195556640625,-0.0179443359375,0.97430419921875
1630497990404,-0.19305419921875,-0.01312255859375,0.98333740234375
1630497990404,-0.19439697265625,-0.0179443359375,0.978515625
1630497990404,-0.19525146484375,-0.0120849609375,0.9798583984375
1630497990404,-0.19439697265625,-0.02081298828125,0.9808349609375
1630497990404,-0.19464111328125,-0.0167236328125,0.97509765625
1630497990514,-0.19830322265625,-0.0206298828125,0.97967529296875
1630497990514,-0.1964111328125,-0.017822265625,0.97900390625
1630497990514,-0.1932373046875,-0.017333984375,0.974609375
1630497990514,-0.19482421875,-0.01861572265625,0.97515869140625
1630497990514,-0.19189453125,-0.0169677734375,0.97705078125
1630497990529,-0.19390869140625,-0.0185546875,0.975341796875
1630497990607,-0.1947021484375,-0.01397705078125,0.98211669921875
1630497990607,-0.19464111328125,-0.01251220703125,0.97967529296875
1630497990639,-0.19696044921875,-0.01318359375,0.98004150390625
1630497990639,-0.19219970703125,-0.01483154296875,0.987060546875
1630497990639,-0.19171142578125,-0.01409912109375,0.9842529296875
1630497990686,-0.20166015625,-0.01556396484375,0.97491455078125
1630497990686,-0.19970703125,-0.0198974609375,0.97760009765625
1630497990686,-0.19781494140625,-0.01312255859375,0.9759521484375
1630497990748,-0.20172119140625,-0.01483154296875,0.97283935546875
1630497990748,-0.20196533203125,-0.0115966796875,0.97088623046875
1630497990748,-0.202880859375,-0.01226806640625,0.97052001953125
1630497990811,-0.20233154296875,-0.01220703125,0.97674560546875
1630497990811,-0.2012939453125,-0.010009765625,0.97528076171875
1630497990857,-0.1983642578125,-0.01507568359375,0.981201171875
1630497990873,-0.2003173828125,-0.015869140625,0.97735595703125
1630497990873,-0.19561767578125,-0.014892578125,0.98187255859375
1630497990936,-0.1937255859375,-0.01080322265625,0.97845458984375
1630497990936,-0.19036865234375,-0.01226806640625,0.982177734375
1630497990936,-0.19293212890625,-0.0142822265625,0.97998046875
1630497991014,-0.19342041015625,-0.01171875,0.98291015625
1630497991014,-0.1923828125,-0.0098876953125,0.98175048828125
1630497991014,-0.19281005859375,-0.01092529296875,0.98114013671875
1630497991076,-0.1953125,-0.0123291015625,0.97735595703125
1630497991076,-0.19793701171875,-0.01190185546875,0.97735595703125
1630497991076,-0.2021484375,-0.015380859375,0.9761962890625
1630497991107,-0.1973876953125,-0.0135498046875,0.97540283203125
1630497991107,-0.19989013671875,-0.02178955078125,0.973388671875
1630497991107,-0.1982421875,-0.01849365234375,0.97100830078125
1630497991232,-0.197021484375,-0.01251220703125,0.9803466796875
1630497991232,-0.19635009765625,-0.0142822265625,0.9781494140625
1630497991232,-0.19805908203125,-0.01654052734375,0.97613525390625
1630497991232,-0.19415283203125,-0.01220703125,0.9781494140625
1630497991232,-0.19671630859375,-0.0155029296875,0.98211669921875
1630497991232,-0.19451904296875,-0.0123291015625,0.98101806640625
1630497991329,-0.20306396484375,-0.0113525390625,0.97637939453125
1630497991329,-0.1982421875,-0.01458740234375,0.976806640625
1630497991344,-0.198974609375,-0.01434326171875,0.9818115234375
1630497991407,-0.200927734375,-0.01605224609375,0.97723388671875
1630497991407,-0.20068359375,-0.010498046875,0.9708251953125
1630497991407,-0.19854736328125,-0.0107421875,0.97479248046875
1630497991407,-0.20123291015625,-0.0113525390625,0.97418212890625
1630497991407,-0.19842529296875,-0.01165771484375,0.96759033203125
1630497991407,-0.2022705078125,-0.0137939453125,0.9749755859375
1630497991485,-0.2001953125,-0.01763916015625,0.97430419921875
1630497991485,-0.19635009765625,-0.01641845703125,0.97186279296875
1630497991485,-0.203857421875,-0.016357421875,0.98077392578125
1630497991532,-0.19158935546875,-0.01666259765625,0.98223876953125
1630497991547,-0.19439697265625,-0.0174560546875,0.97967529296875
1630497991547,-0.1903076171875,-0.01434326171875,0.97686767578125
1630497991594,-0.19012451171875,-0.0137939453125,0.982666015625
1630497991610,-0.19329833984375,-0.01678466796875,0.98486328125
1630497991610,-0.19256591796875,-0.0130615234375,0.9814453125
1630497991641,-0.1982421875,-0.01611328125,0.979248046875
1630497991641,-0.1944580078125,-0.010986328125,0.97955322265625
1630497991641,-0.19647216796875,-0.00958251953125,0.97747802734375
1630497991688,-0.19854736328125,-0.01580810546875,0.98052978515625
1630497991688,-0.20001220703125,-0.01446533203125,0.972412109375
1630497991688,-0.2000732421875,-0.0145263671875,0.972900390625
1630497991766,-0.1968994140625,-0.0162353515625,0.9815673828125
1630497991766,-0.198486328125,-0.017822265625,0.9747314453125
1630497991766,-0.19891357421875,-0.01495361328125,0.97430419921875
1630497991813,-0.1956787109375,-0.0159912109375,0.98309326171875
1630497991813,-0.19952392578125,-0.0126953125,0.97979736328125
1630497991813,-0.200439453125,-0.0172119140625,0.97796630859375
1630497992016,-0.1990966796875,-0.0123291015625,0.974853515625
1630497992016,-0.19976806640625,-0.01593017578125,0.97723388671875
1630497992016,-0.19940185546875,-0.013916015625,0.97369384765625
1630497992063,-0.201904296875,-0.01312255859375,0.97064208984375
1630497992063,-0.197265625,-0.01104736328125,0.97802734375
1630497992063,-0.2010498046875,-0.0093994140625,0.9698486328125
1630497992063,-0.19732666015625,-0.01824951171875,0.97821044921875
1630497992063,-0.2000732421875,-0.0098876953125,0.975341796875
1630497992063,-0.19342041015625,-0.01190185546875,0.9752197265625
1630497992063,-0.20025634765625,-0.01141357421875,0.98516845703125
1630497992063,-0.20074462890625,-0.0091552734375,0.9793701171875
1630497992063,-0.1978759765625,-0.00897216796875,0.97344970703125
1630497992125,-0.187255859375,-0.0101318359375,0.98333740234375
1630497992125,-0.19134521484375,-0.0106201171875,0.97760009765625
1630497992125,-0.18695068359375,-0.013427734375,0.98760986328125
1630497992172,-0.19305419921875,-0.01025390625,0.9853515625
1630497992172,-0.1929931640625,-0.00701904296875,0.9854736328125
1630497992172,-0.195068359375,-0.0103759765625,0.97967529296875
1630497992250,-0.1968994140625,-0.01422119140625,0.97320556640625
1630497992250,-0.1959228515625,-0.01226806640625,0.97833251953125
1630497992250,-0.2005615234375,-0.01715087890625,0.9771728515625
1630497992344,-0.1968994140625,-0.01837158203125,0.98065185546875
1630497992344,-0.19927978515625,-0.01544189453125,0.9754638671875
1630497992344,-0.20306396484375,-0.01959228515625,0.97552490234375
1630497992344,-0.20318603515625,-0.0169677734375,0.97528076171875
1630497992344,-0.20050048828125,-0.0206298828125,0.97198486328125
1630497992344,-0.19879150390625,-0.0157470703125,0.97430419921875
1630497992422,-0.197509765625,-0.0145263671875,0.98004150390625
1630497992422,-0.2001953125,-0.01641845703125,0.97882080078125
1630497992422,-0.19744873046875,-0.0135498046875,0.9818115234375
1630497992500,-0.1961669921875,-0.01220703125,0.97662353515625
1630497992500,-0.1995849609375,-0.01275634765625,0.9742431640625
1630497992500,-0.19805908203125,-0.01202392578125,0.97613525390625
1630497992531,-0.20111083984375,-0.01434326171875,0.9757080078125
1630497992531,-0.19818115234375,-0.0159912109375,0.9764404296875
1630497992531,-0.2008056640625,-0.017578125,0.97430419921875
1630497992609,-0.1995849609375,-0.0184326171875,0.97418212890625
1630497992609,-0.20196533203125,-0.018798828125,0.97308349609375
1630497992609,-0.20068359375,-0.01849365234375,0.97418212890625
1630497992641,-0.19683837890625,-0.01849365234375,0.97589111328125
1630497992641,-0.20111083984375,-0.01617431640625,0.97686767578125
1630497992656,-0.19891357421875,-0.0218505859375,0.9744873046875
1630497992688,-0.19598388671875,-0.01348876953125,0.97479248046875
1630497992688,-0.197265625,-0.01959228515625,0.9725341796875
1630497992703,-0.192138671875,-0.01861572265625,0.97674560546875
1630497992781,-0.1923828125,-0.0146484375,0.984130859375
1630497992781,-0.19427490234375,-0.01177978515625,0.983154296875
1630497992781,-0.19305419921875,-0.0169677734375,0.9849853515625
1630497992813,-0.192626953125,-0.0130615234375,0.98126220703125
1630497992813,-0.19757080078125,-0.0125732421875,0.979248046875
1630497992813,-0.1968994140625,-0.0155029296875,0.97528076171875
1630497992859,-0.2020263671875,-0.01727294921875,0.97576904296875
1630497992859,-0.20355224609375,-0.01873779296875,0.9761962890625
1630497992875,-0.20074462890625,-0.0224609375,0.9747314453125
1630497992953,-0.202392578125,-0.02178955078125,0.9737548828125
1630497992953,-0.20147705078125,-0.02239990234375,0.97393798828125
1630497992953,-0.201171875,-0.02154541015625,0.972900390625
1630497993016,-0.20428466796875,-0.01898193359375,0.97308349609375
1630497993016,-0.20208740234375,-0.02081298828125,0.97314453125
1630497993031,-0.2025146484375,-0.01617431640625,0.9754638671875
1630497993062,-0.20465087890625,-0.01953125,0.9759521484375
1630497993062,-0.20635986328125,-0.01739501953125,0.97491455078125
1630497993062,-0.2049560546875,-0.01629638671875,0.9749755859375
1630497993109,-0.20574951171875,-0.01788330078125,0.97344970703125
1630497993109,-0.2042236328125,-0.018798828125,0.97381591796875
1630497993109,-0.203369140625,-0.0172119140625,0.9735107421875
1630497993193,-0.205810546875,-0.016845703125,0.97283935546875
1630497993193,-0.20257568359375,-0.01727294921875,0.971923828125
1630497993193,-0.20458984375,-0.01641845703125,0.9766845703125
1630497993240,-0.20343017578125,-0.0184326171875,0.974365234375
1630497993240,-0.2049560546875,-0.0186767578125,0.974365234375
1630497993240,-0.20709228515625,-0.017333984375,0.9761962890625
1630497993287,-0.1995849609375,-0.0172119140625,0.98065185546875
1630497993302,-0.203369140625,-0.0218505859375,0.975341796875
1630497993302,-0.1995849609375,-0.02008056640625,0.97418212890625
1630497993334,-0.19598388671875,-0.01495361328125,0.9825439453125
1630497993334,-0.1956787109375,-0.01800537109375,0.9788818359375
1630497993334,-0.19696044921875,-0.01715087890625,0.978515625
1630497993396,-0.1973876953125,-0.0162353515625,0.980712890625
1630497993412,-0.196533203125,-0.01568603515625,0.97613525390625
1630497993412,-0.195556640625,-0.014892578125,0.9764404296875
1630497993459,-0.20367431640625,-0.0172119140625,0.9765625
1630497993459,-0.20135498046875,-0.0186767578125,0.9755859375
1630497993459,-0.2000732421875,-0.01849365234375,0.972900390625
1630497993521,-0.198974609375,-0.01995849609375,0.97491455078125
1630497993521,-0.20172119140625,-0.01861572265625,0.97308349609375
1630497993521,-0.19879150390625,-0.01715087890625,0.97711181640625
1630497993646,-0.1971435546875,-0.0146484375,0.9776611328125
1630497993646,-0.19854736328125,-0.01751708984375,0.98046875
1630497993646,-0.1995849609375,-0.0169677734375,0.97918701171875
1630497993646,-0.19952392578125,-0.011474609375,0.97869873046875
1630497993662,-0.1947021484375,-0.019775390625,0.98126220703125
1630497993662,-0.19635009765625,-0.016845703125,0.97991943359375
1630497993708,-0.202392578125,-0.01544189453125,0.9730224609375
1630497993708,-0.2025146484375,-0.015380859375,0.97412109375
1630497993724,-0.20208740234375,-0.01708984375,0.9764404296875
1630497993740,-0.19854736328125,-0.01190185546875,0.9737548828125
1630497993755,-0.19989013671875,-0.0142822265625,0.97467041015625
1630497993755,-0.20098876953125,-0.01605224609375,0.9775390625
1630497993849,-0.201904296875,-0.01690673828125,0.97308349609375
1630497993865,-0.199462890625,-0.0172119140625,0.97198486328125
1630497993880,-0.1966552734375,-0.02459716796875,0.97564697265625
1630497993880,-0.2001953125,-0.01629638671875,0.9744873046875
1630497993880,-0.20465087890625,-0.0191650390625,0.97808837890625
1630497993990,-0.191650390625,-0.01483154296875,0.97894287109375
1630497993990,-0.1968994140625,-0.0185546875,0.9749755859375
1630497993990,-0.19482421875,-0.01446533203125,0.9761962890625
1630497994037,-0.19512939453125,-0.01007080078125,0.98333740234375
1630497994037,-0.193115234375,-0.01708984375,0.98199462890625
1630497994037,-0.19342041015625,-0.01165771484375,0.983642578125
1630497994083,-0.1961669921875,-0.01324462890625,0.97149658203125
1630497994083,-0.19659423828125,-0.0103759765625,0.97808837890625
1630497994083,-0.19549560546875,-0.0123291015625,0.9788818359375
1630497994146,-0.1971435546875,-0.01678466796875,0.97509765625
1630497994146,-0.19873046875,-0.017333984375,0.97149658203125
1630497994146,-0.1986083984375,-0.0174560546875,0.978515625
1630497994165,-0.1995849609375,-0.0155029296875,0.97589111328125
1630497994165,-0.2015380859375,-0.0166015625,0.97332763671875
1630497994165,-0.20318603515625,-0.017333984375,0.97467041015625
1630497994212,-0.19793701171875,-0.01422119140625,0.98077392578125
1630497994212,-0.199462890625,-0.0150146484375,0.97747802734375
1630497994227,-0.20172119140625,-0.01275634765625,0.98052978515625
1630497994305,-0.20269775390625,-0.013427734375,0.9775390625
1630497994305,-0.199462890625,-0.013427734375,0.98248291015625
1630497994305,-0.20245361328125,-0.01104736328125,0.977783203125
1630497994368,-0.2034912109375,-0.011962890625,0.977294921875
1630497994368,-0.201171875,-0.009765625,0.97918701171875
1630497994368,-0.2030029296875,-0.0113525390625,0.980712890625
1630497994415,-0.2030029296875,-0.00775146484375,0.971435546875
1630497994415,-0.206787109375,-0.01263427734375,0.97003173828125
1630497994415,-0.205078125,-0.0069580078125,0.9700927734375
1630497994509,-0.2059326171875,-0.00469970703125,0.96990966796875
1630497994509,-0.20294189453125,-0.0096435546875,0.967529296875
1630497994509,-0.20843505859375,-0.00897216796875,0.9703369140625
1630497994540,-0.1968994140625,-0.0118408203125,0.97442626953125
1630497994540,-0.206298828125,-0.0098876953125,0.977294921875
1630497994571,-0.197509765625,-0.0030517578125,0.97698974609375
1630497994571,-0.198486328125,-0.00830078125,0.96856689453125
1630497994571,-0.195068359375,-0.0052490234375,0.97808837890625
1630497994696,-0.19586181640625,-0.0096435546875,0.9827880859375
1630497994696,-0.19329833984375,-0.0098876953125,0.9891357421875
1630497994696,-0.1923828125,-0.00885009765625,0.98504638671875
1630497994712,-0.2000732421875,-0.008544921875,0.97607421875
1630497994712,-0.1971435546875,-0.00848388671875,0.98199462890625
1630497994758,-0.20245361328125,-0.008544921875,0.97998046875
1630497994758,-0.20281982421875,-0.012939453125,0.9769287109375
1630497994758,-0.20501708984375,-0.01422119140625,0.973876953125
1630497994821,-0.2088623046875,-0.01226806640625,0.96905517578125
1630497994821,-0.20770263671875,-0.0108642578125,0.96734619140625
1630497994821,-0.20758056640625,-0.01171875,0.966796875
1630497994899,-0.211181640625,-0.01190185546875,0.97003173828125
1630497994899,-0.204345703125,-0.01092529296875,0.974365234375
1630497994899,-0.20806884765625,-0.0089111328125,0.97509765625
1630497994946,-0.204833984375,-0.0089111328125,0.97491455078125
1630497994946,-0.20733642578125,-0.00653076171875,0.975830078125
1630497994946,-0.210205078125,-0.0107421875,0.97564697265625
1630497994993,-0.20684814453125,-0.01025390625,0.9776611328125
1630497994993,-0.2071533203125,-0.009521484375,0.9798583984375
1630497994993,-0.20599365234375,-0.01361083984375,0.9754638671875
1630497995040,-0.2078857421875,-0.011962890625,0.9732666015625
1630497995040,-0.20892333984375,-0.0107421875,0.97259521484375
1630497995040,-0.20562744140625,-0.013916015625,0.97454833984375
1630497995102,-0.2100830078125,-0.01507568359375,0.97247314453125
1630497995102,-0.20703125,-0.01214599609375,0.9737548828125
1630497995118,-0.20660400390625,-0.01007080078125,0.97369384765625
1630497995192,-0.20599365234375,-0.0191650390625,0.97442626953125
1630497995192,-0.20751953125,-0.01055908203125,0.976806640625
1630497995192,-0.203369140625,-0.0184326171875,0.96844482421875
1630497995271,-0.20245361328125,-0.01177978515625,0.9715576171875
1630497995271,-0.1995849609375,-0.01788330078125,0.9794921875
1630497995271,-0.20465087890625,-0.01470947265625,0.9725341796875
1630497995317,-0.1917724609375,-0.0157470703125,0.98663330078125
1630497995317,-0.195556640625,-0.01129150390625,0.9857177734375
1630497995317,-0.19708251953125,-0.015625,0.982177734375
1630497995364,-0.19683837890625,-0.01507568359375,0.97991943359375
1630497995364,-0.1973876953125,-0.0130615234375,0.98126220703125
1630497995364,-0.19647216796875,-0.0137939453125,0.9830322265625
1630497995442,-0.2020263671875,-0.020751953125,0.971923828125
1630497995442,-0.19976806640625,-0.0152587890625,0.97802734375
1630497995442,-0.20361328125,-0.01641845703125,0.9730224609375
1630497995474,-0.2032470703125,-0.015869140625,0.97235107421875
1630497995474,-0.20428466796875,-0.013671875,0.975341796875
1630497995489,-0.20391845703125,-0.01348876953125,0.97454833984375
1630497995552,-0.20733642578125,-0.01251220703125,0.97998046875
1630497995552,-0.20611572265625,-0.01129150390625,0.979248046875
1630497995552,-0.203125,-0.0137939453125,0.9803466796875
1630497995567,-0.2054443359375,-0.0111083984375,0.96844482421875
1630497995567,-0.210205078125,-0.00811767578125,0.97235107421875
1630497995567,-0.2086181640625,-0.01214599609375,0.9739990234375
1630497995664,-0.21002197265625,-0.01239013671875,0.9732666015625
1630497995664,-0.20904541015625,-0.0113525390625,0.9737548828125
1630497995664,-0.2071533203125,-0.0106201171875,0.9737548828125
1630497995718,-0.2064208984375,-0.011474609375,0.972412109375
1630497995718,-0.210693359375,-0.01055908203125,0.9737548828125
1630497995733,-0.20947265625,-0.01226806640625,0.97210693359375
1630497995780,-0.20562744140625,-0.00848388671875,0.9793701171875
1630497995780,-0.20050048828125,-0.0101318359375,0.97698974609375
1630497995780,-0.20916748046875,-0.01318359375,0.9757080078125
1630497995843,-0.20269775390625,-0.0208740234375,0.9775390625
1630497995843,-0.20208740234375,-0.01251220703125,0.974365234375
1630497995843,-0.202392578125,-0.011962890625,0.97308349609375
1630497995952,-0.19622802734375,-0.009033203125,0.9825439453125
1630497995968,-0.19677734375,-0.01507568359375,0.98150634765625
1630497995968,-0.20013427734375,-0.0064697265625,0.98016357421875
1630497995999,-0.2003173828125,-0.0130615234375,0.97808837890625
1630497995999,-0.20001220703125,-0.00909423828125,0.98199462890625
1630497995999,-0.197998046875,-0.00738525390625,0.981689453125
1630497996030,-0.203857421875,-0.01416015625,0.97357177734375
1630497996030,-0.20050048828125,-0.01385498046875,0.97369384765625
1630497996030,-0.20263671875,-0.0152587890625,0.97344970703125
1630497996093,-0.1990966796875,-0.01580810546875,0.97607421875
1630497996093,-0.20367431640625,-0.01806640625,0.97265625
1630497996093,-0.204345703125,-0.02032470703125,0.97235107421875
1630497996124,-0.201416015625,-0.0162353515625,0.9822998046875
1630497996124,-0.1986083984375,-0.01220703125,0.98248291015625
1630497996124,-0.20147705078125,-0.0162353515625,0.9769287109375
1630497996191,-0.20257568359375,-0.013427734375,0.979248046875
1630497996191,-0.2025146484375,-0.01141357421875,0.98004150390625
1630497996191,-0.20404052734375,-0.01336669921875,0.97711181640625
1630497996238,-0.20562744140625,-0.01220703125,0.975830078125
1630497996238,-0.20648193359375,-0.014892578125,0.97698974609375
1630497996254,-0.2025146484375,-0.01397705078125,0.9752197265625
1630497996285,-0.2056884765625,-0.01202392578125,0.967529296875
1630497996285,-0.2091064453125,-0.00897216796875,0.96929931640625
1630497996300,-0.2056884765625,-0.01171875,0.97210693359375
1630497996363,-0.20599365234375,-0.01043701171875,0.97357177734375
1630497996363,-0.204833984375,-0.010009765625,0.97015380859375
1630497996363,-0.208984375,-0.0103759765625,0.973876953125
1630497996441,-0.2095947265625,-0.01055908203125,0.97564697265625
1630497996441,-0.206298828125,-0.0164794921875,0.975341796875
1630497996441,-0.20709228515625,-0.01348876953125,0.97760009765625
1630497996488,-0.20452880859375,-0.009765625,0.96978759765625
1630497996488,-0.2003173828125,-0.01177978515625,0.97265625
1630497996488,-0.20172119140625,-0.00628662109375,0.9783935546875
1630497996535,-0.2003173828125,-0.01190185546875,0.98187255859375
1630497996535,-0.1986083984375,-0.01019287109375,0.98199462890625
1630497996535,-0.19775390625,-0.0107421875,0.9830322265625
1630497996675,-0.198974609375,-0.0098876953125,0.97943115234375
1630497996675,-0.202392578125,-0.01519775390625,0.9774169921875
1630497996675,-0.203125,-0.01251220703125,0.973388671875
1630497996707,-0.2061767578125,-0.0106201171875,0.97137451171875
1630497996707,-0.2060546875,-0.01220703125,0.97186279296875
1630497996707,-0.20343017578125,-0.01104736328125,0.9793701171875
1630497996707,-0.20208740234375,-0.0074462890625,0.9747314453125
1630497996707,-0.20318603515625,-0.0123291015625,0.975830078125
1630497996707,-0.204345703125,-0.0103759765625,0.9801025390625
1630497996753,-0.20343017578125,-0.01275634765625,0.98089599609375
1630497996753,-0.20928955078125,-0.01123046875,0.982421875
1630497996753,-0.20703125,-0.01092529296875,0.98236083984375
1630497996878,-0.2088623046875,-0.0086669921875,0.9697265625
1630497996878,-0.2078857421875,-0.00531005859375,0.96923828125
1630497996878,-0.2060546875,-0.0068359375,0.9691162109375
1630497996878,-0.2076416015625,-0.00347900390625,0.97430419921875
1630497996878,-0.20782470703125,-0.009521484375,0.9735107421875
1630497996878,-0.20648193359375,-0.01263427734375,0.97821044921875
1630497996941,-0.2037353515625,-0.00177001953125,0.97381591796875
1630497996941,-0.20654296875,-0.0030517578125,0.97235107421875
1630497996941,-0.20404052734375,-0.00714111328125,0.973876953125
1630497996988,-0.2056884765625,-0.00408935546875,0.97637939453125
1630497996988,-0.20654296875,-0.0068359375,0.9837646484375
1630497996988,-0.2032470703125,-0.0128173828125,0.978759765625
1630497997128,-0.20391845703125,-0.007568359375,0.9735107421875
1630497997128,-0.19964599609375,-0.01129150390625,0.97589111328125
1630497997128,-0.19610595703125,-0.0062255859375,0.97113037109375
1630497997144,-0.19708251953125,-0.00244140625,0.9864501953125
1630497997145,-0.198486328125,-0.0057373046875,0.98236083984375
1630497997145,-0.2017822265625,-0.01019287109375,0.97564697265625
1630497997208,-0.20330810546875,-0.003662109375,0.97918701171875
1630497997208,-0.2017822265625,-0.00653076171875,0.974853515625
1630497997208,-0.20184326171875,-0.00146484375,0.98468017578125
1630497997224,-0.2091064453125,-0.01043701171875,0.9688720703125
1630497997240,-0.20977783203125,-0.01202392578125,0.96624755859375
1630497997240,-0.2142333984375,-0.01531982421875,0.96954345703125
1630497997302,-0.21142578125,-0.01434326171875,0.96600341796875
1630497997302,-0.212890625,-0.01043701171875,0.9693603515625
1630497997302,-0.210205078125,-0.0086669921875,0.9755859375
1630497997349,-0.20843505859375,-0.00567626953125,0.9774169921875
1630497997349,-0.2125244140625,-0.0087890625,0.9788818359375
1630497997349,-0.20794677734375,-0.00750732421875,0.9825439453125
1630497997412,-0.21014404296875,-0.0050048828125,0.97686767578125
1630497997412,-0.21099853515625,-0.00360107421875,0.97430419921875
1630497997412,-0.2091064453125,-0.00750732421875,0.97332763671875
1630497997475,-0.211181640625,-0.00482177734375,0.976806640625
1630497997475,-0.21063232421875,-0.00262451171875,0.9749755859375
1630497997475,-0.211669921875,-0.00836181640625,0.97283935546875
1630497997553,-0.21466064453125,-0.00531005859375,0.969482421875
1630497997553,-0.20831298828125,-0.00543212890625,0.97406005859375
1630497997553,-0.2139892578125,-0.00390625,0.970947265625
1630497997631,-0.21148681640625,-0.0052490234375,0.9736328125
1630497997631,-0.21221923828125,-0.00848388671875,0.9737548828125
1630497997631,-0.21319580078125,-0.0050048828125,0.9781494140625
1630497997756,-0.20574951171875,-0.00958251953125,0.9720458984375
1630497997756,-0.202392578125,-0.0028076171875,0.98321533203125
1630497997756,-0.20062255859375,-0.00830078125,0.97998046875
1630497997771,-0.2099609375,-0.007080078125,0.96759033203125
1630497997771,-0.2032470703125,-0.00341796875,0.9847412109375
1630497997771,-0.210693359375,-0.0062255859375,0.9697265625
1630497997771,-0.20697021484375,-0.0018310546875,0.97674560546875
1630497997771,-0.2025146484375,-0.004638671875,0.985595703125
1630497997771,-0.2080078125,-0.00640869140625,0.96954345703125
1630497997850,-0.20697021484375,-0.00592041015625,0.9722900390625
1630497997850,-0.210693359375,-0.01312255859375,0.97412109375
1630497997850,-0.20819091796875,-0.003662109375,0.9742431640625
1630497997928,-0.21026611328125,-0.00872802734375,0.97076416015625
1630497997928,-0.2110595703125,-0.0108642578125,0.97467041015625
1630497997928,-0.2109375,-0.00994873046875,0.97149658203125
1630497997990,-0.2113037109375,-0.0078125,0.97540283203125
1630497997990,-0.21148681640625,-0.00970458984375,0.97509765625
1630497997990,-0.20855712890625,-0.0096435546875,0.97332763671875
1630497998006,-0.21063232421875,-0.01123046875,0.97552490234375
1630497998006,-0.2122802734375,-0.0076904296875,0.97406005859375
1630497998006,-0.21075439453125,-0.011962890625,0.97412109375
1630497998053,-0.21282958984375,-0.0107421875,0.9715576171875
1630497998053,-0.20867919921875,-0.00836181640625,0.96978759765625
1630497998053,-0.2115478515625,-0.011474609375,0.96966552734375
1630497998147,-0.21136474609375,-0.009521484375,0.9730224609375
1630497998148,-0.21405029296875,-0.01165771484375,0.974365234375
1630497998148,-0.21197509765625,-0.00970458984375,0.9703369140625
1630497998196,-0.2139892578125,-0.009765625,0.975341796875
1630497998196,-0.2119140625,-0.0166015625,0.974365234375
1630497998196,-0.2110595703125,-0.0145263671875,0.9754638671875
1630497998260,-0.20880126953125,-0.01446533203125,0.97418212890625
1630497998262,-0.20806884765625,-0.01263427734375,0.9732666015625
1630497998262,-0.20928955078125,-0.01824951171875,0.97088623046875
1630497998323,-0.207275390625,-0.00701904296875,0.97991943359375
1630497998324,-0.2066650390625,-0.01043701171875,0.98126220703125
1630497998325,-0.2064208984375,-0.0140380859375,0.9765625
1630497998385,-0.208984375,-0.0091552734375,0.9779052734375
1630497998385,-0.20770263671875,-0.01300048828125,0.9730224609375
1630497998385,-0.205322265625,-0.01202392578125,0.9796142578125
1630497998448,-0.21075439453125,-0.0140380859375,0.972412109375
1630497998469,-0.2080078125,-0.01861572265625,0.97406005859375
1630497998472,-0.208251953125,-0.0128173828125,0.97308349609375
1630497998509,-0.21051025390625,-0.01904296875,0.97393798828125
1630497998509,-0.20733642578125,-0.01361083984375,0.97357177734375
1630497998509,-0.20843505859375,-0.0128173828125,0.9735107421875
1630497998572,-0.2095947265625,-0.0118408203125,0.9747314453125
1630497998572,-0.2095947265625,-0.0079345703125,0.97711181640625
1630497998572,-0.20703125,-0.00897216796875,0.97650146484375
1630497998619,-0.20855712890625,-0.01171875,0.97637939453125
1630497998619,-0.21441650390625,-0.01123046875,0.97784423828125
1630497998620,-0.20892333984375,-0.01324462890625,0.975341796875
1630497998635,-0.21112060546875,-0.01092529296875,0.9757080078125
1630497998635,-0.21258544921875,-0.01190185546875,0.9739990234375
1630497998635,-0.210693359375,-0.01531982421875,0.9747314453125
1630497998742,-0.2139892578125,-0.011474609375,0.97314453125
1630497998742,-0.21295166015625,-0.0130615234375,0.96923828125
1630497998742,-0.2115478515625,-0.00927734375,0.9708251953125
1630497998791,-0.21234130859375,-0.01544189453125,0.97283935546875
1630497998791,-0.21142578125,-0.00885009765625,0.97113037109375
1630497998791,-0.21185302734375,-0.01043701171875,0.97625732421875
1630497998821,-0.20599365234375,-0.00958251953125,0.97174072265625
1630497998821,-0.2049560546875,-0.0108642578125,0.97247314453125
1630497998821,-0.212646484375,-0.01019287109375,0.97125244140625
1630497998868,-0.20416259765625,-0.00933837890625,0.979248046875
1630497998868,-0.20416259765625,-0.01141357421875,0.98040771484375
1630497998868,-0.20379638671875,-0.0137939453125,0.97894287109375
1630497998994,-0.2137451171875,-0.01177978515625,0.9757080078125
1630497998994,-0.213134765625,-0.011474609375,0.9752197265625
1630497998994,-0.2135009765625,-0.0147705078125,0.97119140625
1630497998995,-0.20697021484375,-0.01226806640625,0.9771728515625
1630497998995,-0.20709228515625,-0.01336669921875,0.97906494140625
1630497998995,-0.2081298828125,-0.013916015625,0.9722900390625
1630497999120,-0.21307373046875,-0.0125732421875,0.96954345703125
1630497999121,-0.2120361328125,-0.00750732421875,0.972412109375
1630497999121,-0.212890625,-0.0118408203125,0.97186279296875
1630497999168,-0.21435546875,-0.0091552734375,0.97320556640625
1630497999168,-0.21551513671875,-0.0078125,0.9739990234375
1630497999169,-0.2110595703125,-0.0069580078125,0.97503662109375
1630497999169,-0.21209716796875,-0.0086669921875,0.97515869140625
1630497999169,-0.21875,-0.0081787109375,0.97137451171875
1630497999169,-0.21563720703125,-0.00927734375,0.97808837890625
1630497999247,-0.21856689453125,-0.00823974609375,0.96783447265625
1630497999247,-0.2200927734375,-0.00811767578125,0.968505859375
1630497999247,-0.21978759765625,-0.01019287109375,0.967529296875
1630497999294,-0.21728515625,-0.00579833984375,0.9671630859375
1630497999294,-0.2176513671875,-0.01104736328125,0.97381591796875
1630497999294,-0.21868896484375,-0.01190185546875,0.96826171875
1630497999369,-0.21551513671875,-0.01007080078125,0.970947265625
1630497999369,-0.2203369140625,-0.0108642578125,0.97509765625
1630497999369,-0.22064208984375,-0.00830078125,0.9710693359375
1630497999415,-0.21502685546875,-0.0106201171875,0.976318359375
1630497999415,-0.212646484375,-0.01165771484375,0.96771240234375
1630497999415,-0.221435546875,-0.01513671875,0.9710693359375
1630497999478,-0.20947265625,-0.0086669921875,0.97528076171875
1630497999478,-0.2098388671875,-0.00872802734375,0.978515625
1630497999479,-0.2093505859375,-0.0093994140625,0.97705078125
1630497999540,-0.21197509765625,-0.01177978515625,0.97760009765625
1630497999540,-0.20806884765625,-0.0130615234375,0.976806640625
1630497999541,-0.21160888671875,-0.011962890625,0.9764404296875
1630497999682,-0.21331787109375,-0.015869140625,0.97308349609375
1630497999682,-0.21673583984375,-0.0167236328125,0.97283935546875
1630497999682,-0.21148681640625,-0.01263427734375,0.97406005859375
1630497999682,-0.21356201171875,-0.01654052734375,0.971923828125
1630497999682,-0.21563720703125,-0.01446533203125,0.97662353515625
1630497999683,-0.2138671875,-0.01544189453125,0.97357177734375
1630497999715,-0.21484375,-0.0115966796875,0.97442626953125
1630497999715,-0.21246337890625,-0.0093994140625,0.97454833984375
1630497999716,-0.21282958984375,-0.013671875,0.97747802734375
1630497999777,-0.21807861328125,-0.01068115234375,0.9744873046875
1630497999777,-0.21051025390625,-0.011962890625,0.97662353515625
1630497999778,-0.21441650390625,-0.01165771484375,0.97161865234375
1630497999807,-0.21832275390625,-0.006591796875,0.9708251953125
1630497999807,-0.2132568359375,-0.00982666015625,0.9703369140625
1630497999807,-0.2176513671875,-0.00762939453125,0.971435546875
1630497999902,-0.21905517578125,-0.00299072265625,0.97613525390625
1630497999902,-0.21356201171875,-0.000244140625,0.9737548828125
1630497999902,-0.21710205078125,-0.003662109375,0.97613525390625
1630497999933,-0.2174072265625,-0.0025634765625,0.97747802734375
1630497999933,-0.22149658203125,0.001953125,0.98187255859375
1630497999933,-0.21728515625,0.00299072265625,0.9683837890625
1630498000012,-0.21539306640625,0.0018310546875,0.97210693359375
1630498000012,-0.2181396484375,-0.0020751953125,0.9677734375
1630498000013,-0.22149658203125,-0.006103515625,0.965576171875
1630498000090,-0.21356201171875,0.00274658203125,0.97308349609375
1630498000090,-0.21246337890625,0.00274658203125,0.97796630859375
1630498000090,-0.21209716796875,0.00128173828125,0.97747802734375
1630498000138,-0.214599609375,0.0062255859375,0.97943115234375
1630498000138,-0.21533203125,0.001953125,0.98077392578125
1630498000139,-0.21142578125,0.00079345703125,0.97979736328125
1630498000200,-0.2171630859375,0.0006103515625,0.97344970703125
1630498000200,-0.21588134765625,-0.0003662109375,0.9720458984375
1630498000201,-0.219482421875,-0.00274658203125,0.97137451171875
1630498000229,-0.21636962890625,-0.0010986328125,0.96942138671875
1630498000229,-0.22076416015625,-0.00494384765625,0.9720458984375
1630498000231,-0.2198486328125,-0.00146484375,0.96929931640625
1630498000291,-0.21722412109375,0.00048828125,0.970703125
1630498000292,-0.216796875,0.00347900390625,0.97381591796875
1630498000292,-0.21832275390625,0.0001220703125,0.9700927734375
1630498000369,-0.21771240234375,-0.00079345703125,0.973876953125
1630498000369,-0.22064208984375,0.001953125,0.97662353515625
1630498000370,-0.21929931640625,-0.00115966796875,0.97265625
1630498000432,-0.219970703125,-0.0020751953125,0.97406005859375
1630498000432,-0.22015380859375,-0.00262451171875,0.9747314453125
1630498000432,-0.21649169921875,-0.0008544921875,0.9716796875
1630498000464,-0.217529296875,0.00018310546875,0.97235107421875
1630498000464,-0.22125244140625,0.00042724609375,0.97259521484375
1630498000464,-0.21771240234375,-0.00164794921875,0.97247314453125
1630498000541,-0.2193603515625,-6.103515625e-05,0.97161865234375
1630498000542,-0.21826171875,0.000732421875,0.970458984375
1630498000542,-0.216552734375,0.00286865234375,0.96685791015625
1630498000621,-0.213623046875,0.00054931640625,0.969482421875
1630498000621,-0.2161865234375,-0.00079345703125,0.9742431640625
1630498000621,-0.21636962890625,-0.00048828125,0.96630859375
1630498000715,-0.21099853515625,0.00152587890625,0.97662353515625
1630498000715,-0.208984375,0.0015869140625,0.970458984375
1630498000715,-0.21038818359375,-0.001708984375,0.98138427734375
1630498000733,-0.20703125,-0.00048828125,0.97802734375
1630498000733,-0.20867919921875,0.00030517578125,0.9759521484375
1630498000733,-0.204833984375,-0.0028076171875,0.9805908203125
1630498000779,-0.2122802734375,-0.0076904296875,0.97711181640625
1630498000779,-0.2054443359375,-0.00933837890625,0.96954345703125
1630498000780,-0.210205078125,-0.003173828125,0.97528076171875
1630498000873,-0.20965576171875,-0.009033203125,0.97198486328125
1630498000873,-0.21099853515625,-0.00848388671875,0.97479248046875
1630498000873,-0.2109375,-0.010986328125,0.97613525390625
1630498000936,-0.2158203125,-0.00421142578125,0.97564697265625
1630498000936,-0.2135009765625,-0.0045166015625,0.9698486328125
1630498000936,-0.21502685546875,-0.00396728515625,0.97174072265625
1630498000952,-0.2152099609375,-0.00177001953125,0.975341796875
1630498000956,-0.21636962890625,-0.00146484375,0.9705810546875
1630498000962,-0.21185302734375,-0.00323486328125,0.9786376953125
1630498001126,-0.20965576171875,-0.0057373046875,0.9805908203125
1630498001127,-0.21630859375,-0.00634765625,0.9783935546875
1630498001127,-0.20941162109375,-0.0069580078125,0.976806640625
1630498001157,-0.215087890625,-0.0048828125,0.9710693359375
1630498001159,-0.2130126953125,-0.00537109375,0.968505859375
1630498001159,-0.2156982421875,-0.00469970703125,0.9736328125
1630498001160,-0.21295166015625,-0.00469970703125,0.9718017578125
1630498001165,-0.2147216796875,-0.00628662109375,0.97198486328125
1630498001165,-0.21075439453125,-0.0045166015625,0.972900390625
1630498001203,-0.2138671875,-0.00604248046875,0.97216796875
1630498001203,-0.21026611328125,-0.01324462890625,0.969482421875
1630498001203,-0.21514892578125,-0.011962890625,0.97088623046875
1630498001251,-0.20672607421875,0.00042724609375,0.97369384765625
1630498001251,-0.20892333984375,-0.00897216796875,0.97271728515625
1630498001299,-0.20361328125,-0.00164794921875,0.97882080078125
1630498001299,-0.208251953125,-0.005615234375,0.9791259765625
1630498001299,-0.2052001953125,-0.004638671875,0.9805908203125
1630498001362,-0.2120361328125,-0.00592041015625,0.97412109375
1630498001365,-0.20654296875,-0.0023193359375,0.980224609375
1630498001366,-0.20751953125,-0.0052490234375,0.97808837890625
1630498001453,-0.21240234375,-0.01446533203125,0.97259521484375
1630498001454,-0.21490478515625,-0.00640869140625,0.97601318359375
1630498001454,-0.21392822265625,-0.0101318359375,0.9703369140625
1630498001516,-0.2159423828125,-0.00640869140625,0.97509765625
1630498001516,-0.21630859375,-0.00970458984375,0.9737548828125
1630498001516,-0.212158203125,-0.00714111328125,0.971435546875
1630498001517,-0.216796875,-0.00982666015625,0.97125244140625
1630498001518,-0.216796875,-0.00732421875,0.96875
1630498001519,-0.21649169921875,-0.010498046875,0.9710693359375
1630498001578,-0.2132568359375,-0.0059814453125,0.97686767578125
1630498001578,-0.2164306640625,-0.0048828125,0.97491455078125
1630498001579,-0.21466064453125,-0.004638671875,0.9759521484375
1630498001640,-0.21881103515625,-0.00439453125,0.97381591796875
1630498001640,-0.21417236328125,-0.00872802734375,0.9722900390625
1630498001655,-0.2130126953125,-0.01116943359375,0.97021484375
1630498001703,-0.21588134765625,-0.007080078125,0.97491455078125
1630498001703,-0.214111328125,-0.012451171875,0.97119140625
1630498001703,-0.21533203125,-0.008544921875,0.97198486328125
1630498001766,-0.2109375,-0.0062255859375,0.974365234375
1630498001766,-0.2103271484375,-0.00836181640625,0.97198486328125
1630498001766,-0.212158203125,-0.0057373046875,0.97015380859375
1630498001877,-0.21044921875,-0.0111083984375,0.97607421875
1630498001878,-0.20751953125,-0.007080078125,0.9708251953125
1630498001878,-0.211669921875,-0.01116943359375,0.9749755859375
1630498001892,-0.20587158203125,-0.0025634765625,0.971923828125
1630498001892,-0.20556640625,-0.00811767578125,0.97613525390625
1630498001892,-0.20831298828125,-0.00677490234375,0.97564697265625
1630498001939,-0.20599365234375,-0.005859375,0.98187255859375
1630498001939,-0.2059326171875,-0.00469970703125,0.9788818359375
1630498001939,-0.20391845703125,-0.003662109375,0.98040771484375
1630498002003,-0.20953369140625,-0.00775146484375,0.9710693359375
1630498002003,-0.20367431640625,-0.00531005859375,0.97467041015625
1630498002003,-0.21246337890625,-0.0072021484375,0.973876953125
1630498002095,-0.21234130859375,-0.0103759765625,0.9737548828125
1630498002095,-0.2156982421875,-0.01123046875,0.969970703125
1630498002096,-0.21429443359375,-0.01123046875,0.970947265625
1630498002159,-0.21405029296875,-0.008056640625,0.97467041015625
1630498002159,-0.21258544921875,-0.012451171875,0.973388671875
1630498002159,-0.2144775390625,-0.0079345703125,0.97467041015625
1630498002207,-0.2159423828125,-0.00653076171875,0.97515869140625
1630498002208,-0.2135009765625,-0.0096435546875,0.9737548828125
1630498002214,-0.21429443359375,-0.00921630859375,0.9764404296875
1630498002254,-0.21392822265625,-0.006591796875,0.9720458984375
1630498002255,-0.21575927734375,-0.00494384765625,0.9739990234375
1630498002255,-0.21807861328125,-0.00701904296875,0.97247314453125
1630498002302,-0.2142333984375,-0.0079345703125,0.96923828125
1630498002302,-0.2213134765625,-0.0076904296875,0.9735107421875
1630498002302,-0.21588134765625,-0.00762939453125,0.9739990234375
1630498002349,-0.21990966796875,-0.009765625,0.9705810546875
1630498002350,-0.22161865234375,-0.0081787109375,0.96856689453125
1630498002350,-0.216796875,-0.0091552734375,0.9705810546875
1630498002458,-0.2132568359375,-0.00592041015625,0.973388671875
1630498002459,-0.2144775390625,-0.00958251953125,0.97369384765625
1630498002460,-0.21759033203125,-0.007080078125,0.96875
1630498002484,-0.2073974609375,-0.01177978515625,0.9757080078125
1630498002486,-0.21221923828125,-0.0079345703125,0.9805908203125
1630498002512,-0.21185302734375,-0.0054931640625,0.9715576171875
1630498002535,-0.213134765625,-0.00762939453125,0.9765625
1630498002535,-0.2061767578125,-0.0054931640625,0.97357177734375
1630498002535,-0.2119140625,-0.010009765625,0.97283935546875
1630498002598,-0.205810546875,-0.0047607421875,0.9774169921875
1630498002598,-0.20574951171875,-0.0087890625,0.977783203125
1630498002599,-0.20513916015625,-0.00457763671875,0.98236083984375
1630498002706,-0.2137451171875,-0.0079345703125,0.970947265625
1630498002707,-0.2132568359375,-0.00927734375,0.970947265625
1630498002708,-0.20855712890625,-0.00640869140625,0.97845458984375
1630498002708,-0.21063232421875,-0.00457763671875,0.96929931640625
1630498002709,-0.2166748046875,-0.00787353515625,0.96759033203125
1630498002709,-0.20782470703125,-0.00579833984375,0.98101806640625
1630498002766,-0.21258544921875,-0.00738525390625,0.97003173828125
1630498002766,-0.21533203125,-0.0052490234375,0.97027587890625
1630498002766,-0.2120361328125,-0.0087890625,0.97198486328125
1630498002813,-0.2108154296875,-0.01202392578125,0.9779052734375
1630498002813,-0.21221923828125,-0.01104736328125,0.98095703125
1630498002813,-0.21142578125,-0.00799560546875,0.97406005859375
1630498002908,-0.21014404296875,-0.0074462890625,0.97869873046875
1630498002908,-0.21051025390625,-0.01275634765625,0.97802734375
1630498002908,-0.21160888671875,-0.00823974609375,0.97607421875
1630498002940,-0.212646484375,-0.00885009765625,0.974609375
1630498002951,-0.212158203125,-0.00714111328125,0.9737548828125
1630498002952,-0.21673583984375,-0.00604248046875,0.969970703125
1630498002987,-0.211181640625,-0.00628662109375,0.97418212890625
1630498002987,-0.2115478515625,-0.0045166015625,0.971435546875
1630498002987,-0.21429443359375,-0.00732421875,0.97015380859375
1630498003084,-0.211669921875,-0.0089111328125,0.96966552734375
1630498003084,-0.2125244140625,-0.00750732421875,0.97100830078125
1630498003084,-0.21051025390625,-0.00567626953125,0.96966552734375
1630498003161,-0.21478271484375,-0.009521484375,0.978515625
1630498003161,-0.20941162109375,-0.00634765625,0.974609375
1630498003161,-0.2109375,-0.0067138671875,0.975341796875
1630498003224,-0.20819091796875,-0.00787353515625,0.97296142578125
1630498003225,-0.20709228515625,-0.00457763671875,0.97650146484375
1630498003226,-0.21319580078125,-0.012939453125,0.9718017578125
1630498003256,-0.20428466796875,-0.00506591796875,0.98028564453125
1630498003256,-0.202880859375,-0.00421142578125,0.9766845703125
1630498003256,-0.20928955078125,-0.0032958984375,0.97747802734375
1630498003303,-0.20147705078125,-0.00396728515625,0.97650146484375
1630498003303,-0.2073974609375,-0.00885009765625,0.97589111328125
1630498003303,-0.202392578125,-0.00146484375,0.97784423828125
1630498003350,-0.20355224609375,-0.00811767578125,0.9688720703125
1630498003350,-0.2061767578125,-0.0069580078125,0.97247314453125
1630498003350,-0.20526123046875,-0.0059814453125,0.97442626953125
1630498003412,-0.20556640625,-0.00732421875,0.9771728515625
1630498003412,-0.2095947265625,-0.008056640625,0.97747802734375
1630498003412,-0.2032470703125,-0.00762939453125,0.9774169921875
1630498003475,-0.20538330078125,-0.006591796875,0.978271484375
1630498003475,-0.2047119140625,-0.00335693359375,0.9761962890625
1630498003476,-0.20550537109375,-0.00701904296875,0.97882080078125
1630498003522,-0.20660400390625,-0.00408935546875,0.9775390625
1630498003522,-0.20965576171875,-0.0048828125,0.97412109375
1630498003522,-0.20660400390625,-0.00543212890625,0.97955322265625
1630498003569,-0.207275390625,-0.00469970703125,0.97027587890625
1630498003569,-0.2109375,-0.00421142578125,0.97076416015625
1630498003569,-0.2098388671875,-0.005859375,0.9732666015625
1630498003648,-0.2109375,-0.005859375,0.9757080078125
1630498003648,-0.20989990234375,-0.00543212890625,0.97308349609375
1630498003648,-0.20916748046875,-0.00421142578125,0.9688720703125
1630498003711,-0.20928955078125,-0.00390625,0.97332763671875
1630498003712,-0.2093505859375,-0.00665283203125,0.9725341796875
1630498003712,-0.20928955078125,-0.00457763671875,0.96966552734375
1630498003789,-0.2034912109375,-0.01104736328125,0.97705078125
1630498003789,-0.20660400390625,-0.00750732421875,0.98089599609375
1630498003805,-0.20733642578125,-0.00360107421875,0.9700927734375
1630498003835,-0.2061767578125,-0.00762939453125,0.976806640625
1630498003836,-0.2049560546875,-0.004150390625,0.9771728515625
1630498003836,-0.2030029296875,-0.00390625,0.9791259765625
1630498003882,-0.197021484375,-0.0059814453125,0.98577880859375
1630498003882,-0.19622802734375,-0.00555419921875,0.98162841796875
1630498003882,-0.19866943359375,-0.0040283203125,0.98016357421875
1630498003960,-0.20257568359375,-0.00579833984375,0.975830078125
1630498003960,-0.2001953125,-0.00250244140625,0.9765625
1630498003961,-0.20086669921875,-0.00592041015625,0.980224609375
1630498004040,-0.2021484375,-0.00927734375,0.97418212890625
1630498004041,-0.20672607421875,-0.01348876953125,0.97137451171875
1630498004043,-0.20635986328125,-0.00653076171875,0.9732666015625
1630498004116,-0.20703125,-0.01385498046875,0.97467041015625
1630498004116,-0.20404052734375,-0.0059814453125,0.97900390625
1630498004116,-0.20684814453125,-0.0086669921875,0.9764404296875
1630498004117,-0.20684814453125,-0.01025390625,0.975341796875
1630498004118,-0.2039794921875,-0.01153564453125,0.97357177734375
1630498004118,-0.207275390625,-0.012451171875,0.97503662109375
1630498004179,-0.20880126953125,-0.0074462890625,0.978271484375
1630498004179,-0.20648193359375,-0.0107421875,0.9796142578125
1630498004180,-0.20953369140625,-0.007080078125,0.97906494140625
1630498004241,-0.2120361328125,-0.00726318359375,0.97088623046875
1630498004241,-0.21282958984375,-0.00677490234375,0.9696044921875
1630498004241,-0.20849609375,-0.0118408203125,0.974365234375
1630498004334,-0.21295166015625,-0.00811767578125,0.96893310546875
1630498004334,-0.21246337890625,-0.00823974609375,0.969970703125
1630498004334,-0.21319580078125,-0.0078125,0.96881103515625
1630498004350,-0.21282958984375,-0.00714111328125,0.97216796875
1630498004351,-0.2152099609375,-0.009033203125,0.9736328125
1630498004462,-0.2086181640625,-0.011474609375,0.97021484375
1630498004463,-0.21319580078125,-0.009521484375,0.9697265625
1630498004509,-0.2080078125,-0.00567626953125,0.97296142578125
1630498004509,-0.201416015625,-0.008544921875,0.97808837890625
1630498004511,-0.20526123046875,-0.00555419921875,0.97686767578125
1630498004557,-0.20184326171875,-0.0028076171875,0.97979736328125
1630498004557,-0.2005615234375,-0.00457763671875,0.98223876953125
1630498004557,-0.19976806640625,-0.00799560546875,0.980712890625
1630498004620,-0.2110595703125,-0.0087890625,0.97509765625
1630498004620,-0.20794677734375,-0.00958251953125,0.97314453125
1630498004621,-0.20196533203125,-0.008056640625,0.97808837890625
1630498004680,-0.2076416015625,-0.0137939453125,0.97247314453125
1630498004680,-0.20794677734375,-0.01361083984375,0.97186279296875
1630498004680,-0.21002197265625,-0.0123291015625,0.97125244140625
1630498004744,-0.20703125,-0.0093994140625,0.97613525390625
1630498004744,-0.206787109375,-0.0115966796875,0.971435546875
1630498004745,-0.2110595703125,-0.0069580078125,0.9736328125
1630498004807,-0.20721435546875,-0.00933837890625,0.976806640625
1630498004808,-0.207763671875,-0.0052490234375,0.97454833984375
1630498004808,-0.2054443359375,-0.00518798828125,0.97674560546875
1630498004871,-0.21295166015625,-0.008056640625,0.9727783203125
1630498004871,-0.21002197265625,-0.00604248046875,0.97509765625
1630498004871,-0.21282958984375,-0.00347900390625,0.97332763671875
1630498004933,-0.205078125,-0.01025390625,0.97369384765625
1630498004933,-0.20574951171875,-0.0074462890625,0.97357177734375
1630498004933,-0.2088623046875,-0.00579833984375,0.97015380859375
1630498004981,-0.2117919921875,-0.0018310546875,0.975341796875
1630498004981,-0.21038818359375,-0.0054931640625,0.9710693359375
1630498004981,-0.21356201171875,-0.00830078125,0.97528076171875
1630498005012,-0.20867919921875,-0.00640869140625,0.97015380859375
1630498005012,-0.209716796875,-0.0087890625,0.9705810546875
1630498005012,-0.21038818359375,-0.001708984375,0.9737548828125
1630498005078,-0.20135498046875,-0.00933837890625,0.9786376953125
1630498005080,-0.2039794921875,-0.00152587890625,0.97344970703125
1630498005080,-0.21063232421875,-0.0067138671875,0.966796875
1630498005226,-0.20318603515625,-0.0072021484375,0.9749755859375
1630498005226,-0.20001220703125,-0.0084228515625,0.9814453125
1630498005227,-0.1982421875,-0.006103515625,0.9873046875
1630498005227,-0.200439453125,-0.00628662109375,0.98248291015625
1630498005232,-0.20587158203125,-0.00946044921875,0.9715576171875
1630498005234,-0.20245361328125,-0.00830078125,0.98260498046875
1630498005241,-0.20751953125,-0.010986328125,0.9713134765625
1630498005241,-0.207275390625,-0.010498046875,0.973388671875
1630498005242,-0.20831298828125,-0.00775146484375,0.97552490234375
1630498005288,-0.21099853515625,-0.00933837890625,0.972900390625
1630498005288,-0.20855712890625,-0.005859375,0.9698486328125
1630498005288,-0.209228515625,-0.0078125,0.97076416015625
1630498005366,-0.2108154296875,-0.00823974609375,0.9766845703125
1630498005366,-0.21026611328125,-0.0079345703125,0.975341796875
1630498005429,-0.20916748046875,-0.00848388671875,0.97515869140625
1630498005429,-0.20941162109375,-0.0091552734375,0.9742431640625
1630498005429,-0.211181640625,-0.00579833984375,0.9757080078125
1630498005492,-0.2083740234375,-0.00518798828125,0.9747314453125
1630498005492,-0.2132568359375,-0.0020751953125,0.97418212890625
1630498005493,-0.20928955078125,-0.006591796875,0.97705078125
1630498005585,-0.21099853515625,-0.00421142578125,0.9681396484375
1630498005585,-0.2122802734375,-0.004150390625,0.97265625
1630498005633,-0.2122802734375,-0.0120849609375,0.97198486328125
1630498005633,-0.21173095703125,-0.00762939453125,0.97723388671875
1630498005633,-0.21197509765625,-0.0035400390625,0.97467041015625
1630498005679,-0.20977783203125,-0.00872802734375,0.9761962890625
1630498005679,-0.204345703125,-0.00823974609375,0.9652099609375
1630498005679,-0.2105712890625,-0.005615234375,0.96905517578125
1630498005726,-0.2061767578125,-0.0093994140625,0.9796142578125
1630498005726,-0.2073974609375,-0.00811767578125,0.9783935546875
1630498005727,-0.20599365234375,-0.0062255859375,0.98138427734375
1630498005787,-0.2120361328125,-0.0108642578125,0.97637939453125
1630498005798,-0.20855712890625,-0.00823974609375,0.97320556640625
1630498005799,-0.2069091796875,-0.00933837890625,0.97857666015625
1630498005817,-0.21331787109375,-0.01513671875,0.96856689453125
1630498005817,-0.21136474609375,-0.01690673828125,0.9703369140625
1630498005818,-0.2138671875,-0.011474609375,0.972900390625
1630498005897,-0.212158203125,-0.0120849609375,0.9676513671875
1630498005897,-0.210205078125,-0.00982666015625,0.970947265625
1630498005901,-0.206298828125,-0.0069580078125,0.96875
1630498005989,-0.20855712890625,-0.00445556640625,0.97344970703125
1630498005989,-0.20648193359375,-0.0059814453125,0.9764404296875
1630498006006,-0.206298828125,-0.00457763671875,0.9739990234375
1630498006006,-0.20611572265625,-0.0054931640625,0.974365234375
1630498006010,-0.2078857421875,-0.0067138671875,0.9779052734375
1630498006084,-0.20159912109375,-0.0098876953125,0.97418212890625
1630498006084,-0.20660400390625,-0.0047607421875,0.97802734375
1630498006084,-0.2037353515625,-0.00506591796875,0.9774169921875
1630498006177,-0.203125,-0.0035400390625,0.97613525390625
1630498006179,-0.2042236328125,-0.00396728515625,0.97637939453125
1630498006180,-0.20538330078125,-0.0040283203125,0.9742431640625
1630498006211,-0.20306396484375,-0.00518798828125,0.97320556640625
1630498006212,-0.2064208984375,-0.00445556640625,0.97723388671875
1630498006213,-0.205810546875,-0.01092529296875,0.97662353515625
1630498006240,-0.20343017578125,0.00152587890625,0.9742431640625
1630498006241,-0.20086669921875,-0.00054931640625,0.978759765625
1630498006242,-0.2008056640625,-0.00189208984375,0.9764404296875
1630498006318,-0.1964111328125,-0.00213623046875,0.98297119140625
1630498006318,-0.20074462890625,-0.00469970703125,0.98297119140625
1630498006319,-0.19781494140625,-0.0032958984375,0.98345947265625
1630498006382,-0.2003173828125,-0.00482177734375,0.97210693359375
1630498006397,-0.20489501953125,-0.00836181640625,0.978271484375
1630498006398,-0.1983642578125,-0.00799560546875,0.98065185546875
1630498006427,-0.20489501953125,-0.00732421875,0.97637939453125
1630498006427,-0.20654296875,-0.01287841796875,0.97314453125
1630498006427,-0.20849609375,-0.01141357421875,0.97467041015625
1630498006618,-0.20867919921875,-0.01043701171875,0.9718017578125
1630498006618,-0.20806884765625,-0.0059814453125,0.97491455078125
1630498006619,-0.20550537109375,-0.006591796875,0.970947265625
1630498006651,-0.208984375,-0.0042724609375,0.97857666015625
1630498006651,-0.2113037109375,-0.00543212890625,0.9794921875
1630498006651,-0.20794677734375,-0.00653076171875,0.979736328125
1630498006680,-0.21405029296875,-0.01226806640625,0.97332763671875
1630498006680,-0.20941162109375,-0.0113525390625,0.9757080078125
1630498006680,-0.21392822265625,-0.01177978515625,0.97344970703125
1630498006727,-0.21649169921875,-0.0113525390625,0.97381591796875
1630498006727,-0.21343994140625,-0.00836181640625,0.97442626953125
1630498006727,-0.21563720703125,-0.0106201171875,0.9747314453125
1630498006807,-0.21771240234375,-0.0118408203125,0.96759033203125
1630498006807,-0.2200927734375,-0.0107421875,0.97119140625
1630498006827,-0.2132568359375,-0.01055908203125,0.9716796875
1630498006837,-0.21832275390625,-0.0113525390625,0.9676513671875
1630498006837,-0.21453857421875,-0.01513671875,0.97332763671875
1630498006837,-0.2137451171875,-0.010009765625,0.9720458984375
1630498006868,-0.20721435546875,-0.0076904296875,0.9749755859375
1630498006869,-0.210693359375,-0.0081787109375,0.97021484375
1630498006869,-0.20867919921875,-0.01104736328125,0.97186279296875
1630498006899,-0.20947265625,-0.00762939453125,0.97930908203125
1630498006900,-0.208740234375,-0.00433349609375,0.97998046875
1630498006900,-0.2088623046875,-0.00762939453125,0.97845458984375
1630498006946,-0.2132568359375,-0.00982666015625,0.969970703125
1630498006947,-0.21185302734375,-0.00982666015625,0.97235107421875
1630498006947,-0.21240234375,-0.0074462890625,0.9747314453125
1630498007024,-0.2125244140625,-0.01434326171875,0.96893310546875
1630498007025,-0.2149658203125,-0.01318359375,0.97174072265625
1630498007026,-0.2108154296875,-0.01263427734375,0.97015380859375
1630498007088,-0.21142578125,-0.01153564453125,0.9708251953125
1630498007088,-0.21087646484375,-0.0120849609375,0.97125244140625
1630498007093,-0.2099609375,-0.005859375,0.9755859375
1630498007166,-0.20965576171875,-0.00445556640625,0.97833251953125
1630498007167,-0.21173095703125,-0.00921630859375,0.96966552734375
1630498007167,-0.21136474609375,-0.00762939453125,0.975341796875
1630498007168,-0.20928955078125,-0.00445556640625,0.978759765625
1630498007179,-0.20635986328125,-0.00701904296875,0.97381591796875
1630498007180,-0.21142578125,-0.0069580078125,0.97198486328125
1630498007289,-0.21551513671875,-0.00927734375,0.97607421875
1630498007289,-0.210693359375,-0.0087890625,0.9710693359375
1630498007289,-0.21063232421875,-0.00714111328125,0.97235107421875
1630498007303,-0.214111328125,-0.01171875,0.97296142578125
1630498007303,-0.21380615234375,-0.00787353515625,0.97723388671875
1630498007303,-0.2154541015625,-0.00982666015625,0.97509765625
1630498007351,-0.21063232421875,-0.0115966796875,0.97222900390625
1630498007351,-0.21234130859375,-0.01031494140625,0.9703369140625
1630498007351,-0.2127685546875,-0.01251220703125,0.96929931640625
1630498007398,-0.20587158203125,-0.00537109375,0.9796142578125
1630498007399,-0.2127685546875,-0.00933837890625,0.9730224609375
1630498007399,-0.205810546875,-0.0091552734375,0.97845458984375
1630498007507,-0.21075439453125,-0.01275634765625,0.97308349609375
1630498007507,-0.2083740234375,-0.00830078125,0.97735595703125
1630498007507,-0.20941162109375,-0.0113525390625,0.9771728515625
1630498007538,-0.21051025390625,-0.010009765625,0.97216796875
1630498007539,-0.212646484375,-0.01104736328125,0.9713134765625
1630498007540,-0.214111328125,-0.01019287109375,0.97357177734375
1630498007616,-0.2135009765625,-0.01031494140625,0.97320556640625
1630498007617,-0.21221923828125,-0.0157470703125,0.9703369140625
1630498007618,-0.21490478515625,-0.0120849609375,0.9674072265625
1630498007728,-0.2130126953125,-0.00714111328125,0.9735107421875
1630498007728,-0.21728515625,-0.0086669921875,0.9754638671875
1630498007728,-0.21319580078125,-0.00921630859375,0.9744873046875
1630498007805,-0.2158203125,-0.00921630859375,0.9713134765625
1630498007805,-0.21453857421875,-0.009033203125,0.973388671875
1630498007805,-0.21331787109375,-0.0062255859375,0.97552490234375
1630498007823,-0.21319580078125,-0.00689697265625,0.97137451171875
1630498007823,-0.214599609375,-0.00677490234375,0.97454833984375
1630498007823,-0.212646484375,-0.0057373046875,0.97540283203125
1630498007852,-0.20770263671875,-0.00762939453125,0.97137451171875
1630498007852,-0.21173095703125,-0.0068359375,0.9735107421875
1630498007854,-0.20977783203125,-0.0025634765625,0.9735107421875
1630498007915,-0.21405029296875,-0.00457763671875,0.9686279296875
1630498007916,-0.21405029296875,-0.00128173828125,0.97021484375
1630498007916,-0.21417236328125,-0.0030517578125,0.97467041015625
1630498007978,-0.21142578125,-0.00482177734375,0.97540283203125
1630498007978,-0.209716796875,-0.00830078125,0.96929931640625
1630498007979,-0.20770263671875,-0.01220703125,0.9739990234375
1630498008009,-0.2071533203125,-0.0062255859375,0.97296142578125
1630498008029,-0.20916748046875,-0.0050048828125,0.97528076171875
1630498008039,-0.20025634765625,-0.0089111328125,0.98199462890625
1630498008070,-0.20135498046875,-0.00640869140625,0.98223876953125
1630498008070,-0.2047119140625,-0.01007080078125,0.9844970703125
1630498008070,-0.20562744140625,-0.009033203125,0.979248046875
1630498008133,-0.205810546875,-0.0108642578125,0.97149658203125
1630498008133,-0.20806884765625,-0.00592041015625,0.97119140625
1630498008135,-0.20281982421875,-0.0123291015625,0.9775390625
1630498008242,-0.204833984375,-0.00726318359375,0.97882080078125
1630498008243,-0.210693359375,-0.00433349609375,0.97723388671875
1630498008244,-0.20550537109375,-0.0062255859375,0.974853515625
1630498008244,-0.2086181640625,-0.008544921875,0.97576904296875
1630498008244,-0.2064208984375,-0.00482177734375,0.9775390625
1630498008245,-0.20709228515625,-0.00152587890625,0.975341796875
1630498008322,-0.2113037109375,-0.00408935546875,0.9794921875
1630498008322,-0.21197509765625,-0.00567626953125,0.97589111328125
1630498008323,-0.20654296875,-0.00677490234375,0.97772216796875
1630498008386,-0.21453857421875,-0.0086669921875,0.9718017578125
1630498008386,-0.21380615234375,-0.00897216796875,0.97216796875
1630498008386,-0.20855712890625,-0.00634765625,0.97491455078125
1630498008448,-0.21356201171875,-0.0020751953125,0.96649169921875
1630498008448,-0.214599609375,-0.00042724609375,0.9654541015625
1630498008448,-0.2099609375,-0.00738525390625,0.9666748046875
1630498008510,-0.21441650390625,-0.00048828125,0.965087890625
1630498008510,-0.21246337890625,-0.000244140625,0.97161865234375
1630498008511,-0.2108154296875,-0.00213623046875,0.974609375
1630498008561,-0.20404052734375,-0.00299072265625,0.97125244140625
1630498008561,-0.21142578125,-0.0015869140625,0.98126220703125
1630498008563,-0.20458984375,-0.00823974609375,0.9725341796875
1630498008622,-0.20281982421875,-0.00628662109375,0.97705078125
1630498008622,-0.2027587890625,-0.00531005859375,0.973388671875
1630498008622,-0.19970703125,-0.00653076171875,0.98114013671875
1630498008668,-0.197509765625,-0.00286865234375,0.9854736328125
1630498008670,-0.19891357421875,-0.0029296875,0.98828125
1630498008671,-0.200439453125,-0.00421142578125,0.9805908203125
1630498008744,-0.20159912109375,-0.003173828125,0.9713134765625
1630498008744,-0.205078125,-0.0010986328125,0.97650146484375
1630498008744,-0.2012939453125,-0.00506591796875,0.976806640625
1630498008823,-0.206298828125,-0.00958251953125,0.97454833984375
1630498008823,-0.20550537109375,-0.0054931640625,0.9742431640625
1630498008823,-0.2083740234375,-0.00531005859375,0.9759521484375
1630498008823,-0.2022705078125,-0.0069580078125,0.97412109375
1630498008824,-0.20269775390625,-0.00921630859375,0.9757080078125
1630498008824,-0.21124267578125,-0.01031494140625,0.972900390625
1630498008899,-0.20550537109375,-0.0069580078125,0.9803466796875
1630498008899,-0.20697021484375,-0.006103515625,0.98016357421875
1630498008899,-0.2061767578125,-0.00335693359375,0.97576904296875
1630498008946,-0.2064208984375,-0.006591796875,0.97833251953125
1630498008946,-0.2083740234375,-0.0054931640625,0.982177734375
1630498008947,-0.20452880859375,-0.00408935546875,0.97674560546875
1630498009008,-0.20947265625,-0.00726318359375,0.9755859375
1630498009008,-0.20867919921875,-0.00775146484375,0.97802734375
1630498009008,-0.209228515625,-0.00897216796875,0.97271728515625
1630498009101,-0.2099609375,-0.00714111328125,0.97406005859375
1630498009101,-0.2144775390625,-0.004150390625,0.97064208984375
1630498009101,-0.21063232421875,-0.00567626953125,0.97283935546875
1630498009147,-0.21575927734375,-0.00238037109375,0.9674072265625
1630498009147,-0.21453857421875,-0.0062255859375,0.9698486328125
1630498009147,-0.21441650390625,-0.009521484375,0.972900390625
1630498009178,-0.2142333984375,-0.00701904296875,0.96917724609375
1630498009179,-0.21490478515625,-0.00689697265625,0.96612548828125
1630498009179,-0.21246337890625,-0.00848388671875,0.9674072265625
1630498009224,-0.21136474609375,-0.00830078125,0.97528076171875
1630498009245,-0.2113037109375,-0.006591796875,0.97222900390625
1630498009248,-0.2144775390625,-0.00653076171875,0.979736328125
1630498009349,-0.211181640625,-0.00555419921875,0.97100830078125
1630498009349,-0.2147216796875,-0.00604248046875,0.9749755859375
1630498009349,-0.20703125,-0.0028076171875,0.97857666015625
1630498009394,-0.21893310546875,-0.0098876953125,0.97076416015625
1630498009394,-0.21722412109375,-0.00689697265625,0.97186279296875
1630498009394,-0.22064208984375,-0.01287841796875,0.96942138671875
1630498009425,-0.22064208984375,-0.0128173828125,0.96673583984375
1630498009426,-0.21734619140625,-0.01275634765625,0.96856689453125
1630498009426,-0.22222900390625,-0.0137939453125,0.965576171875
1630498009473,-0.21966552734375,-0.0140380859375,0.97515869140625
1630498009473,-0.2174072265625,-0.01348876953125,0.97052001953125
1630498009474,-0.21942138671875,-0.00799560546875,0.9720458984375
1630498009567,-0.2174072265625,-0.0142822265625,0.97418212890625
1630498009567,-0.2196044921875,-0.0140380859375,0.97650146484375
1630498009568,-0.21929931640625,-0.0126953125,0.974609375
1630498009631,-0.21893310546875,-0.013671875,0.97125244140625
1630498009631,-0.2191162109375,-0.01287841796875,0.966796875
1630498009631,-0.21826171875,-0.011962890625,0.9757080078125
1630498009663,-0.21868896484375,-0.0130615234375,0.97119140625
1630498009663,-0.218994140625,-0.01641845703125,0.969970703125
1630498009664,-0.21856689453125,-0.01397705078125,0.96978759765625
1630498009725,-0.22161865234375,-0.01129150390625,0.9739990234375
1630498009725,-0.216796875,-0.0118408203125,0.9678955078125
1630498009725,-0.21942138671875,-0.014892578125,0.970947265625
1630498009787,-0.21868896484375,-0.01263427734375,0.97076416015625
1630498009787,-0.217041015625,-0.0152587890625,0.97003173828125
1630498009790,-0.218505859375,-0.009033203125,0.97076416015625
1630498009835,-0.2137451171875,-0.0078125,0.9742431640625
1630498009835,-0.2109375,-0.0081787109375,0.9776611328125
1630498009835,-0.21160888671875,-0.01385498046875,0.97674560546875
1630498009898,-0.2098388671875,-0.0074462890625,0.97698974609375
1630498009898,-0.21234130859375,-0.00787353515625,0.9752197265625
1630498009898,-0.2132568359375,-0.0067138671875,0.97662353515625
1630498009978,-0.21533203125,-0.0106201171875,0.97491455078125
1630498009981,-0.21917724609375,-0.0140380859375,0.97412109375
1630498009981,-0.22027587890625,-0.01397705078125,0.971435546875
1630498010040,-0.21826171875,-0.01416015625,0.97003173828125
1630498010040,-0.22088623046875,-0.01617431640625,0.9664306640625
1630498010041,-0.22271728515625,-0.012451171875,0.96746826171875
1630498010102,-0.220947265625,-0.0103759765625,0.9681396484375
1630498010102,-0.2205810546875,-0.00897216796875,0.9705810546875
1630498010102,-0.22052001953125,-0.00762939453125,0.97406005859375
1630498010133,-0.22332763671875,-0.00628662109375,0.9715576171875
1630498010133,-0.22308349609375,-0.009765625,0.9736328125
1630498010133,-0.2210693359375,-0.00616455078125,0.97113037109375
1630498010197,-0.219970703125,-0.01287841796875,0.97052001953125
1630498010197,-0.22119140625,-0.00665283203125,0.9730224609375
1630498010197,-0.2213134765625,-0.01068115234375,0.97137451171875
1630498010261,-0.22137451171875,-0.009765625,0.9688720703125
1630498010262,-0.21978759765625,-0.0076904296875,0.97027587890625
1630498010268,-0.2230224609375,-0.0107421875,0.9681396484375
1630498010355,-0.2222900390625,-0.00909423828125,0.9696044921875
1630498010356,-0.220458984375,-0.00787353515625,0.9700927734375
1630498010357,-0.2197265625,-0.0052490234375,0.97412109375
1630498010402,-0.2174072265625,-0.0072021484375,0.96923828125
1630498010409,-0.224853515625,-0.0072021484375,0.97198486328125
1630498010415,-0.22308349609375,-0.014404296875,0.968505859375
1630498010465,-0.21728515625,-0.0067138671875,0.9703369140625
1630498010465,-0.21112060546875,-0.003662109375,0.9710693359375
1630498010465,-0.217529296875,-0.0062255859375,0.9676513671875
1630498010481,-0.214111328125,-0.00238037109375,0.978271484375
1630498010481,-0.2135009765625,-0.00750732421875,0.9814453125
1630498010482,-0.21246337890625,-0.0035400390625,0.97564697265625
1630498010544,-0.213623046875,-0.008056640625,0.97894287109375
1630498010544,-0.2138671875,-0.00677490234375,0.98004150390625
1630498010545,-0.2186279296875,-0.0072021484375,0.9769287109375
1630498010623,-0.21783447265625,-0.00628662109375,0.97003173828125
1630498010623,-0.216552734375,-0.00860595703125,0.9739990234375
1630498010624,-0.2218017578125,-0.00689697265625,0.96441650390625
1630498010689,-0.21722412109375,-0.0057373046875,0.9669189453125
1630498010690,-0.2176513671875,-0.00775146484375,0.962646484375
1630498010690,-0.21600341796875,-0.0009765625,0.9710693359375
1630498010735,-0.2147216796875,-0.0059814453125,0.97296142578125
1630498010735,-0.218017578125,-0.00506591796875,0.9747314453125
1630498010735,-0.2171630859375,-0.00433349609375,0.9761962890625
1630498010783,-0.2144775390625,-0.0062255859375,0.97674560546875
1630498010783,-0.21435546875,-0.0045166015625,0.97430419921875
1630498010796,-0.22039794921875,-0.00811767578125,0.9765625
1630498010860,-0.215576171875,-0.0048828125,0.9752197265625
1630498010860,-0.218994140625,-0.00531005859375,0.974609375
1630498010861,-0.21722412109375,-0.00262451171875,0.97650146484375
1630498010971,-0.21826171875,-0.0042724609375,0.97027587890625
1630498010971,-0.21478271484375,-0.00567626953125,0.974365234375
1630498010971,-0.21630859375,-0.00177001953125,0.9666748046875
1630498011003,-0.22259521484375,-0.00164794921875,0.97735595703125
1630498011003,-0.2169189453125,-0.00482177734375,0.97259521484375
1630498011004,-0.2183837890625,-0.008056640625,0.97064208984375
1630498011007,-0.22100830078125,-0.0035400390625,0.9671630859375
1630498011007,-0.2186279296875,-0.0025634765625,0.969482421875
1630498011007,-0.21746826171875,0.00067138671875,0.96875
1630498011131,-0.21484375,-0.0048828125,0.96514892578125
1630498011169,-0.2135009765625,-0.00836181640625,0.98382568359375
1630498011227,-0.21514892578125,-0.0113525390625,0.9720458984375
1630498011227,-0.2127685546875,-0.00885009765625,0.9775390625
1630498011228,-0.21929931640625,-0.0072021484375,0.969970703125
1630498011287,-0.21978759765625,-0.005615234375,0.97564697265625
1630498011288,-0.2205810546875,-0.01129150390625,0.9732666015625
1630498011289,-0.21697998046875,-0.0098876953125,0.97393798828125
1630498011333,-0.2216796875,-0.00872802734375,0.968017578125
1630498011333,-0.2200927734375,-0.00799560546875,0.96942138671875
1630498011333,-0.218017578125,-0.00726318359375,0.9691162109375
1630498011380,-0.22100830078125,-0.00640869140625,0.97442626953125
1630498011380,-0.22076416015625,-0.005126953125,0.975341796875
1630498011380,-0.21575927734375,-0.0120849609375,0.97021484375
1630498011427,-0.22247314453125,-0.01531982421875,0.9688720703125
1630498011427,-0.22576904296875,-0.00726318359375,0.97235107421875
1630498011428,-0.22357177734375,-0.00799560546875,0.96612548828125
1630498011553,-0.21875,-0.011474609375,0.96881103515625
1630498011553,-0.222900390625,-0.00921630859375,0.96826171875
1630498011553,-0.2208251953125,-0.00927734375,0.9671630859375
1630498011553,-0.22491455078125,-0.01373291015625,0.969482421875
1630498011554,-0.22467041015625,-0.0111083984375,0.96600341796875
1630498011554,-0.2218017578125,-0.0126953125,0.96759033203125
1630498011637,-0.2222900390625,-0.01141357421875,0.969970703125
1630498011641,-0.22125244140625,-0.01025390625,0.97247314453125
1630498011656,-0.22235107421875,-0.010009765625,0.96990966796875
1630498011668,-0.218017578125,-0.011962890625,0.96923828125
1630498011671,-0.22235107421875,-0.0084228515625,0.9744873046875
1630498011672,-0.21868896484375,-0.0162353515625,0.96832275390625
1630498011711,-0.2203369140625,-0.0106201171875,0.97412109375
1630498011711,-0.21685791015625,-0.00946044921875,0.97418212890625
1630498011712,-0.21893310546875,-0.0093994140625,0.97052001953125
1630498011820,-0.2166748046875,-0.0093994140625,0.97515869140625
1630498011821,-0.213623046875,-0.01043701171875,0.970703125
1630498011823,-0.216796875,-0.01275634765625,0.97174072265625
1630498011898,-0.22052001953125,-0.01348876953125,0.96929931640625
1630498011898,-0.2210693359375,-0.011962890625,0.97442626953125
1630498011899,-0.21905517578125,-0.00994873046875,0.9708251953125
1630498011900,-0.2191162109375,-0.00909423828125,0.97381591796875
1630498011904,-0.21856689453125,-0.0062255859375,0.9755859375
1630498011905,-0.214599609375,-0.00555419921875,0.97735595703125
1630498011961,-0.2193603515625,-0.012939453125,0.97393798828125
1630498011961,-0.22015380859375,-0.0130615234375,0.97186279296875
1630498011962,-0.21624755859375,-0.01116943359375,0.97247314453125
1630498012024,-0.21966552734375,-0.0107421875,0.97760009765625
1630498012024,-0.2193603515625,-0.0106201171875,0.97686767578125
1630498012024,-0.22222900390625,-0.00762939453125,0.97332763671875
1630498012087,-0.2205810546875,-0.01043701171875,0.965576171875
1630498012087,-0.222412109375,-0.00628662109375,0.96490478515625
1630498012087,-0.2203369140625,-0.0089111328125,0.971435546875
1630498012164,-0.21612548828125,-0.0057373046875,0.97222900390625
1630498012164,-0.21990966796875,-0.01007080078125,0.96844482421875
1630498012165,-0.21917724609375,-0.0064697265625,0.96826171875
1630498012211,-0.21612548828125,-0.013427734375,0.972412109375
1630498012211,-0.21875,-0.00994873046875,0.9739990234375
1630498012212,-0.21905517578125,-0.010009765625,0.9705810546875
1630498012272,-0.21356201171875,-0.0128173828125,0.97216796875
1630498012273,-0.2144775390625,-0.009521484375,0.972412109375
1630498012273,-0.217041015625,-0.00775146484375,0.97686767578125
1630498012320,-0.21343994140625,-0.0064697265625,0.969970703125
1630498012320,-0.2169189453125,-0.01678466796875,0.9735107421875
1630498012320,-0.21728515625,-0.010009765625,0.97686767578125
1630498012381,-0.2120361328125,-0.00885009765625,0.97637939453125
1630498012381,-0.21563720703125,-0.00433349609375,0.97650146484375
1630498012382,-0.2137451171875,-0.00604248046875,0.97344970703125
1630498012428,-0.21771240234375,-0.006103515625,0.9716796875
1630498012428,-0.2137451171875,-0.00823974609375,0.9766845703125
1630498012428,-0.21343994140625,-0.0096435546875,0.9761962890625
1630498012504,-0.216552734375,-0.0120849609375,0.9708251953125
1630498012504,-0.218994140625,-0.00640869140625,0.9713134765625
1630498012505,-0.21942138671875,-0.01239013671875,0.9732666015625
1630498012568,-0.2203369140625,-0.01324462890625,0.96636962890625
1630498012569,-0.2183837890625,-0.01153564453125,0.97039794921875
1630498012569,-0.220458984375,-0.0164794921875,0.96722412109375
1630498012633,-0.21868896484375,-0.0123291015625,0.9736328125
1630498012633,-0.21453857421875,-0.011474609375,0.9759521484375
1630498012634,-0.2208251953125,-0.01007080078125,0.9708251953125
1630498012648,-0.21405029296875,-0.0113525390625,0.97930908203125
1630498012649,-0.21630859375,-0.0166015625,0.97467041015625
1630498012651,-0.21728515625,-0.010986328125,0.977294921875
1630498012725,-0.22088623046875,-0.0111083984375,0.9715576171875
1630498012742,-0.21734619140625,-0.00946044921875,0.9688720703125
1630498012745,-0.220458984375,-0.01226806640625,0.970947265625
1630498012835,-0.22021484375,-0.00811767578125,0.9688720703125
1630498012836,-0.22052001953125,-0.00604248046875,0.96929931640625
1630498012836,-0.2210693359375,-0.0120849609375,0.968505859375
1630498012881,-0.2203369140625,-0.0052490234375,0.96954345703125
1630498012881,-0.22100830078125,-0.00775146484375,0.96588134765625
1630498012881,-0.21771240234375,-0.00689697265625,0.9713134765625
1630498012929,-0.21966552734375,-0.01287841796875,0.97808837890625
1630498012929,-0.2197265625,-0.00872802734375,0.9658203125
1630498012933,-0.21942138671875,-0.00738525390625,0.97369384765625
1630498013016,-0.21746826171875,-0.01629638671875,0.97216796875
1630498013017,-0.21697998046875,-0.01324462890625,0.969482421875
1630498013037,-0.21356201171875,-0.01019287109375,0.972412109375
1630498013085,-0.2120361328125,-0.01318359375,0.97845458984375
1630498013085,-0.20782470703125,-0.0084228515625,0.97918701171875
1630498013085,-0.20733642578125,-0.009765625,0.97998046875
1630498013100,-0.210693359375,-0.0076904296875,0.98089599609375
1630498013101,-0.21435546875,-0.00927734375,0.97760009765625
1630498013101,-0.21575927734375,-0.0108642578125,0.97509765625
1630498013146,-0.21240234375,-0.01055908203125,0.96929931640625
1630498013146,-0.2178955078125,-0.00830078125,0.97357177734375
1630498013147,-0.21795654296875,-0.0130615234375,0.97314453125
1630498013240,-0.21881103515625,-0.01214599609375,0.97161865234375
1630498013241,-0.22003173828125,-0.01104736328125,0.97064208984375
1630498013242,-0.2235107421875,-0.01226806640625,0.9727783203125
1630498013272,-0.2200927734375,-0.00970458984375,0.97320556640625
1630498013272,-0.22088623046875,-0.00836181640625,0.96856689453125
1630498013272,-0.220703125,-0.01019287109375,0.9735107421875
1630498013368,-0.22357177734375,-0.00543212890625,0.96685791015625
1630498013368,-0.22393798828125,-0.0023193359375,0.96881103515625
1630498013368,-0.22198486328125,-0.0064697265625,0.968505859375
1630498013383,-0.22161865234375,-0.0087890625,0.9759521484375
1630498013383,-0.22357177734375,-0.00543212890625,0.97320556640625
1630498013383,-0.2222900390625,-0.0054931640625,0.96954345703125
1630498013430,-0.218017578125,-0.00787353515625,0.97210693359375
1630498013430,-0.217529296875,-0.00787353515625,0.96954345703125
1630498013430,-0.22314453125,-0.00982666015625,0.97186279296875
1630498013526,-0.2196044921875,-0.01123046875,0.9691162109375
1630498013527,-0.22357177734375,-0.00469970703125,0.978759765625
1630498013557,-0.22052001953125,-0.00830078125,0.9736328125
1630498013557,-0.2164306640625,-0.00537109375,0.96661376953125
1630498013558,-0.21844482421875,-0.00927734375,0.9742431640625
1630498013620,-0.210693359375,-0.0057373046875,0.97265625
1630498013620,-0.21209716796875,-0.0069580078125,0.97833251953125
1630498013620,-0.2205810546875,-0.00616455078125,0.968505859375
1630498013651,-0.21429443359375,-0.00732421875,0.97308349609375
1630498013652,-0.21441650390625,-0.00506591796875,0.98199462890625
1630498013652,-0.21429443359375,-0.0093994140625,0.97857666015625
1630498013777,-0.21783447265625,-0.010498046875,0.97821044921875
1630498013777,-0.21868896484375,-0.01080322265625,0.97833251953125
1630498013778,-0.21337890625,-0.0091552734375,0.97442626953125
1630498013778,-0.21490478515625,-0.01068115234375,0.974365234375
1630498013787,-0.22076416015625,-0.01025390625,0.97845458984375
1630498013788,-0.21746826171875,-0.0062255859375,0.97607421875
1630498013888,-0.221923828125,-0.013671875,0.96990966796875
1630498013889,-0.22454833984375,-0.00933837890625,0.9754638671875
1630498013895,-0.2200927734375,-0.00927734375,0.97589111328125
1630498013938,-0.22540283203125,-0.010986328125,0.97052001953125
1630498013938,-0.2296142578125,-0.00994873046875,0.97247314453125
1630498013938,-0.2254638671875,-0.01068115234375,0.96990966796875
1630498013952,-0.22869873046875,-0.01446533203125,0.97198486328125
1630498013953,-0.2333984375,-0.0162353515625,0.9698486328125
1630498013967,-0.232177734375,-0.01287841796875,0.9718017578125
1630498014015,-0.2362060546875,-0.0147705078125,0.95654296875
1630498014015,-0.23211669921875,-0.015869140625,0.96673583984375
1630498014016,-0.2393798828125,-0.01287841796875,0.96197509765625
1630498014112,-0.2420654296875,-0.0133056640625,0.95654296875
1630498014134,-0.2467041015625,-0.0135498046875,0.9566650390625
1630498014141,-0.24072265625,-0.01263427734375,0.95306396484375
1630498014157,-0.24566650390625,-0.01910400390625,0.9588623046875
1630498014157,-0.24676513671875,-0.0164794921875,0.96636962890625
1630498014157,-0.244873046875,-0.0128173828125,0.9677734375
1630498014188,-0.24298095703125,-0.0135498046875,0.9610595703125
1630498014188,-0.24261474609375,-0.0103759765625,0.9671630859375
1630498014188,-0.24169921875,-0.01165771484375,0.963623046875
1630498014284,-0.2476806640625,-0.0081787109375,0.9625244140625
1630498014284,-0.24444580078125,-0.01263427734375,0.9671630859375
1630498014284,-0.24053955078125,-0.009765625,0.96624755859375
1630498014315,-0.24664306640625,-0.00885009765625,0.96075439453125
1630498014315,-0.24822998046875,-0.01007080078125,0.95989990234375
1630498014315,-0.24774169921875,-0.0069580078125,0.958984375
1630498014393,-0.24468994140625,-0.01470947265625,0.9678955078125
1630498014393,-0.2454833984375,-0.009033203125,0.96868896484375
1630498014393,-0.24371337890625,-0.01495361328125,0.9693603515625
1630498014472,-0.24298095703125,-0.01104736328125,0.97332763671875
1630498014473,-0.24224853515625,-0.016357421875,0.97430419921875
1630498014488,-0.24169921875,-0.01409912109375,0.9722900390625
1630498014488,-0.24365234375,-0.01239013671875,0.97198486328125
1630498014488,-0.24493408203125,-0.0130615234375,0.96441650390625
1630498014535,-0.2513427734375,-0.01556396484375,0.96478271484375
1630498014536,-0.24774169921875,-0.0118408203125,0.96368408203125
1630498014536,-0.24822998046875,-0.01068115234375,0.96514892578125
1630498014615,-0.25140380859375,-0.01202392578125,0.95599365234375
1630498014615,-0.247802734375,-0.0123291015625,0.95819091796875
1630498014619,-0.24676513671875,-0.01385498046875,0.96185302734375
1630498014693,-0.25128173828125,-0.0128173828125,0.96136474609375
1630498014693,-0.25146484375,-0.01141357421875,0.962646484375
1630498014693,-0.2520751953125,-0.01507568359375,0.960205078125
1630498014836,-0.25341796875,-0.013916015625,0.95989990234375
1630498014851,-0.254638671875,-0.00933837890625,0.96087646484375
1630498014851,-0.257080078125,-0.02130126953125,0.9605712890625
1630498014866,-0.25543212890625,-0.0172119140625,0.953857421875
1630498014867,-0.25457763671875,-0.02032470703125,0.95947265625
1630498014868,-0.2542724609375,-0.017333984375,0.95330810546875
1630498014883,-0.25555419921875,-0.0147705078125,0.96246337890625
1630498014884,-0.25714111328125,-0.0167236328125,0.96124267578125
1630498014884,-0.25372314453125,-0.01739501953125,0.963623046875
1630498014897,-0.2642822265625,-0.0184326171875,0.94573974609375
1630498014899,-0.256591796875,-0.022705078125,0.96527099609375
1630498014906,-0.26116943359375,-0.0169677734375,0.95361328125
1630498015022,-0.255615234375,-0.0203857421875,0.955078125
1630498015024,-0.255615234375,-0.0230712890625,0.9571533203125
1630498015024,-0.25787353515625,-0.02435302734375,0.9605712890625
1630498015027,-0.257568359375,-0.021240234375,0.96759033203125
1630498015038,-0.2579345703125,-0.01971435546875,0.96588134765625
1630498015041,-0.26165771484375,-0.01654052734375,0.9560546875
1630498015085,-0.25433349609375,-0.0234375,0.96136474609375
1630498015085,-0.25335693359375,-0.01947021484375,0.96392822265625
1630498015085,-0.2545166015625,-0.01898193359375,0.96258544921875
1630498015167,-0.24560546875,-0.0142822265625,0.97076416015625
1630498015167,-0.24859619140625,-0.0128173828125,0.966552734375
1630498015167,-0.25347900390625,-0.017578125,0.96392822265625
1630498015208,-0.25,-0.01458740234375,0.96258544921875
1630498015208,-0.2462158203125,-0.01129150390625,0.9716796875
1630498015210,-0.24627685546875,-0.01251220703125,0.9683837890625
1630498015256,-0.2493896484375,-0.012451171875,0.95880126953125
1630498015256,-0.2489013671875,-0.01800537109375,0.9569091796875
1630498015256,-0.24969482421875,-0.01422119140625,0.963623046875
