timestamp,ax,ay,az
1630412019529,-0.363438,0.457012,-0.795013
1630412019539,-0.363865,0.459208,-0.796843
1630412019548,-0.364597,0.46036699999999997,-0.7991
1630412019558,-0.36295,0.460916,-0.8023939999999999
1630412019567,-0.362584,0.46128199999999997,-0.805017
1630412019577,-0.362828,0.459818,-0.807396
1630412019587,-0.361669,0.457866,-0.8063589999999999
1630412019596,-0.360815,0.457744,-0.804163
1630412019606,-0.360022,0.458598,-0.801662
1630412019615,-0.360327,0.459208,-0.798307
1630412019625,-0.360876,0.458903,-0.794464
1630412019635,-0.36051,0.459391,-0.791841
1630412019644,-0.360876,0.459696,-0.7902549999999999
1630412019654,-0.361059,0.458415,-0.790133
1630412019663,-0.362401,0.457927,-0.791658
1630412019673,-0.362462,0.458232,-0.793854
1630412019683,-0.362828,0.458415,-0.797087
1630412019692,-0.360083,0.457439,-0.800076
1630412019702,-0.360083,0.457561,-0.8017839999999999
1630412019711,-0.361852,0.458415,-0.8017839999999999
1630412019721,-0.360815,0.459269,-0.8014789999999999
1630412019731,-0.361364,0.459574,-0.800625
1630412019740,-0.36295,0.46097699999999997,-0.7996489999999999
1630412019750,-0.362462,0.462319,-0.799588
1630412019759,-0.361608,0.462868,-0.798002
1630412019769,-0.360144,0.463051,-0.79605
1630412019779,-0.359473,0.462929,-0.794647
1630412019788,-0.361303,0.461953,-0.79239
1630412019798,-0.360876,0.461526,-0.790011
1630412019807,-0.360388,0.46067199999999997,-0.786778
1630412019817,-0.359046,0.463661,-0.785741
1630412019827,-0.360083,0.465918,-0.7862899999999999
1630411793134,-0.4575,0.6344,-0.603717
1630411793144,-0.457805,0.6344,-0.604144
1630411793154,-0.456829,0.634705,-0.604998
1630411793163,-0.457073,0.634888,-0.60512
1630411793173,-0.45627999999999996,0.635803,-0.605547
1630411793182,-0.45597499999999996,0.634949,-0.604388
1630411793192,-0.456036,0.635254,-0.603473
1630411793202,-0.456402,0.635193,-0.602985
1630411793211,-0.45566999999999996,0.634522,-0.60329
1630411793221,-0.455487,0.633668,-0.603656
1630411793230,-0.45505999999999996,0.634278,-0.604266
1630411793240,-0.456036,0.633424,-0.604632
1630411793250,-0.454694,0.63379,-0.604754
1630411793259,-0.454511,0.634034,-0.603778
1630411793269,-0.453962,0.634217,-0.603656
1630411793278,-0.453657,0.634522,-0.603656
1630411793288,-0.453901,0.6341559999999999,-0.603656
1630411793298,-0.453657,0.6341559999999999,-0.604388
1630411793307,-0.453962,0.634034,-0.605059
1630411793317,-0.453596,0.6353759999999999,-0.604083
1630411793326,-0.454084,0.634278,-0.604693
1630411793336,-0.453718,0.6350709999999999,-0.605486
1630411793346,-0.454084,0.635498,-0.606584
1630411793355,-0.454328,0.634217,-0.605913
1630411793365,-0.453352,0.634644,-0.606096
1630411793374,-0.453413,0.633485,-0.605486
1630411793384,-0.452559,0.634034,-0.604266
1630411793394,-0.453352,0.634217,-0.603839
1630411793403,-0.453962,0.634583,-0.6039
1630411793413,-0.45383999999999997,0.6344,-0.604937
1630411793422,-0.454328,0.635132,-0.604205
1630411793432,-0.453596,0.634827,-0.604693
1630411793442,-0.454511,0.634644,-0.604754
1630411793451,-0.454023,0.634827,-0.606157
1630411793461,-0.452742,0.63501,-0.606218
1630411793470,-0.452498,0.635315,-0.606462
1630411793480,-0.45139999999999997,0.6356809999999999,-0.606401
1630411793490,-0.451034,0.6359859999999999,-0.605608
1630411793499,-0.452071,0.634644,-0.605791
1630411793509,-0.45170499999999997,0.634095,-0.604876
1630411793518,-0.45078999999999997,0.633424,-0.605242
1630411793528,-0.45109499999999997,0.634278,-0.605059
1630411793538,-0.451522,0.6347659999999999,-0.605303
1630411793547,-0.451278,0.636962,-0.607072
1630411793557,-0.450363,0.636535,-0.60756
1630411793566,-0.449814,0.634888,-0.608414
1630411793576,-0.44895999999999997,0.634705,-0.608353
1630411793586,-0.450119,0.633363,-0.607865
1630411793595,-0.449692,0.6323259999999999,-0.606157
1630411793605,-0.450668,0.6332409999999999,-0.606157
1630411793614,-0.45200999999999997,0.63684,-0.607926
1630411793624,-0.451827,0.639585,-0.6079869999999999
1630411793634,-0.451217,0.6402559999999999,-0.608963
1630411793643,-0.45048499999999997,0.6387309999999999,-0.609268
1630411793653,-0.45017999999999997,0.63562,-0.608048
1630411793662,-0.450058,0.633424,-0.607133
1630411793672,-0.44926499999999997,0.632448,-0.606523
1630411793682,-0.450363,0.6329359999999999,-0.605913
1630411793691,-0.44926499999999997,0.635254,-0.606096
1630411793701,-0.449509,0.6362909999999999,-0.607499
1630411793710,-0.449204,0.63623,-0.606706
1630411793720,-0.448106,0.637023,-0.60878
1630411793730,-0.449204,0.636108,-0.607926
1630411793739,-0.44865499999999997,0.635254,-0.608048
1630411793749,-0.44834999999999997,0.634583,-0.607072
1630411793758,-0.449082,0.633424,-0.608414
1630411793768,-0.448777,0.633668,-0.6082919999999999
1630411793778,-0.449143,0.63562,-0.607926
1630411793787,-0.448594,0.635864,-0.6082919999999999
1630411793797,-0.447923,0.635742,-0.60756
1630411793806,-0.447252,0.635925,-0.607072
1630411793816,-0.447801,0.635925,-0.606035
1630411793826,-0.44773999999999997,0.635864,-0.604937
1630411793835,-0.44743499999999997,0.635437,-0.605852
1630411793845,-0.447618,0.6362909999999999,-0.606645
1630411793854,-0.447923,0.637084,-0.607316
1630411793864,-0.447191,0.635559,-0.605608
1630411793874,-0.447374,0.634278,-0.604815
1630411793883,-0.449082,0.634278,-0.605059
1630411793893,-0.45139999999999997,0.635132,-0.603351
1630411793902,-0.450119,0.6390359999999999,-0.605486
1630411793912,-0.449387,0.6405,-0.606218
1630411793922,-0.44956999999999997,0.639402,-0.605303
1630411793931,-0.44987499999999997,0.636474,-0.60451
1630411793941,-0.451217,0.635742,-0.60451
1630411793950,-0.451522,0.6356809999999999,-0.604693
1630411793960,-0.451339,0.636657,-0.605242
1630411793970,-0.450424,0.6378159999999999,-0.60634
1630411793979,-0.451888,0.638304,-0.605242
1630411793989,-0.451278,0.637877,-0.605181
1630411793998,-0.451217,0.636718,-0.60573
1630411794008,-0.450973,0.6365959999999999,-0.606218
1630411794018,-0.452803,0.636962,-0.606279
1630411794027,-0.45231499999999997,0.63684,-0.60634
1630411794037,-0.45109499999999997,0.636657,-0.6076819999999999
1630411794046,-0.450668,0.636474,-0.607438
1630411794056,-0.44956999999999997,0.635864,-0.606523
1630411794066,-0.449936,0.6362909999999999,-0.605242
1630411794075,-0.449753,0.6362909999999999,-0.604998
1630411794085,-0.449936,0.636352,-0.604998
1630411794094,-0.449204,0.635925,-0.604632
1630411794104,-0.449631,0.636779,-0.604022
1630411794114,-0.449387,0.636657,-0.603961
1630411794123,-0.449387,0.63684,-0.604632
1630411794133,-0.449631,0.636718,-0.605669
1630411794142,-0.450058,0.637694,-0.606096
1630411794152,-0.449936,0.637023,-0.606035
1630411794162,-0.449814,0.635803,-0.60573
1630411794171,-0.449692,0.635193,-0.605852
1630411794181,-0.449814,0.634583,-0.605669
1630411794190,-0.449753,0.634095,-0.60512
1630411794200,-0.449753,0.633912,-0.605486
1630411794210,-0.448838,0.633912,-0.605486
1630411794219,-0.449448,0.634095,-0.605669
1630411794229,-0.449021,0.635193,-0.60634
1630411794238,-0.448838,0.634888,-0.606035
1630411794248,-0.449021,0.634339,-0.60634
1630411794258,-0.448838,0.6335459999999999,-0.608048
1630411794267,-0.448594,0.63318,-0.608109
1630411794277,-0.44743499999999997,0.6329359999999999,-0.60939
1630411794286,-0.44804499999999997,0.6335459999999999,-0.610793
1630411794296,-0.447862,0.6335459999999999,-0.611891
1630411794306,-0.447801,0.632997,-0.611525
1630411794315,-0.447252,0.6329359999999999,-0.611464
1630411794325,-0.44712999999999997,0.633729,-0.612013
1630411794334,-0.447618,0.632204,-0.611769
1630411794344,-0.447618,0.633668,-0.612013
1630411794354,-0.44804499999999997,0.6329359999999999,-0.610793
1630411794363,-0.447557,0.635498,-0.6119519999999999
1630411794373,-0.447374,0.635132,-0.6131719999999999
1630411794382,-0.447801,0.6350709999999999,-0.61427
1630411794392,-0.447557,0.631899,-0.614453
1630411794402,-0.446764,0.629581,-0.613721
1630411794411,-0.447008,0.629947,-0.612013
1630411794421,-0.44804499999999997,0.631594,-0.610793
1630411794430,-0.449448,0.634034,-0.612013
1630411794440,-0.450058,0.6359859999999999,-0.6113419999999999
1630411794450,-0.449509,0.638304,-0.6110369999999999
1630411794459,-0.449631,0.638243,-0.611464
1630411794469,-0.449143,0.636169,-0.611403
1630411794478,-0.448594,0.632387,-0.610671
1630411794488,-0.449143,0.629886,-0.6104269999999999
1630411794498,-0.44895999999999997,0.630252,-0.6107319999999999
1630411794507,-0.449143,0.631167,-0.611708
1630411794517,-0.448838,0.633119,-0.61244
1630411794526,-0.44895999999999997,0.6332409999999999,-0.612135
1630411794536,-0.44743499999999997,0.634095,-0.612318
1630411794546,-0.447557,0.63562,-0.612196
1630411794555,-0.447374,0.634583,-0.611525
1630411794565,-0.448594,0.633668,-0.6098169999999999
1630411794574,-0.448716,0.632997,-0.6082919999999999
1630411794584,-0.44773999999999997,0.632143,-0.608719
1630411794594,-0.447679,0.63196,-0.609695
1630411794603,-0.447679,0.634339,-0.609878
1630411794613,-0.448472,0.634095,-0.609451
1630411794622,-0.447801,0.634827,-0.608414
1630411794632,-0.446947,0.633729,-0.6076819999999999
1630411794642,-0.446703,0.633424,-0.60695
1630411794651,-0.447618,0.633668,-0.606462
1630411794661,-0.44895999999999997,0.635498,-0.605608
1630411794670,-0.447069,0.636657,-0.606096
1630411794680,-0.447374,0.6344,-0.604144
1630411794690,-0.44926499999999997,0.635254,-0.604693
1630411794699,-0.44926499999999997,0.635498,-0.604449
1630411794709,-0.450302,0.6350709999999999,-0.603473
1630411794718,-0.449692,0.637694,-0.605364
1630411794728,-0.450424,0.639768,-0.606157
1630411794738,-0.450851,0.639524,-0.60512
1630411794747,-0.452132,0.638609,-0.604632
1630411794757,-0.452132,0.637389,-0.604754
1630411794766,-0.45078999999999997,0.6369009999999999,-0.603656
1630411794776,-0.452132,0.6372059999999999,-0.6039
1630411794786,-0.45261999999999997,0.637328,-0.602741
1630411794795,-0.45200999999999997,0.638243,-0.603107
1630411794805,-0.451766,0.639158,-0.603839
1630411794814,-0.451522,0.63928,-0.604388
1630411794824,-0.45139999999999997,0.63928,-0.604388
1630411794834,-0.451278,0.637328,-0.604632
1630411794843,-0.45078999999999997,0.637999,-0.605425
1630411794853,-0.451339,0.637755,-0.605425
1630411794862,-0.451339,0.637877,-0.604205
1630411794872,-0.45109499999999997,0.638304,-0.603534
1630411794882,-0.450973,0.637572,-0.603412
1630411794891,-0.450912,0.637389,-0.603168
1630411794901,-0.451156,0.63684,-0.603595
1630411794910,-0.451156,0.637023,-0.603046
1630411794920,-0.450058,0.637572,-0.603168
1630411794930,-0.44895999999999997,0.637328,-0.602985
1630411794939,-0.449997,0.6356809999999999,-0.602009
1630411794949,-0.449448,0.6356809999999999,-0.602985
1630411794958,-0.449753,0.635559,-0.603046
1630411794968,-0.450119,0.634705,-0.604266
1630411794978,-0.449143,0.634644,-0.603839
1630411794987,-0.449204,0.633302,-0.602741
1630411794997,-0.449143,0.6347659999999999,-0.603168
1630411795006,-0.45048499999999997,0.634583,-0.602985
1630411795016,-0.44956999999999997,0.63379,-0.604205
1630411795026,-0.448716,0.6347659999999999,-0.60451
1630411795035,-0.449082,0.634217,-0.605242
1630411795045,-0.449692,0.634095,-0.605791
1630411795054,-0.449387,0.634339,-0.605852
1630411795064,-0.450424,0.634644,-0.605669
1630411795074,-0.451339,0.6344,-0.605852
1630411795083,-0.450302,0.635864,-0.606645
1630411795093,-0.449753,0.6365959999999999,-0.607011
1630411795102,-0.449448,0.637328,-0.607621
1630411795112,-0.449204,0.636108,-0.606523
1630411795122,-0.448899,0.6350709999999999,-0.604388
1630411795131,-0.449082,0.634583,-0.601521
1630411795141,-0.449814,0.636047,-0.600606
1630411795150,-0.448411,0.636474,-0.601277
1630411795160,-0.447008,0.637572,-0.603412
1630411795170,-0.446459,0.6387309999999999,-0.606035
1630411795179,-0.446581,0.6390359999999999,-0.605974
1630411795189,-0.446581,0.640134,-0.606035
1630411795198,-0.446032,0.640073,-0.605608
1630411795208,-0.447496,0.642147,-0.605059
1630411795218,-0.447862,0.641415,-0.603595
1630411795227,-0.450241,0.638792,-0.602863
1630411795237,-0.448411,0.638548,-0.600057
1630411795246,-0.444812,0.640988,-0.60329
1630411795256,-0.445849,0.647332,-0.604571
1630411795266,-0.447252,0.649223,-0.602192
1630411795275,-0.446337,0.649467,-0.603046
1630411795285,-0.445788,0.651907,-0.602619
1630411795294,-0.445849,0.65331,-0.599752
1630411795304,-0.445178,0.652334,-0.597739
1630411795314,-0.445483,0.649467,-0.5964579999999999
1630411795323,-0.444934,0.646173,-0.59719
1630411795333,-0.443775,0.64477,-0.5958479999999999
1630411795342,-0.444873,0.6436109999999999,-0.5924929999999999
1630411795352,-0.444995,0.645319,-0.590236
1630411795362,-0.447008,0.648308,-0.589382
1630411795371,-0.447374,0.648491,-0.588406
1630411795381,-0.447801,0.647576,-0.587064
1630411795390,-0.448777,0.646478,-0.5873079999999999
1630411795400,-0.450058,0.645685,-0.586454
1630411795410,-0.452132,0.648186,-0.585112
1630411795419,-0.45261999999999997,0.649528,-0.5848679999999999
1630411795429,-0.454938,0.648186,-0.582855
1630411795438,-0.457317,0.648003,-0.581574
1630411795448,-0.45945199999999997,0.64843,-0.580476
1630411795458,-0.46067199999999997,0.64965,-0.579378
1630411795467,-0.461953,0.650016,-0.579866
1630411795477,-0.46280699999999997,0.650809,-0.579134
1630411795486,-0.46482,0.649894,-0.57645
1630411795496,-0.46433199999999997,0.648979,-0.574132
1630411795506,-0.464698,0.647698,-0.572302
1630411795515,-0.463295,0.648613,-0.5699839999999999
1630411795525,-0.465186,0.651541,-0.566385
1630411795534,-0.467626,0.653249,-0.5620539999999999
1630411795544,-0.469761,0.654103,-0.560651
1630411795554,-0.472262,0.654896,-0.558272
1630411795563,-0.472933,0.651053,-0.554795
1630411795573,-0.47482399999999997,0.650199,-0.552599
1630411795582,-0.47702,0.64538,-0.551562
1630411795592,-0.481717,0.6442209999999999,-0.553087
1630411795602,-0.484157,0.645075,-0.553331
1630411795611,-0.48684099999999997,0.645319,-0.552721
1630411795621,-0.490867,0.650626,-0.550769
1630411795630,-0.493368,0.6563599999999999,-0.5474749999999999
1630411795640,-0.494832,0.658434,-0.543632
1630411795650,-0.49672299999999997,0.657092,-0.541497
1630411795659,-0.497882,0.651846,-0.540887
1630411795669,-0.500688,0.647088,-0.5398499999999999
1630411795678,-0.502884,0.643062,-0.539057
1630411795688,-0.50264,0.6405,-0.540948
1630411795698,-0.501664,0.641537,-0.537898
1630411795707,-0.502518,0.641232,-0.537593
1630411795717,-0.504165,0.642879,-0.537654
1630411795726,-0.508496,0.643123,-0.540826
1630411795736,-0.51423,0.641903,-0.540948
1630411795746,-0.5203909999999999,0.638792,-0.538508
1630411795755,-0.522648,0.636352,-0.538203
1630411795765,-0.529236,0.628605,-0.5380199999999999
1630411795774,-0.535824,0.635803,-0.538203
1630411795784,-0.542046,0.645624,-0.536312
1630411795794,-0.551257,0.6587999999999999,-0.535702
1630411795803,-0.558699,0.6645949999999999,-0.535275
1630411795813,-0.56303,0.658312,-0.538142
1630411795822,-0.5644939999999999,0.643733,-0.5428999999999999
1630411795832,-0.576633,0.624274,-0.540216
1630411795842,-0.584014,0.60573,-0.5392399999999999
1630411795851,-0.587491,0.5927979999999999,-0.5395449999999999
1630411795861,-0.587735,0.581208,-0.541436
1630411795870,-0.585356,0.577548,-0.543571
1630411795880,-0.581147,0.573461,-0.540948
1630411795890,-0.585051,0.576389,-0.529114
1630411795899,-0.5842579999999999,0.573644,-0.524661
1630411795909,-0.586759,0.576206,-0.51728
1630411795918,-0.587186,0.577121,-0.51301
1630411795928,-0.589077,0.578585,-0.507154
1630411795938,-0.5909679999999999,0.580964,-0.504897
1630411795947,-0.595909,0.58621,-0.503982
1630411795957,-0.597678,0.589992,-0.504592
1630411795966,-0.59902,0.585966,-0.506361
1630411795976,-0.602924,0.58743,-0.508679
1630411795986,-0.609939,0.588345,-0.510387
1630411795995,-0.614575,0.583282,-0.506788
1630411796005,-0.6168319999999999,0.576633,-0.503189
1630411796014,-0.6186619999999999,0.5708989999999999,-0.499407
1630411796024,-0.621468,0.5654089999999999,-0.498492
1630411796034,-0.622444,0.559919,-0.500749
1630411796043,-0.624701,0.554917,-0.505141
1630411796053,-0.62891,0.557906,-0.514169
1630411796062,-0.631411,0.565165,-0.522587
1630411796072,-0.633973,0.57523,-0.528382
1630411796082,-0.640378,0.58499,-0.530578
1630411796091,-0.645502,0.5918829999999999,-0.529846
1630411796101,-0.647942,0.591456,-0.525454
1630411796110,-0.648674,0.582977,-0.52155
1630411796120,-0.64172,0.572912,-0.518683
1630411796130,-0.635254,0.562115,-0.5194759999999999
1630411796139,-0.63318,0.5626639999999999,-0.526796
1630411796149,-0.6387309999999999,0.578036,-0.543998
1630411796158,-0.640622,0.595299,-0.5638839999999999
1630411796168,-0.631289,0.604571,-0.577975
1630411796178,-0.619089,0.602497,-0.584746
1630411796187,-0.60878,0.603656,-0.589931
1630411796197,-0.603046,0.613721,-0.59658
1630411796206,-0.603229,0.63379,-0.600179
1630411796216,-0.605852,0.650199,-0.600423
1630411796226,-0.606523,0.660081,-0.5967629999999999
1630411796235,-0.603961,0.665693,-0.589321
1630411796245,-0.601643,0.666608,-0.576572
1630411796254,-0.595055,0.6612399999999999,-0.559248
1630411796264,-0.5870029999999999,0.655262,-0.539362
1630411796274,-0.582733,0.654042,-0.520269
1630411796283,-0.578341,0.654225,-0.49885799999999997
1630411796293,-0.572058,0.648552,-0.474702
1630411796302,-0.568947,0.645563,-0.455792
1630411796312,-0.568947,0.647027,-0.442006
1630411796322,-0.565592,0.647454,-0.43041599999999997
1630411796331,-0.560712,0.6390359999999999,-0.420595
1630411796341,-0.548878,0.628788,-0.41724
1630411796350,-0.535153,0.619516,-0.421632
1630411796360,-0.524539,0.615368,-0.430538
1630411796370,-0.514657,0.610854,-0.437736
1630411796379,-0.51057,0.606889,-0.439871
1630411796389,-0.506422,0.606157,-0.44456799999999996
1630411796398,-0.508984,0.610244,-0.44956999999999997
1630411796408,-0.515389,0.624945,-0.456646
1630411796418,-0.523563,0.63928,-0.46848
1630411796427,-0.529968,0.647881,-0.481534
1630411796437,-0.534116,0.652151,-0.495076
1630411796446,-0.536312,0.656726,-0.511058
1630411796456,-0.538996,0.660569,-0.522648
1630411796466,-0.5386299999999999,0.665754,-0.529297
1630411796475,-0.5407649999999999,0.669963,-0.531554
1630411796485,-0.540399,0.674904,-0.532652
1630411796494,-0.5386299999999999,0.67832,-0.530273
1630411796504,-0.540277,0.682956,-0.525759
1630411796514,-0.539484,0.685762,-0.520818
1630411796523,-0.540216,0.685457,-0.5170359999999999
1630411796533,-0.5383249999999999,0.6831389999999999,-0.5191709999999999
1630411796542,-0.534421,0.676551,-0.521062
1630411796552,-0.530273,0.669597,-0.5237459999999999
1630411796562,-0.526125,0.665144,-0.524173
1630411796571,-0.522404,0.661911,-0.524783
1630411796581,-0.518439,0.658983,-0.5231359999999999
1630411796590,-0.515572,0.656482,-0.523258
1630411796600,-0.51301,0.6584949999999999,-0.525332
1630411796610,-0.5136809999999999,0.660996,-0.525271
1630411796619,-0.5191709999999999,0.665388,-0.5200859999999999
1630411796629,-0.525088,0.6691699999999999,-0.5167309999999999
1630411796638,-0.525698,0.6700849999999999,-0.512949
1630411796648,-0.5234409999999999,0.669597,-0.507886
1630411796658,-0.521794,0.671854,-0.505263
1630411796667,-0.516365,0.673379,-0.506666
1630411796677,-0.511485,0.67344,-0.510387
1630411796686,-0.508252,0.672281,-0.5185609999999999
1630411796696,-0.50508,0.667889,-0.523258
1630411796706,-0.499834,0.663192,-0.527284
1630411796715,-0.49458799999999997,0.654713,-0.52643
1630411796725,-0.486292,0.646722,-0.524356
1630411796734,-0.479338,0.64416,-0.5188659999999999
1630411796744,-0.470066,0.648125,-0.514779
1630411796754,-0.469273,0.648186,-0.51484
1630411796763,-0.47634899999999997,0.648796,-0.5191709999999999
1630411796773,-0.482754,0.649833,-0.527833
1630411796782,-0.485133,0.649345,-0.538752
1630411796792,-0.48678,0.6439159999999999,-0.548268
1630411796802,-0.484523,0.63623,-0.549305
1630411796811,-0.482632,0.632448,-0.550098
1630411796821,-0.484645,0.633424,-0.550464
1630411796830,-0.48592599999999997,0.641049,-0.548207
1630411796840,-0.491355,0.650199,-0.5438149999999999
1630411796850,-0.499346,0.654042,-0.543388
1630411796859,-0.506483,0.657702,-0.547658
1630411796869,-0.512339,0.657946,-0.55205
1630411796878,-0.516975,0.655506,-0.555405
1630411796888,-0.514962,0.656177,-0.56059
1630411796898,-0.5136809999999999,0.659288,-0.565775
1630411796907,-0.510814,0.660081,-0.567056
1630411796917,-0.507764,0.661423,-0.568398
1630411796926,-0.504714,0.667889,-0.569618
1630411796936,-0.501969,0.675148,-0.570533
1630411796946,-0.499041,0.678808,-0.56852
1630411796955,-0.49794299999999997,0.683078,-0.560163
1630411796965,-0.497577,0.684298,-0.552782
1630411796974,-0.49294099999999996,0.684725,-0.546804
1630411796984,-0.48836599999999997,0.681553,-0.540643
1630411796994,-0.48440099999999997,0.679967,-0.534177
1630411797003,-0.480436,0.677344,-0.528138
1630411797013,-0.47573899999999997,0.67527,-0.523075
1630411797022,-0.472018,0.675575,-0.518622
1630411797032,-0.468114,0.676368,-0.514108
1630411797042,-0.464759,0.67832,-0.510082
1630411797051,-0.464454,0.682651,-0.505446
1630411797061,-0.462563,0.685518,-0.501908
1630411797070,-0.462136,0.692411,-0.500932
1630411797080,-0.46177,0.695095,-0.499102
1630411797090,-0.460001,0.695217,-0.498614
1630411797099,-0.460184,0.694912,-0.498309
1630411797109,-0.460855,0.695888,-0.499956
1630411797118,-0.461526,0.695461,-0.502213
1630411797128,-0.462685,0.695888,-0.50508
1630411797138,-0.465125,0.697962,-0.509716
1630411797147,-0.466345,0.699182,-0.514047
1630411797157,-0.467138,0.698877,-0.517585
1630411797166,-0.4697,0.697779,-0.519842
1630411797176,-0.47214,0.696681,-0.523929
1630411797186,-0.47458,0.696376,-0.527833
1630411797195,-0.47458,0.694729,-0.532164
1630411797205,-0.475922,0.690032,-0.533933
1630411797214,-0.4758,0.68625,-0.537776
1630411797224,-0.475556,0.682712,-0.539667
1630411797234,-0.476105,0.682285,-0.543388
1630411797243,-0.476288,0.681675,-0.544852
1630411797253,-0.477386,0.6832,-0.545462
1630411797262,-0.477142,0.683932,-0.546194
1630411797272,-0.477752,0.6846639999999999,-0.546072
1630411797282,-0.47726399999999997,0.684725,-0.545218
1630411797291,-0.475556,0.683688,-0.542229
1630411797301,-0.473116,0.684115,-0.540582
1630411797310,-0.4697,0.684542,-0.538752
1630411797320,-0.467443,0.688141,-0.539484
1630411797330,-0.465064,0.689422,-0.540704
1630411797339,-0.463051,0.688507,-0.542656
1630411797349,-0.462563,0.6880189999999999,-0.541436
1630411797358,-0.46177,0.6867989999999999,-0.539484
1630411797368,-0.46238,0.684298,-0.5386299999999999
1630411797378,-0.460245,0.682773,-0.5374099999999999
1630411797387,-0.45933,0.681248,-0.5404599999999999
1630411797397,-0.46055,0.678869,-0.540033
1630411797406,-0.461709,0.677222,-0.541924
1630411797416,-0.460306,0.676429,-0.545157
1630411797426,-0.459879,0.675148,-0.5450349999999999
1630411797435,-0.460916,0.677222,-0.546011
1630411797445,-0.463173,0.680028,-0.543327
1630411797454,-0.463295,0.680577,-0.5422899999999999
1630411797464,-0.463905,0.6816139999999999,-0.540887
1630411797474,-0.465064,0.68198,-0.539057
1630411797483,-0.46665,0.683932,-0.538142
1630411797493,-0.466406,0.684908,-0.537654
1630411797502,-0.46726,0.6831389999999999,-0.5367999999999999
1630411797512,-0.46738199999999996,0.683505,-0.536861
1630411797522,-0.468053,0.6834439999999999,-0.535214
1630411797531,-0.46890699999999996,0.684481,-0.535031
1630411797541,-0.46890699999999996,0.684725,-0.534848
1630411797550,-0.46768699999999996,0.682041,-0.535702
1630411797560,-0.467504,0.680516,-0.534055
1630411797570,-0.46665,0.678686,-0.533506
1630411797579,-0.466101,0.674843,-0.531859
1630411797589,-0.46555199999999997,0.674355,-0.531859
1630411797598,-0.46677199999999996,0.675514,-0.533445
1630411797608,-0.467748,0.677344,-0.533994
1630411797618,-0.466284,0.679052,-0.535092
1630411797627,-0.468175,0.676734,-0.535214
1630411797637,-0.46707699999999996,0.671366,-0.537471
1630411797646,-0.465674,0.6691699999999999,-0.542473
1630411797656,-0.46524699999999997,0.666181,-0.547048
1630411797666,-0.464576,0.665693,-0.551135
1630411797675,-0.463966,0.664778,-0.553209
1630411797685,-0.465674,0.664351,-0.553819
1630411797694,-0.46543,0.664229,-0.55693
1630411797704,-0.46646699999999996,0.664656,-0.557906
1630411797714,-0.466406,0.664229,-0.55937
1630411797723,-0.466894,0.662948,-0.560163
1630411797733,-0.46738199999999996,0.661606,-0.561322
1630411797742,-0.468724,0.660447,-0.5612
1630411797752,-0.470371,0.6594099999999999,-0.562786
1630411797762,-0.468236,0.662277,-0.563213
1630411797771,-0.47031,0.661911,-0.563396
1630411797781,-0.472262,0.662582,-0.5632739999999999
1630411797790,-0.472567,0.663558,-0.561017
1630411797800,-0.471652,0.663741,-0.562115
1630411797810,-0.470249,0.663802,-0.563213
1630411797819,-0.469578,0.664778,-0.563457
1630411797829,-0.470493,0.666059,-0.56364
1630411797838,-0.470676,0.6697799999999999,-0.563823
1630411797848,-0.470981,0.6700849999999999,-0.560468
1630411797858,-0.47360399999999997,0.668743,-0.55815
1630411797867,-0.473055,0.669597,-0.558394
1630411797877,-0.473726,0.668194,-0.559553
1630411797886,-0.472445,0.669536,-0.5608339999999999
1630411797896,-0.47336,0.670512,-0.561932
1630411797906,-0.472872,0.669353,-0.562481
1630411797915,-0.47397,0.668133,-0.560712
1630411797925,-0.47390899999999997,0.667523,-0.557845
1630411797934,-0.47458,0.669414,-0.555344
1630411797944,-0.476105,0.669353,-0.554612
1630411797954,-0.474275,0.667828,-0.553697
1630411797963,-0.474092,0.668072,-0.555405
1630411797973,-0.47329899999999997,0.666913,-0.556198
1630411797982,-0.47360399999999997,0.667462,-0.558272
1630411797992,-0.472933,0.6673399999999999,-0.560041
1630411798002,-0.47207899999999997,0.666181,-0.560712
1630411798011,-0.47085899999999997,0.666913,-0.562542
1630411798021,-0.470005,0.666669,-0.562176
1630411798030,-0.469761,0.668926,-0.5605289999999999
1630411798040,-0.468419,0.6679499999999999,-0.562176
1630411798050,-0.468663,0.6691699999999999,-0.562786
1630411798059,-0.467809,0.669414,-0.561932
1630411798069,-0.46768699999999996,0.668682,-0.561261
1630411798078,-0.466894,0.6679499999999999,-0.561017
1630411798088,-0.46616199999999997,0.6694749999999999,-0.560773
1630411798098,-0.466345,0.6691699999999999,-0.559065
1630411798107,-0.465064,0.6685599999999999,-0.558577
1630411798117,-0.463478,0.667218,-0.557845
1630411798126,-0.4636,0.6661199999999999,-0.557296
1630411798136,-0.463234,0.664839,-0.557479
1630411798146,-0.464149,0.663131,-0.558333
1630411798155,-0.462746,0.6639849999999999,-0.55815
1630411798165,-0.462746,0.663009,-0.55876
1630411798174,-0.46238,0.663314,-0.558394
1630411798184,-0.46238,0.661972,-0.558333
1630411798194,-0.462441,0.6627649999999999,-0.559004
1630411798203,-0.46238,0.664168,-0.557906
1630411798213,-0.463295,0.663863,-0.55754
1630411798222,-0.4636,0.6639849999999999,-0.556442
1630411798232,-0.46341699999999997,0.663924,-0.556991
1630411798242,-0.46402699999999997,0.6652049999999999,-0.556869
1630411798251,-0.46421,0.666486,-0.55632
1630411798261,-0.464393,0.667462,-0.555649
1630411798270,-0.465125,0.6682549999999999,-0.5551
1630411798280,-0.466711,0.670024,-0.555466
1630411798290,-0.46543,0.671854,-0.554795
1630411798299,-0.466284,0.671976,-0.553392
1630411798309,-0.467321,0.672098,-0.552355
1630411798318,-0.466955,0.674233,-0.551684
1630411798328,-0.46665,0.673745,-0.550586
1630411798338,-0.465918,0.673623,-0.551196
1630411798347,-0.467565,0.677039,-0.553697
1630411798357,-0.467199,0.679906,-0.554002
1630411798366,-0.466223,0.6816139999999999,-0.555283
1630411798376,-0.46463699999999997,0.6819189999999999,-0.554124
1630411798386,-0.465308,0.68015,-0.553026
1630411798395,-0.463966,0.677405,-0.553026
1630411798405,-0.463234,0.674538,-0.551867
1630411798414,-0.462319,0.673867,-0.552111
1630411798424,-0.46189199999999997,0.673135,-0.553331
1630411798434,-0.46006199999999997,0.67344,-0.554612
1630411798443,-0.457866,0.674172,-0.556747
1630411798453,-0.45658499999999996,0.674538,-0.559248
1630411798462,-0.45597499999999996,0.675087,-0.5602239999999999
1630411798472,-0.454816,0.675209,-0.559614
1630411798482,-0.45627999999999996,0.674416,-0.556808
1630411798491,-0.45688999999999996,0.674294,-0.556747
1630411798501,-0.456219,0.673562,-0.55449
1630411798510,-0.457195,0.674904,-0.553636
1630411798520,-0.457073,0.676368,-0.55205
1630411798530,-0.458781,0.677588,-0.551928
1630411798539,-0.46006199999999997,0.67649,-0.55083
1630411798549,-0.46128199999999997,0.676185,-0.550342
1630411798558,-0.462014,0.675758,-0.549
1630411798568,-0.462319,0.67832,-0.544791
1630411798578,-0.465369,0.680638,-0.541558
1630411798587,-0.46616199999999997,0.6794789999999999,-0.540826
1630411798597,-0.465613,0.678015,-0.540094
1630411798606,-0.467931,0.676673,-0.540826
1630411798616,-0.467626,0.676551,-0.543754
1630411798626,-0.468846,0.676429,-0.545096
1630411798635,-0.46848,0.678808,-0.544547
1630411798645,-0.468968,0.6791739999999999,-0.542046
1630411798654,-0.470676,0.679906,-0.539789
1630411798664,-0.472201,0.6816139999999999,-0.540033
1630411798674,-0.473482,0.681858,-0.5380199999999999
1630411798683,-0.474885,0.681736,-0.535763
1630411798693,-0.47634899999999997,0.681187,-0.534177
1630411798702,-0.475983,0.6822239999999999,-0.531554
1630411798712,-0.47756899999999997,0.6831389999999999,-0.5307
1630411798722,-0.477996,0.683505,-0.528199
1630411798731,-0.479216,0.684115,-0.526003
1630411798741,-0.47970399999999996,0.68503,-0.525149
1630411798750,-0.478606,0.68259,-0.52399
1630411798760,-0.477996,0.680272,-0.522648
1630411798770,-0.47885,0.684725,-0.5222209999999999
1630411798779,-0.478362,0.685213,-0.520574
1630411798789,-0.478728,0.685701,-0.519049
1630411798798,-0.478606,0.687653,-0.51728
1630411798808,-0.479521,0.689117,-0.514657
1630411798818,-0.48000899999999996,0.6883239999999999,-0.513742
1630411798827,-0.47939899999999996,0.68686,-0.514108
1630411798837,-0.48007,0.686738,-0.5142909999999999
1630411798846,-0.48007,0.686616,-0.514962
1630411798856,-0.480375,0.6840539999999999,-0.516365
1630411798866,-0.47946,0.682468,-0.517524
1630411798875,-0.47939899999999996,0.6819189999999999,-0.519903
1630411798885,-0.478667,0.681065,-0.520513
1630411798894,-0.479155,0.67954,-0.5228309999999999
1630411798904,-0.47946,0.6797839999999999,-0.524417
1630411798914,-0.48000899999999996,0.6794789999999999,-0.525454
1630411798923,-0.480192,0.680028,-0.525759
1630411798933,-0.481961,0.680333,-0.524539
1630411798942,-0.483425,0.68137,-0.524417
1630411798952,-0.48562099999999997,0.682163,-0.524356
1630411798962,-0.486902,0.682651,-0.525759
1630411798971,-0.48775599999999997,0.682407,-0.526735
1630411798981,-0.487085,0.681248,-0.528748
1630411798990,-0.487512,0.681065,-0.529602
1630411799000,-0.48617,0.680882,-0.529846
1630411799010,-0.487634,0.680272,-0.528077
1630411799019,-0.488122,0.680882,-0.52948
1630411799029,-0.489464,0.680821,-0.528809
1630411799038,-0.490135,0.6800889999999999,-0.528931
1630411799048,-0.489769,0.680272,-0.528382
1630411799058,-0.49111099999999996,0.678747,-0.526857
1630411799067,-0.49141599999999996,0.6800889999999999,-0.526491
1630411799077,-0.491477,0.680882,-0.528504
1630411799086,-0.49227,0.680638,-0.53009
1630411799096,-0.490928,0.678808,-0.530639
1630411799106,-0.490684,0.677954,-0.530212
1630411799115,-0.489647,0.677344,-0.528321
1630411799125,-0.490013,0.675758,-0.528809
1630411799134,-0.490867,0.677344,-0.531188
1630411799144,-0.491477,0.679723,-0.532225
1630411799154,-0.490745,0.682468,-0.531981
1630411799163,-0.489403,0.6822239999999999,-0.532103
1630411799173,-0.489464,0.678991,-0.5307
1630411799182,-0.489098,0.676856,-0.531066
1630411799192,-0.48806099999999997,0.674416,-0.53009
1630411799202,-0.486292,0.673745,-0.530822
1630411799211,-0.484767,0.67344,-0.531188
1630411799221,-0.483425,0.673684,-0.532042
1630411799230,-0.482205,0.675148,-0.53314
1630411799240,-0.48000899999999996,0.676368,-0.534421
1630411799250,-0.479033,0.676612,-0.535397
1630411799259,-0.478423,0.677161,-0.535336
1630411799269,-0.47695899999999997,0.675636,-0.534848
1630411799278,-0.47726399999999997,0.676429,-0.533506
1630411799288,-0.47702,0.675575,-0.532591
1630411799298,-0.476898,0.676002,-0.532225
1630411799307,-0.477752,0.676734,-0.531737
1630411799317,-0.475983,0.67771,-0.530883
1630411799326,-0.47641,0.677466,-0.529236
1630411799336,-0.47604399999999997,0.677527,-0.530578
1630411799346,-0.475495,0.677649,-0.531859
1630411799355,-0.475861,0.67588,-0.534665
1630411799365,-0.47512899999999997,0.676002,-0.5374099999999999
1630411799374,-0.474092,0.677039,-0.539179
1630411799384,-0.471286,0.675026,-0.540033
1630411799394,-0.472567,0.673562,-0.538691
1630411799403,-0.473238,0.673684,-0.538813
1630411799413,-0.475495,0.674416,-0.538081
1630411799422,-0.475922,0.677466,-0.538874
1630411799432,-0.475617,0.678808,-0.539606
1630411799442,-0.474946,0.67832,-0.539423
1630411799451,-0.476837,0.677954,-0.540094
1630411799461,-0.477752,0.678869,-0.539301
1630411799470,-0.477691,0.679723,-0.540216
1630411799480,-0.478545,0.68137,-0.5407649999999999
1630411799490,-0.477508,0.681187,-0.541497
1630411799499,-0.478118,0.681126,-0.539118
1630411799509,-0.477935,0.681675,-0.536556
1630411799518,-0.47885,0.6822239999999999,-0.532835
1630411799528,-0.480802,0.685335,-0.528748
1630411799538,-0.482205,0.6880189999999999,-0.525759
1630411799547,-0.484523,0.688263,-0.523868
1630411799557,-0.482388,0.6816139999999999,-0.525393
1630411799566,-0.47885,0.679845,-0.530212
1630411799576,-0.47702,0.680455,-0.532286
1630411799586,-0.475922,0.680516,-0.533811
1630411799595,-0.474702,0.680333,-0.535336
1630411799605,-0.47360399999999997,0.679601,-0.53497
1630411799614,-0.47238399999999997,0.678625,-0.534604
1630411799624,-0.47116399999999997,0.677344,-0.53375
1630411799634,-0.472567,0.678503,-0.5307
1630411799643,-0.473726,0.680882,-0.529358
1630411799653,-0.47604399999999997,0.6803939999999999,-0.528321
1630411799662,-0.47695899999999997,0.68137,-0.52887
1630411799672,-0.47763,0.6822239999999999,-0.532347
1630411799682,-0.477203,0.6832,-0.535458
1630411799691,-0.477142,0.6828339999999999,-0.537471
1630411799701,-0.4758,0.684298,-0.539972
1630411799710,-0.475007,0.683871,-0.5401549999999999
1630411799720,-0.47482399999999997,0.683566,-0.5361899999999999
1630411799730,-0.47360399999999997,0.682468,-0.53253
1630411799739,-0.474946,0.681065,-0.529724
1630411799749,-0.475068,0.679296,-0.529541
1630411799758,-0.47451899999999997,0.679418,-0.530944
1630411799768,-0.47336,0.680882,-0.532957
1630411799778,-0.47336,0.6822239999999999,-0.535031
1630411799787,-0.472323,0.681248,-0.535031
1630411799797,-0.471225,0.679662,-0.534909
1630411799806,-0.47116399999999997,0.680455,-0.53558
1630411799816,-0.47177399999999997,0.679967,-0.534909
1630411799826,-0.472933,0.68015,-0.53314
1630411799835,-0.476715,0.67893,-0.531371
1630411799845,-0.48092399999999996,0.6791739999999999,-0.531066
1630411799854,-0.480497,0.680638,-0.533506
1630411799864,-0.473848,0.6810039999999999,-0.534482
1630411799874,-0.47085899999999997,0.680272,-0.537227
1630411799883,-0.468419,0.678991,-0.537349
1630411799893,-0.46921199999999996,0.677039,-0.535946
1630411799902,-0.470737,0.677161,-0.537166
1630411799912,-0.470554,0.678625,-0.537837
1630411799922,-0.470432,0.6803939999999999,-0.539118
1630411799931,-0.47153,0.681858,-0.539606
1630411799941,-0.471347,0.684542,-0.540338
1630411799950,-0.47207899999999997,0.68198,-0.541009
1630411799960,-0.47177399999999997,0.67771,-0.539606
1630411799970,-0.472872,0.676612,-0.538569
1630411799979,-0.472933,0.676551,-0.536129
1630411799989,-0.472323,0.676917,-0.535214
1630411799998,-0.472811,0.677344,-0.535397
1630411800008,-0.47275,0.677832,-0.537349
1630411800018,-0.472018,0.677222,-0.539728
1630411800027,-0.47275,0.6771,-0.542351
1630411800037,-0.471652,0.675514,-0.544059
1630411800046,-0.47268899999999997,0.674843,-0.5459499999999999
1630411800056,-0.47336,0.67588,-0.548268
1630411800066,-0.472811,0.676429,-0.548939
1630411800075,-0.47360399999999997,0.677222,-0.548939
1630411800085,-0.474275,0.677771,-0.5474749999999999
1630411800094,-0.47421399999999997,0.678442,-0.545218
1630411800104,-0.475068,0.679723,-0.544059
1630411800114,-0.47451899999999997,0.679723,-0.541802
1630411800123,-0.47482399999999997,0.67832,-0.540521
1630411800133,-0.47543399999999997,0.678198,-0.539972
1630411800142,-0.474763,0.678686,-0.540216
1630411800152,-0.47336,0.678625,-0.539789
1630411800162,-0.473238,0.67527,-0.538386
1630411800171,-0.47299399999999997,0.674172,-0.539179
1630411800181,-0.473543,0.675026,-0.5367999999999999
1630411800190,-0.473787,0.675758,-0.536312
1630411800200,-0.473177,0.677344,-0.537593
1630411800210,-0.473177,0.677344,-0.5386299999999999
1630411800219,-0.476776,0.676063,-0.5386299999999999
1630411800229,-0.479155,0.67405,-0.5380199999999999
1630411800238,-0.478545,0.672403,-0.538203
1630411800248,-0.477752,0.672342,-0.537349
1630411800258,-0.474763,0.673745,-0.537776
1630411800267,-0.473726,0.676734,-0.536861
1630411800277,-0.47824,0.677954,-0.537288
1630411800286,-0.477325,0.6803939999999999,-0.538813
1630411800296,-0.478972,0.680821,-0.536922
1630411800306,-0.476898,0.677954,-0.538142
1630411800315,-0.47573899999999997,0.676368,-0.538996
1630411800325,-0.476898,0.675636,-0.541192
1630411800334,-0.477752,0.675636,-0.5416799999999999
1630411800344,-0.47824,0.675697,-0.543693
1630411800354,-0.47946,0.676368,-0.540948
1630411800363,-0.478728,0.676978,-0.540582
1630411800373,-0.477935,0.677283,-0.5377149999999999
1630411800382,-0.477813,0.676612,-0.536922
1630411800392,-0.479338,0.676612,-0.536556
1630411800402,-0.480131,0.675514,-0.535153
1630411800411,-0.479521,0.67588,-0.534238
1630411800421,-0.479338,0.677283,-0.535885
1630411800430,-0.479948,0.679235,-0.535763
1630411800440,-0.48129,0.678747,-0.537654
1630411800450,-0.479582,0.679296,-0.538813
1630411800459,-0.478667,0.678747,-0.538874
1630411800469,-0.478606,0.675514,-0.537654
1630411800478,-0.477142,0.675514,-0.537471
1630411800488,-0.477752,0.67588,-0.5367999999999999
1630411800498,-0.475678,0.673989,-0.538264
1630411800507,-0.474458,0.671366,-0.539362
1630411800517,-0.47336,0.669963,-0.542839
1630411800526,-0.47092,0.672098,-0.544791
1630411800536,-0.471286,0.672769,-0.5447299999999999
1630411800546,-0.471408,0.672098,-0.544364
1630411800555,-0.470798,0.671427,-0.545706
1630411800565,-0.470127,0.672281,-0.544913
1630411800574,-0.470188,0.672891,-0.544242
1630411800584,-0.472445,0.675575,-0.542656
1630411800594,-0.47336,0.676124,-0.5422899999999999
1630411800603,-0.474458,0.675575,-0.540948
1630411800613,-0.474397,0.674599,-0.544913
1630411800622,-0.47512899999999997,0.675087,-0.547963
1630411800632,-0.474885,0.674294,-0.548939
1630411800642,-0.476532,0.673013,-0.548329
1630411800651,-0.475861,0.673318,-0.549671
1630411800661,-0.476227,0.673257,-0.547048
1630411800670,-0.477203,0.67344,-0.546377
1630411800680,-0.478301,0.674782,-0.545767
1630411800690,-0.47695899999999997,0.678198,-0.5447299999999999
1630411800699,-0.475495,0.679906,-0.545279
1630411800709,-0.475861,0.678198,-0.5462549999999999
1630411800718,-0.474092,0.675819,-0.545828
1630411800728,-0.47268899999999997,0.672342,-0.546133
1630411800738,-0.472018,0.670878,-0.546377
1630411800747,-0.470493,0.671183,-0.547719
1630411800757,-0.47085899999999997,0.673013,-0.548207
1630411800766,-0.469578,0.67405,-0.547414
1630411800776,-0.46860199999999996,0.674721,-0.548146
1630411800786,-0.467809,0.675819,-0.5483899999999999
1630411800795,-0.470554,0.676856,-0.548024
1630411800805,-0.47214,0.676002,-0.547597
1630411800814,-0.471713,0.674843,-0.548756
1630411800824,-0.470493,0.673684,-0.547292
1630411800834,-0.469151,0.673623,-0.547719
1630411800843,-0.469273,0.673684,-0.547536
1630411800853,-0.470676,0.674843,-0.547353
1630411800862,-0.470798,0.674233,-0.545401
1630411800872,-0.470371,0.673806,-0.545462
1630411800882,-0.47116399999999997,0.673928,-0.544364
1630411800891,-0.47092,0.673562,-0.544852
1630411800901,-0.470798,0.674538,-0.543937
1630411800910,-0.471652,0.676246,-0.543327
1630411800920,-0.471835,0.677283,-0.545218
1630411800930,-0.47153,0.67466,-0.544669
1630411800939,-0.472872,0.674904,-0.542473
1630411800949,-0.472872,0.675087,-0.5398499999999999
1630411800958,-0.474153,0.673623,-0.5377149999999999
1630411800968,-0.472506,0.674965,-0.539911
1630411800978,-0.472262,0.674965,-0.5401549999999999
1630411800987,-0.471408,0.675697,-0.541009
1630411800997,-0.47153,0.676917,-0.540338
1630411801006,-0.47153,0.676734,-0.540094
1630411801016,-0.47207899999999997,0.678076,-0.539667
1630411801026,-0.473055,0.677954,-0.538569
1630411801035,-0.473177,0.678503,-0.539179
1630411801045,-0.472201,0.678808,-0.539362
1630411801054,-0.473482,0.678625,-0.538691
1630411801064,-0.47451899999999997,0.677344,-0.5395449999999999
1630411801074,-0.475678,0.676368,-0.538752
1630411801083,-0.475251,0.677283,-0.539362
1630411801093,-0.476288,0.679662,-0.538203
1630411801102,-0.476288,0.67954,-0.5367999999999999
1630411801112,-0.47763,0.6794789999999999,-0.535519
1630411801122,-0.477996,0.68137,-0.535946
1630411801131,-0.478606,0.680882,-0.53436
1630411801141,-0.47756899999999997,0.679723,-0.532957
1630411801150,-0.477813,0.678747,-0.534177
1630411801160,-0.478362,0.6791739999999999,-0.53497
1630411801170,-0.478301,0.678808,-0.533933
1630411801179,-0.47756899999999997,0.679601,-0.533994
1630411801189,-0.476898,0.680455,-0.535824
1630411801198,-0.477752,0.680211,-0.53436
1630411801208,-0.478118,0.67954,-0.534116
1630411801218,-0.47702,0.679845,-0.533262
1630411801227,-0.47909399999999996,0.680272,-0.531615
1630411801237,-0.478606,0.679418,-0.532713
1630411801246,-0.478606,0.6794789999999999,-0.534177
1630411801256,-0.477081,0.678442,-0.535275
1630411801266,-0.478118,0.677954,-0.535336
1630411801275,-0.476593,0.676612,-0.535641
1630411801285,-0.476105,0.675636,-0.537166
1630411801294,-0.475556,0.674843,-0.536617
1630411801304,-0.475556,0.673928,-0.536007
1630411801314,-0.4758,0.675392,-0.535336
1630411801323,-0.476898,0.67527,-0.532286
1630411801333,-0.477325,0.676734,-0.531188
1630411801342,-0.478545,0.67649,-0.529175
1630411801352,-0.478728,0.675636,-0.529907
1630411801362,-0.479216,0.675697,-0.53009
1630411801371,-0.47885,0.675392,-0.529663
1630411801381,-0.48031399999999996,0.675087,-0.530517
1630411801390,-0.48061899999999996,0.674965,-0.532286
1630411801400,-0.48000899999999996,0.675514,-0.533079
1630411801410,-0.481046,0.676002,-0.533018
1630411801419,-0.481839,0.677283,-0.534116
1630411801429,-0.481778,0.676795,-0.533445
1630411801438,-0.48287599999999997,0.675697,-0.531127
1630411801448,-0.482998,0.675453,-0.531005
1630411801458,-0.484889,0.676795,-0.531066
1630411801467,-0.485499,0.678564,-0.533445
1630411801477,-0.48409599999999997,0.680638,-0.53497
1630411801486,-0.48348599999999997,0.680333,-0.534787
1630411801496,-0.482815,0.677588,-0.532896
1630411801506,-0.483608,0.675697,-0.533506
1630411801515,-0.483974,0.674782,-0.533994
1630411801525,-0.482144,0.674172,-0.533567
1630411801534,-0.481778,0.674111,-0.534177
1630411801544,-0.480558,0.675819,-0.534482
1630411801554,-0.48061899999999996,0.677283,-0.535092
1630411801563,-0.481473,0.677771,-0.5364949999999999
1630411801573,-0.48092399999999996,0.6771,-0.536556
1630411801582,-0.481168,0.675209,-0.536922
1630411801592,-0.481534,0.674599,-0.5361899999999999
1630411801602,-0.48257099999999997,0.674843,-0.537654
1630411801611,-0.481961,0.675026,-0.537044
1630411801621,-0.481839,0.676002,-0.537532
1630411801630,-0.48129,0.67588,-0.5380199999999999
1630411801640,-0.482144,0.675331,-0.5361899999999999
1630411801650,-0.480253,0.674904,-0.535519
1630411801659,-0.481046,0.676246,-0.533262
1630411801669,-0.480375,0.675392,-0.533445
1630411801678,-0.48031399999999996,0.676795,-0.53253
1630411801688,-0.479338,0.676429,-0.533567
1630411801698,-0.477935,0.675331,-0.534726
1630411801707,-0.47787399999999997,0.672952,-0.533689
1630411801717,-0.48129,0.671549,-0.533994
1630411801726,-0.482083,0.671549,-0.53131
1630411801736,-0.481473,0.674538,-0.532652
1630411801746,-0.482388,0.676917,-0.532835
1630411801755,-0.482266,0.675819,-0.532774
1630411801765,-0.481473,0.67527,-0.533628
1630411801774,-0.481412,0.676063,-0.534177
1630411801784,-0.482632,0.674538,-0.535763
1630411801794,-0.482144,0.673806,-0.536861
1630411801803,-0.481656,0.674233,-0.537654
1630411801813,-0.481839,0.673501,-0.538386
1630411801822,-0.481778,0.673074,-0.539484
1630411801832,-0.481351,0.672342,-0.5407649999999999
1630411801842,-0.481168,0.67283,-0.539484
1630411801851,-0.482632,0.67344,-0.538691
1630411801861,-0.481961,0.672708,-0.539118
1630411801870,-0.482388,0.674355,-0.538386
1630411801880,-0.48257099999999997,0.674477,-0.538752
1630411801890,-0.481961,0.673501,-0.538569
1630411801899,-0.483303,0.674538,-0.538569
1630411801909,-0.483364,0.673928,-0.540094
1630411801918,-0.48251,0.672464,-0.540704
1630411801928,-0.482693,0.672464,-0.5395449999999999
1630411801938,-0.481595,0.671427,-0.538508
1630411801947,-0.4819,0.672647,-0.538386
1630411801957,-0.481351,0.671793,-0.539362
1630411801966,-0.482449,0.672708,-0.538569
1630411801976,-0.48129,0.670817,-0.538508
1630411801986,-0.48129,0.670817,-0.5377149999999999
1630411801995,-0.482205,0.670512,-0.5380199999999999
1630411802005,-0.48092399999999996,0.670451,-0.539728
1630411802014,-0.482266,0.670878,-0.539057
1630411802024,-0.48061899999999996,0.669597,-0.539423
1630411802034,-0.479643,0.669719,-0.5416799999999999
1630411802043,-0.48007,0.671305,-0.541436
1630411802053,-0.480497,0.671,-0.543022
1630411802062,-0.48129,0.671122,-0.540033
1630411802072,-0.482998,0.670878,-0.540277
1630411802082,-0.482815,0.670939,-0.539911
1630411802091,-0.482632,0.671976,-0.5398499999999999
1630411802101,-0.482144,0.672952,-0.539423
1630411802110,-0.481961,0.671671,-0.539972
1630411802120,-0.4819,0.671732,-0.540948
1630411802130,-0.481595,0.671793,-0.541009
1630411802139,-0.4819,0.671427,-0.540277
1630411802149,-0.4819,0.669719,-0.541253
1630411802158,-0.480192,0.670634,-0.541863
1630411802168,-0.479582,0.6685599999999999,-0.5401549999999999
1630411802178,-0.480497,0.6694749999999999,-0.538569
1630411802187,-0.482205,0.672769,-0.533994
1630411802197,-0.480192,0.670878,-0.535092
1630411802206,-0.478606,0.671366,-0.537593
1630411802216,-0.479582,0.671366,-0.537654
1630411802226,-0.479826,0.672281,-0.540216
1630411802235,-0.48623099999999997,0.672708,-0.543876
1630411802245,-0.487024,0.6700849999999999,-0.553026
1630411802254,-0.48562099999999997,0.668621,-0.552782
1630411802264,-0.481473,0.666852,-0.550098
1630411802274,-0.479582,0.667401,-0.546804
1630411802283,-0.480131,0.668926,-0.545706
1630411802293,-0.480863,0.669963,-0.542351
1630411802302,-0.48251,0.671183,-0.540094
1630411802312,-0.481839,0.671366,-0.540338
1630411802322,-0.482937,0.671305,-0.540643
1630411802331,-0.482693,0.671061,-0.5407649999999999
1630411802341,-0.483242,0.670939,-0.541802
1630411802350,-0.481168,0.671,-0.543388
1630411802360,-0.47939899999999996,0.672708,-0.544791
1630411802370,-0.47909399999999996,0.671976,-0.546682
1630411802379,-0.47909399999999996,0.669963,-0.546743
1630411802389,-0.479948,0.668621,-0.5459499999999999
1630411802398,-0.479033,0.666303,-0.546743
1630411802408,-0.47763,0.666059,-0.5471699999999999
1630411802418,-0.47787399999999997,0.666486,-0.5465599999999999
1630411802427,-0.476532,0.666852,-0.546377
1630411802437,-0.477142,0.667462,-0.545462
1630411802446,-0.47641,0.668377,-0.5459499999999999
1630411802456,-0.475556,0.668072,-0.544669
1630411802466,-0.474397,0.666852,-0.545828
1630411802475,-0.477813,0.668987,-0.544608
1630411802485,-0.480741,0.672708,-0.544608
1630411802494,-0.478057,0.672281,-0.546926
1630411802504,-0.477447,0.667828,-0.547231
1630411802514,-0.475861,0.6661199999999999,-0.546926
1630411802523,-0.475251,0.663924,-0.545401
1630411802533,-0.476532,0.6670349999999999,-0.5447299999999999
1630411802542,-0.475678,0.670756,-0.5474749999999999
1630411802552,-0.476837,0.671122,-0.548024
1630411802562,-0.475617,0.670695,-0.549
1630411802571,-0.475678,0.670146,-0.549
1630411802581,-0.476776,0.669292,-0.548756
1630411802590,-0.47634899999999997,0.668438,-0.5474749999999999
1630411802600,-0.47604399999999997,0.669231,-0.547536
1630411802610,-0.476776,0.6700849999999999,-0.548207
1630411802619,-0.477813,0.67039,-0.548756
1630411802629,-0.477081,0.6688649999999999,-0.548634
1630411802638,-0.477386,0.669536,-0.550464
1630411802648,-0.478057,0.670512,-0.551562
1630411802658,-0.477508,0.670939,-0.55266
1630411802667,-0.477142,0.670756,-0.552416
1630411802677,-0.477996,0.6700849999999999,-0.552233
1630411802686,-0.47726399999999997,0.669597,-0.553758
1630411802696,-0.476593,0.669963,-0.553148
1630411802706,-0.475678,0.668804,-0.552111
1630411802715,-0.47573899999999997,0.669353,-0.551501
1630411802725,-0.47543399999999997,0.668926,-0.550769
1630411802734,-0.474885,0.669841,-0.548756
1630411802744,-0.47543399999999997,0.669292,-0.548573
1630411802754,-0.47519,0.668621,-0.548268
1630411802763,-0.475495,0.6682549999999999,-0.548329
1630411802773,-0.47390899999999997,0.6679499999999999,-0.550159
1630411802782,-0.472811,0.666974,-0.551013
1630411802792,-0.47153,0.6655099999999999,-0.551928
1630411802802,-0.470249,0.665083,-0.552355
1630411802811,-0.468541,0.664473,-0.553636
1630411802821,-0.47092,0.666303,-0.552843
1630411802830,-0.469273,0.666059,-0.55266
1630411802840,-0.469578,0.666791,-0.551562
1630411802850,-0.469761,0.666486,-0.552111
1630411802859,-0.470371,0.665144,-0.55266
1630411802869,-0.470188,0.666669,-0.551074
1630411802878,-0.471896,0.666242,-0.550586
1630411802888,-0.471957,0.6658149999999999,-0.552721
1630411802898,-0.471652,0.666913,-0.554673
1630411802907,-0.471957,0.666669,-0.556442
1630411802917,-0.471896,0.665937,-0.557784
1630411802926,-0.471957,0.666547,-0.557601
1630411802936,-0.471225,0.6673399999999999,-0.557479
1630411802946,-0.47116399999999997,0.667523,-0.556137
1630411802955,-0.472628,0.668804,-0.555344
1630411802965,-0.47238399999999997,0.668682,-0.5551
1630411802974,-0.470981,0.6661199999999999,-0.554978
1630411802984,-0.470615,0.666242,-0.5551
1630411802994,-0.471042,0.665022,-0.554307
1630411803003,-0.470005,0.665022,-0.554063
1630411803013,-0.470615,0.665571,-0.553819
1630411803022,-0.471713,0.668133,-0.555405
1630411803032,-0.473421,0.670695,-0.555222
1630411803042,-0.472933,0.673684,-0.556076
1630411803051,-0.472262,0.672525,-0.55632
1630411803061,-0.472567,0.668987,-0.556076
1630411803070,-0.471408,0.666303,-0.554063
1630411803080,-0.47116399999999997,0.664534,-0.554368
1630411803090,-0.471347,0.664656,-0.554429
1630411803099,-0.470371,0.665876,-0.554612
1630411803109,-0.469395,0.6664249999999999,-0.555344
1630411803118,-0.469822,0.667157,-0.555954
1630411803128,-0.469822,0.667706,-0.557113
1630411803138,-0.469639,0.667218,-0.557784
1630411803147,-0.469822,0.667096,-0.555893
1630411803157,-0.47085899999999997,0.666547,-0.555466
1630411803166,-0.470005,0.666852,-0.554612
1630411803176,-0.470371,0.666547,-0.553941
1630411803186,-0.469883,0.6685599999999999,-0.553392
1630411803195,-0.470676,0.669597,-0.553148
1630411803205,-0.47031,0.669292,-0.553087
1630411803214,-0.47031,0.669414,-0.552843
1630411803224,-0.470615,0.669414,-0.55205
1630411803234,-0.470676,0.668987,-0.552477
1630411803243,-0.469883,0.669658,-0.553392
1630411803253,-0.468785,0.6691699999999999,-0.553087
1630411803262,-0.468419,0.666364,-0.549976
1630411803272,-0.46848,0.666242,-0.549366
1630411803282,-0.471286,0.668133,-0.549366
1630411803291,-0.47238399999999997,0.669292,-0.547963
1630411803301,-0.47116399999999997,0.671976,-0.549061
1630411803310,-0.469578,0.670634,-0.551074
1630411803320,-0.469273,0.670756,-0.551257
1630411803330,-0.470188,0.670573,-0.552172
1630411803339,-0.470798,0.668926,-0.552843
1630411803349,-0.470737,0.668316,-0.553026
1630411803358,-0.470737,0.668011,-0.553392
1630411803368,-0.470493,0.668438,-0.555161
1630411803378,-0.471042,0.668987,-0.555161
1630411803387,-0.46921199999999996,0.6685599999999999,-0.555527
1630411803397,-0.470615,0.6691699999999999,-0.556015
1630411803406,-0.470676,0.668682,-0.555222
1630411803416,-0.471591,0.669109,-0.554612
1630411803426,-0.47153,0.6682549999999999,-0.555466
1630411803435,-0.470676,0.668926,-0.554368
1630411803445,-0.468968,0.668682,-0.553148
1630411803454,-0.470676,0.667401,-0.553819
1630411803464,-0.470432,0.667706,-0.552904
1630411803474,-0.470676,0.6673399999999999,-0.554368
1630411803483,-0.469578,0.668072,-0.555344
1630411803493,-0.46921199999999996,0.6670349999999999,-0.555771
1630411803502,-0.468846,0.6670349999999999,-0.5551
1630411803512,-0.468236,0.667218,-0.555771
1630411803522,-0.468053,0.667157,-0.555283
1630411803531,-0.468846,0.667889,-0.555832
1630411803541,-0.469151,0.668621,-0.555466
1630411803550,-0.46909,0.6679499999999999,-0.554124
1630411803560,-0.468968,0.667706,-0.553941
1630411803570,-0.470249,0.667279,-0.553392
1630411803579,-0.469517,0.666913,-0.55388
1630411803589,-0.46909,0.6676449999999999,-0.554978
1630411803598,-0.46848,0.668072,-0.554551
1630411803608,-0.468968,0.6679499999999999,-0.555405
1630411803618,-0.468541,0.667584,-0.555222
1630411803627,-0.46726,0.6676449999999999,-0.555649
1630411803637,-0.46848,0.668011,-0.555405
1630411803646,-0.469273,0.667218,-0.555161
1630411803656,-0.469334,0.666913,-0.554246
1630411803666,-0.46890699999999996,0.6661199999999999,-0.554978
1630411803675,-0.4697,0.6667299999999999,-0.554368
1630411803685,-0.469578,0.667584,-0.5551
1630411803694,-0.470066,0.667462,-0.556991
1630411803704,-0.469944,0.667096,-0.556564
1630411803714,-0.471896,0.667706,-0.55693
1630411803723,-0.470981,0.6670349999999999,-0.555649
1630411803733,-0.469761,0.666059,-0.55449
1630411803742,-0.471042,0.666242,-0.553819
1630411803752,-0.47177399999999997,0.668072,-0.554856
1630411803762,-0.474336,0.668804,-0.553941
1630411803771,-0.47329899999999997,0.671061,-0.554917
1630411803781,-0.47146899999999997,0.670878,-0.555405
1630411803790,-0.471042,0.670146,-0.554856
1630411803800,-0.47275,0.667401,-0.554612
1630411803810,-0.47214,0.666242,-0.554246
1630411803819,-0.471896,0.664778,-0.554002
1630411803829,-0.472262,0.665144,-0.554185
1630411803838,-0.471408,0.666608,-0.555588
1630411803848,-0.470798,0.667828,-0.554795
1630411803858,-0.471286,0.668438,-0.554673
1630411803867,-0.471957,0.668438,-0.553819
1630411803877,-0.471225,0.667279,-0.554185
1630411803886,-0.472018,0.666486,-0.553026
1630411803896,-0.472018,0.665876,-0.553209
1630411803906,-0.472628,0.666059,-0.553575
1630411803915,-0.47116399999999997,0.666669,-0.554307
1630411803925,-0.47177399999999997,0.665876,-0.555039
1630411803934,-0.472262,0.665937,-0.555222
1630411803944,-0.47116399999999997,0.665876,-0.554612
1630411803954,-0.472811,0.665937,-0.556259
1630411803963,-0.472628,0.666364,-0.555771
1630411803973,-0.471896,0.6661199999999999,-0.556137
1630411803982,-0.47238399999999997,0.667096,-0.55571
1630411803992,-0.472262,0.666486,-0.554551
1630411804002,-0.471713,0.664351,-0.552904
1630411804011,-0.472262,0.665022,-0.551806
1630411804021,-0.47512899999999997,0.664656,-0.54961
1630411804030,-0.475251,0.6658149999999999,-0.548573
1630411804040,-0.47458,0.670024,-0.548634
1630411804050,-0.474946,0.670207,-0.549427
1630411804059,-0.475312,0.669658,-0.549732
1630411804069,-0.476471,0.6682549999999999,-0.549488
1630411804078,-0.47665399999999997,0.667889,-0.550525
1630411804088,-0.476166,0.666608,-0.551562
1630411804098,-0.476532,0.667706,-0.551989
1630411804107,-0.475678,0.666974,-0.551379
1630411804117,-0.475312,0.666364,-0.552355
1630411804126,-0.47519,0.6673399999999999,-0.553636
1630411804136,-0.4758,0.667096,-0.554124
1630411804146,-0.474702,0.667157,-0.554856
1630411804155,-0.474641,0.667584,-0.554551
1630411804165,-0.475068,0.667706,-0.554246
1630411804174,-0.47421399999999997,0.6673399999999999,-0.553148
1630411804184,-0.474641,0.668194,-0.552355
1630411804194,-0.474092,0.667157,-0.55205
1630411804203,-0.47451899999999997,0.6673399999999999,-0.551989
1630411804213,-0.475495,0.667584,-0.551684
1630411804222,-0.474092,0.667157,-0.551196
1630411804232,-0.47421399999999997,0.667462,-0.550708
1630411804242,-0.474885,0.6682549999999999,-0.55022
1630411804251,-0.474641,0.668377,-0.549671
1630411804261,-0.47482399999999997,0.667706,-0.549427
1630411804270,-0.473726,0.6679499999999999,-0.549061
1630411804280,-0.473543,0.6664249999999999,-0.549122
1630411804290,-0.47238399999999997,0.667218,-0.550098
1630411804299,-0.472201,0.667096,-0.549488
1630411804309,-0.47275,0.666913,-0.550159
1630411804318,-0.472018,0.666303,-0.549976
1630411804328,-0.472506,0.666303,-0.549549
1630411804338,-0.472262,0.666913,-0.55022
1630411804347,-0.472811,0.668011,-0.550708
1630411804357,-0.473482,0.667279,-0.550464
1630411804366,-0.473238,0.667706,-0.550891
1630411804376,-0.472567,0.667584,-0.551684
1630411804386,-0.472506,0.668499,-0.55144
1630411804395,-0.473787,0.667218,-0.552294
1630411804405,-0.473482,0.667889,-0.553514
1630411804414,-0.472262,0.667889,-0.553819
1630411804424,-0.47329899999999997,0.667523,-0.552477
1630411804434,-0.474153,0.6673399999999999,-0.552172
1630411804443,-0.47458,0.668316,-0.55266
1630411804453,-0.474397,0.667828,-0.553514
1630411804462,-0.473726,0.667462,-0.553087
1630411804472,-0.47397,0.668011,-0.551135
1630411804482,-0.474031,0.668011,-0.550708
1630411804491,-0.47519,0.666486,-0.549488
1630411804501,-0.475617,0.666181,-0.550952
1630411804510,-0.477081,0.668194,-0.551501
1630411804520,-0.47604399999999997,0.670878,-0.552721
1630411804530,-0.474092,0.671061,-0.554246
1630411804539,-0.47299399999999997,0.669841,-0.554429
1630411804549,-0.474641,0.667584,-0.554368
1630411804558,-0.475068,0.6655099999999999,-0.553331
1630411804568,-0.473726,0.6652049999999999,-0.552111
1630411804578,-0.473787,0.665266,-0.552538
1630411804587,-0.473787,0.665022,-0.551135
1630411804597,-0.474702,0.666669,-0.550281
1630411804606,-0.47360399999999997,0.668011,-0.551928
1630411804616,-0.474153,0.668377,-0.552721
1630411804626,-0.473726,0.668377,-0.553026
1630411804635,-0.473787,0.6676449999999999,-0.551623
1630411804645,-0.47397,0.666486,-0.551135
1630411804654,-0.47519,0.666242,-0.550098
1630411804664,-0.47421399999999997,0.6661199999999999,-0.550159
1630411804674,-0.473482,0.666608,-0.551013
1630411804683,-0.473177,0.666608,-0.551623
1630411804693,-0.473665,0.667218,-0.550403
1630411804702,-0.473238,0.667462,-0.550586
1630411804712,-0.47336,0.666547,-0.54961
1630411804722,-0.474275,0.666852,-0.54961
1630411804731,-0.474702,0.6673399999999999,-0.549488
1630411804741,-0.474153,0.6679499999999999,-0.55022
1630411804750,-0.474031,0.667767,-0.550159
1630411804760,-0.474763,0.665022,-0.549
1630411804770,-0.475678,0.666974,-0.5483899999999999
1630411804779,-0.47763,0.666364,-0.547536
1630411804789,-0.47756899999999997,0.667828,-0.548207
1630411804798,-0.47763,0.668072,-0.550037
1630411804808,-0.476471,0.668316,-0.550037
1630411804818,-0.476532,0.6700849999999999,-0.55022
1630411804827,-0.47848399999999996,0.668499,-0.550464
1630411804837,-0.477386,0.667767,-0.55083
1630411804846,-0.47763,0.667401,-0.551318
1630411804856,-0.477447,0.666974,-0.551013
1630411804866,-0.477508,0.667157,-0.55205
1630411804875,-0.477142,0.667889,-0.550708
1630411804885,-0.477142,0.667523,-0.550647
1630411804894,-0.47756899999999997,0.667279,-0.549366
1630411804904,-0.476593,0.6679499999999999,-0.549488
1630411804914,-0.47695899999999997,0.667401,-0.54961
1630411804923,-0.47702,0.668438,-0.549305
1630411804933,-0.47756899999999997,0.668072,-0.549427
1630411804942,-0.47817899999999997,0.668926,-0.550281
1630411804952,-0.47756899999999997,0.668194,-0.549488
1630411804962,-0.476776,0.667889,-0.549488
1630411804971,-0.476837,0.6664249999999999,-0.550952
1630411804981,-0.477142,0.667584,-0.550891
1630411804990,-0.477203,0.667584,-0.55022
1630411805000,-0.47665399999999997,0.667218,-0.550342
1630411805010,-0.477325,0.667096,-0.550769
1630411805019,-0.477203,0.6667299999999999,-0.548634
1630411805029,-0.477081,0.666486,-0.548695
1630411805038,-0.476532,0.666303,-0.548756
1630411805048,-0.476837,0.666547,-0.548817
1630411805058,-0.475922,0.666303,-0.549122
1630411805067,-0.47695899999999997,0.6655099999999999,-0.548756
1630411805077,-0.47702,0.665388,-0.549183
1630411805086,-0.476715,0.665754,-0.549
1630411805096,-0.476166,0.666181,-0.549244
1630411805106,-0.47726399999999997,0.665693,-0.54961
1630411805115,-0.475983,0.665083,-0.550403
1630411805125,-0.476532,0.666913,-0.551196
1630411805134,-0.476288,0.666486,-0.552538
1630411805144,-0.47641,0.665998,-0.552111
1630411805154,-0.47726399999999997,0.666059,-0.551623
1630411805163,-0.477508,0.6645949999999999,-0.551684
1630411805173,-0.47756899999999997,0.665449,-0.550952
1630411805182,-0.477508,0.664168,-0.549671
1630411805192,-0.478423,0.6655099999999999,-0.55022
1630411805202,-0.478545,0.666791,-0.550952
1630411805211,-0.477813,0.666913,-0.552782
1630411805221,-0.47763,0.665571,-0.552477
1630411805230,-0.47702,0.665266,-0.552538
1630411805240,-0.47756899999999997,0.666486,-0.55205
1630411805250,-0.47756899999999997,0.663497,-0.550952
1630411805259,-0.478606,0.6648999999999999,-0.549732
1630411805269,-0.479521,0.6673399999999999,-0.550891
1630411805278,-0.479582,0.668316,-0.551684
1630411805288,-0.478545,0.670939,-0.553148
1630411805298,-0.477508,0.669231,-0.551684
1630411805307,-0.477508,0.665754,-0.551562
1630411805317,-0.478606,0.6630699999999999,-0.551318
1630411805326,-0.478362,0.663802,-0.551196
1630411805336,-0.477752,0.6648999999999999,-0.552721
1630411805346,-0.477386,0.665876,-0.553636
1630411805355,-0.476776,0.666669,-0.553026
1630411805365,-0.47634899999999997,0.667584,-0.553453
1630411805374,-0.476227,0.666364,-0.553758
1630411805384,-0.475861,0.666486,-0.552721
1630411805394,-0.47604399999999997,0.664534,-0.55205
1630411805403,-0.475556,0.663619,-0.552233
1630411805413,-0.475251,0.663802,-0.551257
1630411805422,-0.475068,0.664656,-0.552477
1630411805432,-0.474641,0.665144,-0.554063
1630411805442,-0.47390899999999997,0.665022,-0.553697
1630411805451,-0.474092,0.664351,-0.553575
1630411805461,-0.47421399999999997,0.665083,-0.553636
1630411805470,-0.474885,0.665571,-0.553636
1630411805480,-0.47519,0.665998,-0.552294
1630411805490,-0.47421399999999997,0.667401,-0.553209
1630411805499,-0.475373,0.6679499999999999,-0.553636
1630411805509,-0.47397,0.665998,-0.55266
1630411805518,-0.473238,0.664351,-0.550464
1630411805528,-0.475922,0.665327,-0.548207
1630411805538,-0.477081,0.6658149999999999,-0.5483899999999999
1630411805547,-0.475678,0.6685599999999999,-0.550464
1630411805557,-0.47573899999999997,0.668072,-0.550403
1630411805566,-0.476105,0.668316,-0.550952
1630411805576,-0.476288,0.667401,-0.550464
1630411805586,-0.476715,0.667279,-0.549976
1630411805595,-0.476105,0.667401,-0.551318
1630411805605,-0.47543399999999997,0.666181,-0.550891
1630411805614,-0.476288,0.666974,-0.55083
1630411805624,-0.475983,0.667462,-0.550891
1630411805634,-0.477386,0.667279,-0.55083
1630411805643,-0.477142,0.667096,-0.550403
1630411805653,-0.476532,0.668011,-0.550464
1630411805662,-0.476288,0.667401,-0.55205
1630411805672,-0.475861,0.668133,-0.552294
1630411805682,-0.47604399999999997,0.668133,-0.551257
1630411805691,-0.47665399999999997,0.668316,-0.551257
1630411805701,-0.47573899999999997,0.6673399999999999,-0.550098
1630411805710,-0.47604399999999997,0.667096,-0.550586
1630411805720,-0.47543399999999997,0.6670349999999999,-0.550281
1630411805730,-0.4758,0.6676449999999999,-0.54961
1630411805739,-0.475922,0.667584,-0.549671
1630411805749,-0.47519,0.666913,-0.55022
1630411805758,-0.4758,0.668438,-0.551074
1630411805768,-0.475373,0.668926,-0.551928
1630411805778,-0.475312,0.669292,-0.55083
1630411805787,-0.47573899999999997,0.6685599999999999,-0.550708
1630411805797,-0.475922,0.668011,-0.550525
1630411805806,-0.475373,0.6673399999999999,-0.549
1630411805816,-0.47512899999999997,0.667218,-0.548573
1630411805826,-0.474153,0.666547,-0.549305
1630411805835,-0.475312,0.666974,-0.549488
1630411805845,-0.47336,0.666974,-0.549488
1630411805854,-0.47329899999999997,0.667523,-0.550098
1630411805864,-0.473787,0.667096,-0.550769
1630411805874,-0.47458,0.6673399999999999,-0.549915
1630411805883,-0.475068,0.668072,-0.551196
1630411805893,-0.473787,0.6676449999999999,-0.551074
1630411805902,-0.474275,0.667096,-0.550952
1630411805912,-0.475312,0.666364,-0.551623
1630411805922,-0.476776,0.666547,-0.550708
1630411805931,-0.47665399999999997,0.666364,-0.549793
1630411805941,-0.477447,0.669658,-0.550525
1630411805950,-0.477752,0.669231,-0.551745
1630411805960,-0.478057,0.666669,-0.55083
1630411805970,-0.477203,0.666547,-0.55022
1630411805979,-0.47817899999999997,0.664717,-0.549488
1630411805989,-0.476593,0.664656,-0.548512
1630411805998,-0.476105,0.6655099999999999,-0.547597
1630411806008,-0.476532,0.667401,-0.5483899999999999
1630411806018,-0.478057,0.671,-0.548939
1630411806027,-0.47817899999999997,0.672281,-0.549671
1630411806037,-0.47634899999999997,0.672342,-0.550281
1630411806046,-0.476837,0.668987,-0.551501
1630411806056,-0.47702,0.665998,-0.551928
1630411806066,-0.475495,0.664351,-0.551928
1630411806075,-0.475495,0.663009,-0.550769
1630411806085,-0.475312,0.663009,-0.552294
1630411806094,-0.474641,0.6639849999999999,-0.553758
1630411806104,-0.474336,0.664229,-0.554917
1630411806114,-0.47214,0.663863,-0.557296
1630411806123,-0.47275,0.664168,-0.558882
1630411806133,-0.47336,0.663924,-0.558394
1630411806142,-0.473665,0.663009,-0.557052
1630411806152,-0.474336,0.663009,-0.554795
1630411806162,-0.474397,0.664046,-0.554978
1630411806171,-0.47604399999999997,0.665571,-0.55388
1630411806181,-0.475068,0.665937,-0.55388
1630411806190,-0.476288,0.666486,-0.553514
1630411806200,-0.475312,0.666059,-0.552538
1630411806210,-0.473848,0.665449,-0.552172
1630411806219,-0.475678,0.665327,-0.551318
1630411806229,-0.474763,0.6661199999999999,-0.55205
1630411806238,-0.47482399999999997,0.666913,-0.55327
1630411806248,-0.472933,0.6642899999999999,-0.551074
1630411806258,-0.47421399999999997,0.664839,-0.551257
1630411806267,-0.47641,0.665449,-0.55022
1630411806277,-0.476593,0.667279,-0.549244
1630411806286,-0.476471,0.670268,-0.549671
1630411806296,-0.476166,0.670756,-0.549671
1630411806306,-0.477203,0.670207,-0.549854
1630411806315,-0.478362,0.669841,-0.549244
1630411806325,-0.478667,0.669109,-0.549793
1630411806334,-0.477691,0.6676449999999999,-0.550769
1630411806344,-0.47763,0.667279,-0.551318
1630411806354,-0.47641,0.666669,-0.550708
1630411806363,-0.476288,0.667218,-0.551379
1630411806373,-0.4758,0.667828,-0.55022
1630411806382,-0.476105,0.667889,-0.549366
1630411806392,-0.476898,0.667828,-0.548756
1630411806402,-0.47702,0.668011,-0.548756
1630411806411,-0.477752,0.6697799999999999,-0.548878
1630411806421,-0.478606,0.669292,-0.548756
1630411806430,-0.477142,0.668438,-0.549732
1630411806440,-0.477813,0.669414,-0.549305
1630411806450,-0.477996,0.668926,-0.549915
1630411806459,-0.477691,0.6670349999999999,-0.549244
1630411806469,-0.477935,0.666547,-0.548573
1630411806478,-0.478362,0.667462,-0.549
1630411806488,-0.477203,0.667096,-0.549793
1630411806498,-0.478606,0.667279,-0.549122
1630411806507,-0.47763,0.667523,-0.549
1630411806517,-0.47695899999999997,0.667584,-0.548634
1630411806526,-0.47702,0.668072,-0.547963
1630411806536,-0.47702,0.6679499999999999,-0.5483899999999999
1630411806546,-0.476105,0.6670349999999999,-0.548024
1630411806555,-0.47665399999999997,0.666364,-0.548146
1630411806565,-0.475312,0.665693,-0.548024
1630411806574,-0.474946,0.6658149999999999,-0.548146
1630411806584,-0.475495,0.665693,-0.54961
1630411806594,-0.4758,0.665449,-0.549915
1630411806603,-0.475861,0.665876,-0.550525
1630411806613,-0.4758,0.665693,-0.550952
1630411806622,-0.474946,0.666242,-0.551318
1630411806632,-0.475007,0.665998,-0.551684
1630411806642,-0.47512899999999997,0.6661199999999999,-0.551318
1630411806651,-0.475251,0.6652049999999999,-0.551074
1630411806661,-0.475556,0.665022,-0.551257
1630411806670,-0.476898,0.664229,-0.550525
1630411806680,-0.476227,0.664351,-0.55083
1630411806690,-0.47641,0.664778,-0.55022
1630411806699,-0.476166,0.664656,-0.551989
1630411806709,-0.47787399999999997,0.664839,-0.552965
1630411806718,-0.476593,0.664229,-0.551867
1630411806728,-0.477813,0.665266,-0.552416
1630411806738,-0.477813,0.666181,-0.551196
1630411806747,-0.47939899999999996,0.664473,-0.549976
1630411806757,-0.481046,0.663802,-0.550098
1630411806766,-0.4819,0.665693,-0.550403
1630411806776,-0.481351,0.668499,-0.552172
1630411806786,-0.480741,0.669597,-0.554856
1630411806795,-0.479765,0.668743,-0.555222
1630411806805,-0.479582,0.665876,-0.554185
1630411806814,-0.47909399999999996,0.662948,-0.552965
1630411806824,-0.480436,0.661972,-0.552294
1630411806834,-0.478545,0.663436,-0.552111
1630411806843,-0.47824,0.663497,-0.551684
1630411806853,-0.47824,0.664168,-0.552904
1630411806862,-0.477813,0.665876,-0.553087
1630411806872,-0.478362,0.666608,-0.553636
1630411806882,-0.478362,0.666669,-0.552477
1630411806891,-0.478972,0.6648999999999999,-0.552172
1630411806901,-0.479277,0.663802,-0.551379
1630411806910,-0.479765,0.664229,-0.55022
1630411806920,-0.479338,0.6642899999999999,-0.550098
1630411806930,-0.478606,0.664351,-0.548878
1630411806939,-0.47848399999999996,0.664961,-0.549
1630411806949,-0.479338,0.664412,-0.548573
1630411806958,-0.479765,0.664534,-0.5474749999999999
1630411806968,-0.480131,0.664717,-0.546743
1630411806978,-0.479887,0.665144,-0.547902
1630411806987,-0.48007,0.666547,-0.548024
1630411806997,-0.480497,0.667279,-0.548634
1630411807006,-0.479582,0.666791,-0.5471699999999999
1630411807016,-0.480253,0.664656,-0.545828
1630411807026,-0.481778,0.666791,-0.543632
1630411807035,-0.48287599999999997,0.6664249999999999,-0.541497
1630411807045,-0.48287599999999997,0.668499,-0.540582
1630411807054,-0.483974,0.6700849999999999,-0.540277
1630411807064,-0.483669,0.669719,-0.541009
1630411807074,-0.483303,0.669597,-0.541924
1630411807083,-0.48373,0.669597,-0.5404599999999999
1630411807093,-0.484645,0.668438,-0.541009
1630411807102,-0.483425,0.6682549999999999,-0.540948
1630411807112,-0.48373,0.6676449999999999,-0.5416799999999999
1630411807122,-0.483547,0.6667299999999999,-0.541802
1630411807131,-0.482998,0.668011,-0.542351
1630411807141,-0.483852,0.668621,-0.542473
1630411807150,-0.483303,0.668194,-0.541924
1630411807160,-0.48434,0.668926,-0.5422899999999999
1630411807170,-0.48373,0.669719,-0.5422899999999999
1630411807179,-0.484889,0.669292,-0.5422899999999999
1630411807189,-0.48440099999999997,0.6691699999999999,-0.543144
1630411807198,-0.483974,0.6685599999999999,-0.543144
1630411807208,-0.484035,0.668316,-0.5425949999999999
1630411807218,-0.48379099999999997,0.6685599999999999,-0.542534
1630411807227,-0.48470599999999997,0.668499,-0.5425949999999999
1630411807237,-0.48373,0.668072,-0.542656
1630411807246,-0.48434,0.669536,-0.5432049999999999
1630411807256,-0.484035,0.6691699999999999,-0.542168
1630411807266,-0.484218,0.669048,-0.541802
1630411807275,-0.484218,0.6688649999999999,-0.5416799999999999
1630411807285,-0.48409599999999997,0.668621,-0.542046
1630411807294,-0.483242,0.668011,-0.5416799999999999
1630411807304,-0.483303,0.668438,-0.541802
1630411807314,-0.482205,0.6679499999999999,-0.5413749999999999
1630411807323,-0.482998,0.666974,-0.542412
1630411807333,-0.482998,0.667096,-0.542229
1630411807342,-0.482632,0.667096,-0.541436
1630411807352,-0.482693,0.666852,-0.541924
1630411807362,-0.483364,0.667279,-0.542168
1630411807371,-0.48373,0.668499,-0.542168
1630411807381,-0.483364,0.667889,-0.542046
1630411807390,-0.482327,0.667584,-0.5428999999999999
1630411807400,-0.482693,0.667584,-0.543022
1630411807410,-0.482693,0.667767,-0.544547
1630411807419,-0.482144,0.667096,-0.5453399999999999
1630411807429,-0.482388,0.667279,-0.545523
1630411807438,-0.482449,0.666364,-0.5456449999999999
1630411807448,-0.4819,0.6655099999999999,-0.5447299999999999
1630411807458,-0.481534,0.665083,-0.543937
1630411807467,-0.48373,0.666364,-0.5441199999999999
1630411807477,-0.48312,0.666791,-0.545096
1630411807486,-0.483913,0.666913,-0.545889
1630411807496,-0.482815,0.666608,-0.546499
1630411807506,-0.483608,0.666974,-0.546011
1630411807515,-0.483425,0.666364,-0.544974
1630411807525,-0.483242,0.664412,-0.543876
1630411807534,-0.484218,0.6655099999999999,-0.543754
1630411807544,-0.485499,0.667401,-0.545157
1630411807554,-0.484218,0.669048,-0.5471699999999999
1630411807563,-0.48373,0.669963,-0.548024
1630411807573,-0.483303,0.668743,-0.547902
1630411807582,-0.483547,0.666852,-0.547353
1630411807592,-0.48373,0.665144,-0.545401
1630411807602,-0.483669,0.665083,-0.544486
1630411807611,-0.483425,0.6652049999999999,-0.544974
1630411807621,-0.482327,0.665388,-0.544669
1630411807630,-0.482632,0.666547,-0.5459499999999999
1630411807640,-0.481961,0.668072,-0.547536
1630411807650,-0.481534,0.6679499999999999,-0.548268
1630411807659,-0.48061899999999996,0.666791,-0.547963
1630411807669,-0.48129,0.665571,-0.549
1630411807678,-0.481778,0.664534,-0.548329
1630411807688,-0.481412,0.665022,-0.548268
1630411807698,-0.480192,0.666059,-0.5480849999999999
1630411807707,-0.480863,0.665754,-0.547292
1630411807717,-0.48007,0.665327,-0.546987
1630411807726,-0.48122899999999996,0.665876,-0.546194
1630411807736,-0.481534,0.666364,-0.544364
1630411807746,-0.481839,0.666181,-0.543388
1630411807755,-0.481656,0.666486,-0.542839
1630411807765,-0.48312,0.667828,-0.542229
1630411807774,-0.483425,0.668926,-0.540643
1630411807784,-0.483303,0.666974,-0.539728
1630411807794,-0.484218,0.666181,-0.539606
1630411807803,-0.48623099999999997,0.667157,-0.5377149999999999
1630411807813,-0.48653599999999997,0.6676449999999999,-0.537166
1630411807822,-0.48684099999999997,0.669414,-0.5380199999999999
1630411807832,-0.486414,0.669109,-0.538874
1630411807842,-0.485682,0.6694749999999999,-0.540521
1630411807851,-0.48653599999999997,0.669841,-0.542107
1630411807861,-0.486658,0.670146,-0.542473
1630411807870,-0.485194,0.669414,-0.5422899999999999
1630411807880,-0.485133,0.6679499999999999,-0.542778
1630411807890,-0.486719,0.667889,-0.542656
1630411807899,-0.486414,0.667096,-0.542351
1630411807909,-0.485438,0.667706,-0.541863
1630411807918,-0.484767,0.667889,-0.541802
1630411807928,-0.48617,0.668621,-0.5416799999999999
1630411807938,-0.486292,0.667889,-0.5407649999999999
1630411807947,-0.486414,0.668682,-0.5407649999999999
1630411807957,-0.486963,0.6694749999999999,-0.540277
1630411807966,-0.48562099999999997,0.668743,-0.540948
1630411807976,-0.485865,0.6685599999999999,-0.541619
1630411807986,-0.486109,0.668804,-0.5410699999999999
1630411807995,-0.486048,0.667706,-0.539911
1630411808005,-0.486414,0.6676449999999999,-0.539484
1630411808014,-0.485804,0.668194,-0.539484
1630411808024,-0.486048,0.667584,-0.5392399999999999
1630411808034,-0.485804,0.667523,-0.539911
1630411808043,-0.485987,0.6676449999999999,-0.5401549999999999
1630411808053,-0.485194,0.668194,-0.539118
1630411808062,-0.485194,0.667706,-0.539972
1630411808072,-0.485804,0.667401,-0.540704
1630411808082,-0.485438,0.668133,-0.539606
1630411808091,-0.48434,0.6670349999999999,-0.539179
1630411808101,-0.484279,0.665876,-0.539789
1630411808110,-0.484828,0.665754,-0.5404599999999999
1630411808120,-0.485194,0.666608,-0.5407649999999999
1630411808130,-0.485682,0.666608,-0.540643
1630411808139,-0.485072,0.6658149999999999,-0.543388
1630411808149,-0.485743,0.665998,-0.5432049999999999
1630411808158,-0.485499,0.6667299999999999,-0.5435099999999999
1630411808168,-0.484828,0.6658149999999999,-0.543266
1630411808178,-0.48556,0.666059,-0.543754
1630411808187,-0.48531599999999997,0.666852,-0.544242
1630411808197,-0.48495,0.6679499999999999,-0.5459499999999999
1630411808206,-0.484767,0.666974,-0.544852
1630411808216,-0.485072,0.666913,-0.544486
1630411808226,-0.485255,0.666303,-0.544974
1630411808235,-0.485255,0.666486,-0.544486
1630411808245,-0.485804,0.665693,-0.545157
1630411808254,-0.485499,0.666059,-0.544364
1630411808264,-0.484645,0.665022,-0.5450349999999999
1630411808274,-0.484645,0.665266,-0.544364
1630411808283,-0.487024,0.666669,-0.5447299999999999
1630411808293,-0.48592599999999997,0.667584,-0.546438
1630411808302,-0.48556,0.666303,-0.547414
1630411808312,-0.48409599999999997,0.665449,-0.547902
1630411808322,-0.484767,0.665571,-0.546133
1630411808331,-0.48373,0.6648999999999999,-0.544059
1630411808341,-0.48440099999999997,0.663436,-0.542839
1630411808350,-0.485438,0.664778,-0.542717
1630411808360,-0.485865,0.667889,-0.543022
1630411808370,-0.484767,0.670268,-0.544791
1630411808379,-0.484523,0.670146,-0.544913
1630411808389,-0.483852,0.668011,-0.544059
1630411808398,-0.48495,0.665937,-0.543998
1630411808408,-0.48531599999999997,0.664168,-0.542656
1630411808418,-0.483913,0.6648999999999999,-0.542656
1630411808427,-0.48312,0.6639849999999999,-0.542717
1630411808437,-0.482754,0.664961,-0.543327
1630411808446,-0.48312,0.665693,-0.5441199999999999
1630411808456,-0.481717,0.666669,-0.545889
1630411808466,-0.4819,0.6673399999999999,-0.546194
1630411808475,-0.4819,0.665632,-0.546316
1630411808485,-0.48257099999999997,0.664046,-0.545828
1630411808494,-0.48287599999999997,0.664473,-0.547048
1630411808504,-0.483608,0.6655099999999999,-0.546499
1630411808514,-0.482144,0.665693,-0.547231
1630411808523,-0.481961,0.665876,-0.547658
1630411808533,-0.483059,0.666547,-0.548207
1630411808542,-0.483425,0.6661199999999999,-0.548024
1630411808552,-0.481534,0.6655099999999999,-0.548207
1630411808562,-0.482998,0.665632,-0.547658
1630411808571,-0.483669,0.666303,-0.5462549999999999
1630411808581,-0.483059,0.6685599999999999,-0.547963
1630411808590,-0.48068,0.666913,-0.546194
1630411808600,-0.481534,0.664412,-0.5450349999999999
1630411808610,-0.481595,0.665388,-0.544913
1630411808619,-0.484279,0.665022,-0.542961
1630411808629,-0.483669,0.667157,-0.5432049999999999
1630411808638,-0.482754,0.669597,-0.544364
1630411808648,-0.482937,0.669414,-0.544852
1630411808658,-0.484035,0.667462,-0.543571
1630411808667,-0.48373,0.668194,-0.5435099999999999
1630411808677,-0.483364,0.6673399999999999,-0.5435099999999999
1630411808686,-0.482754,0.666547,-0.543571
1630411808696,-0.484035,0.6673399999999999,-0.5435099999999999
1630411808706,-0.483852,0.6676449999999999,-0.544364
1630411808715,-0.483608,0.6679499999999999,-0.544608
1630411808725,-0.483974,0.666791,-0.544059
1630411808734,-0.48318099999999997,0.666303,-0.543937
1630411808744,-0.483974,0.668499,-0.5441199999999999
1630411808754,-0.483608,0.668194,-0.5441199999999999
1630411808763,-0.482327,0.6682549999999999,-0.543388
1630411808773,-0.482937,0.667889,-0.544669
1630411808782,-0.48318099999999997,0.667523,-0.543388
1630411808792,-0.482998,0.668804,-0.543144
1630411808802,-0.483425,0.667828,-0.5422899999999999
1630411808811,-0.481961,0.667218,-0.5422899999999999
1630411808821,-0.48251,0.668133,-0.542534
1630411808830,-0.482693,0.667706,-0.542656
1630411808840,-0.482083,0.6673399999999999,-0.543693
1630411808850,-0.482388,0.6673399999999999,-0.543449
1630411808859,-0.482144,0.667523,-0.544059
1630411808869,-0.481961,0.6670349999999999,-0.543876
1630411808878,-0.481534,0.6670349999999999,-0.544364
1630411808888,-0.48061899999999996,0.667279,-0.544364
1630411808898,-0.480253,0.664839,-0.543449
1630411808907,-0.480375,0.665754,-0.544486
1630411808917,-0.482266,0.666669,-0.543632
1630411808926,-0.48257099999999997,0.666974,-0.544486
1630411808936,-0.483303,0.667767,-0.545401
1630411808946,-0.48251,0.6670349999999999,-0.5453399999999999
1630411808955,-0.483364,0.666669,-0.545767
1630411808965,-0.48287599999999997,0.667279,-0.5465599999999999
1630411808974,-0.482144,0.6676449999999999,-0.545889
1630411808984,-0.482998,0.666608,-0.5468649999999999
1630411808994,-0.483242,0.666669,-0.547597
1630411809003,-0.482205,0.666486,-0.547597
1630411809013,-0.482144,0.666974,-0.547353
1630411809022,-0.48251,0.667096,-0.547292
1630411809032,-0.482632,0.667401,-0.547109
1630411809042,-0.48348599999999997,0.665876,-0.5471699999999999
1630411809051,-0.482937,0.666974,-0.545828
1630411809061,-0.48348599999999997,0.666608,-0.5453399999999999
1630411809070,-0.483059,0.666791,-0.544486
1630411809080,-0.483608,0.668499,-0.545279
1630411809090,-0.483425,0.668804,-0.546316
1630411809099,-0.481778,0.666669,-0.546621
1630411809109,-0.481412,0.665571,-0.546743
1630411809118,-0.482449,0.663924,-0.544974
1630411809128,-0.482083,0.664107,-0.5438149999999999
1630411809138,-0.482205,0.664839,-0.542412
1630411809147,-0.48379099999999997,0.668804,-0.5435099999999999
1630411809157,-0.48501099999999997,0.670146,-0.543693
1630411809166,-0.48373,0.671488,-0.5447299999999999
1630411809176,-0.482632,0.670268,-0.5459499999999999
1630411809186,-0.482937,0.667218,-0.545523
1630411809195,-0.483608,0.664168,-0.546194
1630411809205,-0.48257099999999997,0.662826,-0.5453399999999999
1630411809214,-0.48287599999999997,0.663802,-0.546499
1630411809224,-0.482022,0.664046,-0.547658
1630411809234,-0.480863,0.665266,-0.547658
1630411809243,-0.480802,0.666242,-0.549549
1630411809253,-0.480375,0.667462,-0.549976
1630411809262,-0.479826,0.666486,-0.549854
1630411809272,-0.479948,0.665022,-0.548939
1630411809282,-0.479582,0.6642899999999999,-0.5477799999999999
1630411809291,-0.479155,0.663619,-0.546804
1630411809301,-0.479948,0.665144,-0.547292
1630411809310,-0.479155,0.666303,-0.546621
1630411809320,-0.48000899999999996,0.6676449999999999,-0.546194
1630411809330,-0.479643,0.667706,-0.546194
1630411809339,-0.47909399999999996,0.6682549999999999,-0.545828
1630411809349,-0.479216,0.667462,-0.545889
1630411809358,-0.47939899999999996,0.667401,-0.545706
1630411809368,-0.478911,0.6679499999999999,-0.547048
1630411809378,-0.47885,0.668133,-0.547109
1630411809387,-0.47885,0.665876,-0.545584
1630411809397,-0.479277,0.666486,-0.5459499999999999
1630411809406,-0.481351,0.665632,-0.544486
1630411809416,-0.481839,0.668133,-0.5432049999999999
1630411809426,-0.480497,0.6694749999999999,-0.545096
1630411809435,-0.481778,0.670817,-0.545096
1630411809445,-0.482144,0.671,-0.545096
1630411809454,-0.482327,0.671061,-0.543937
1630411809464,-0.482632,0.669902,-0.5435099999999999
1630411809474,-0.482754,0.668133,-0.543388
1630411809483,-0.482937,0.668621,-0.542473
1630411809493,-0.48251,0.668743,-0.542717
1630411809502,-0.481717,0.669048,-0.5425949999999999
1630411809512,-0.482022,0.670146,-0.543083
1630411809522,-0.481595,0.669658,-0.5438149999999999
1630411809531,-0.482144,0.6694749999999999,-0.543388
1630411809541,-0.482327,0.669658,-0.543449
1630411809550,-0.48257099999999997,0.669231,-0.5435099999999999
1630411809560,-0.481778,0.6691699999999999,-0.542961
1630411809570,-0.481473,0.669658,-0.544303
1630411809579,-0.48092399999999996,0.668316,-0.543937
1630411809589,-0.481168,0.668499,-0.5441199999999999
1630411809598,-0.4819,0.667767,-0.544364
1630411809608,-0.482266,0.667462,-0.544669
1630411809618,-0.48007,0.666913,-0.543876
1630411809627,-0.48068,0.668316,-0.5453399999999999
1630411809637,-0.480741,0.6685599999999999,-0.545462
1630411809646,-0.48092399999999996,0.667828,-0.545706
1630411809656,-0.48092399999999996,0.667157,-0.546011
1630411809666,-0.480253,0.668072,-0.5456449999999999
1630411809675,-0.48061899999999996,0.667584,-0.545157
1630411809685,-0.480436,0.6667299999999999,-0.545828
1630411809694,-0.480192,0.6661199999999999,-0.545889
1630411809704,-0.479826,0.665998,-0.545096
1630411809714,-0.480375,0.666181,-0.5447299999999999
1630411809723,-0.481107,0.666059,-0.5450349999999999
1630411809733,-0.480497,0.664961,-0.544852
1630411809742,-0.480131,0.665571,-0.545767
1630411809752,-0.479582,0.666364,-0.546316
1630411809762,-0.480253,0.666059,-0.5477799999999999
1630411809771,-0.48068,0.665693,-0.548207
1630411809781,-0.480436,0.665876,-0.548146
1630411809790,-0.48031399999999996,0.666608,-0.548878
1630411809800,-0.48007,0.666059,-0.548207
1630411809810,-0.480558,0.666669,-0.5483899999999999
1630411809819,-0.481412,0.666547,-0.548939
1630411809829,-0.481351,0.6664249999999999,-0.548451
1630411809838,-0.482693,0.665571,-0.547658
1630411809848,-0.481046,0.665571,-0.548512
1630411809858,-0.481473,0.665632,-0.548146
1630411809867,-0.48068,0.665022,-0.546438
1630411809877,-0.481534,0.665937,-0.546316
1630411809886,-0.481412,0.666852,-0.5474749999999999
1630411809896,-0.482937,0.667218,-0.5477799999999999
1630411809906,-0.482083,0.666242,-0.548329
1630411809915,-0.482083,0.6664249999999999,-0.5477799999999999
1630411809925,-0.4819,0.6664249999999999,-0.547536
1630411809934,-0.48287599999999997,0.6645949999999999,-0.545279
1630411809944,-0.483364,0.664656,-0.544486
1630411809954,-0.484767,0.665998,-0.544303
1630411809963,-0.48373,0.668682,-0.545523
1630411809973,-0.482632,0.671366,-0.546682
1630411809982,-0.48257099999999997,0.670939,-0.548146
1630411809992,-0.484218,0.668804,-0.546438
1630411810002,-0.48495,0.666242,-0.544242
1630411810011,-0.48440099999999997,0.666242,-0.542656
1630411810021,-0.48409599999999997,0.665022,-0.541802
1630411810030,-0.484035,0.666974,-0.541314
1630411810040,-0.48379099999999997,0.667462,-0.5419849999999999
1630411810050,-0.48379099999999997,0.668072,-0.542778
1630411810059,-0.482815,0.669719,-0.5435099999999999
1630411810069,-0.483364,0.669231,-0.543998
1630411810078,-0.48318099999999997,0.668621,-0.542961
1630411810088,-0.48373,0.667218,-0.542656
1630411810098,-0.482693,0.666364,-0.542534
1630411810107,-0.483425,0.667218,-0.542534
1630411810117,-0.481534,0.6670349999999999,-0.542229
1630411810126,-0.482083,0.6682549999999999,-0.543266
1630411810136,-0.481412,0.667706,-0.543022
1630411810146,-0.481595,0.667157,-0.543022
1630411810155,-0.482632,0.668011,-0.542473
1630411810165,-0.482266,0.667401,-0.541131
1630411810174,-0.482754,0.6688649999999999,-0.541741
1630411810184,-0.482754,0.669536,-0.541558
1630411810194,-0.48257099999999997,0.669231,-0.541131
1630411810203,-0.48287599999999997,0.667401,-0.538813
1630411810213,-0.48501099999999997,0.6691699999999999,-0.5380199999999999
1630411810222,-0.485499,0.6685599999999999,-0.537166
1630411810232,-0.486414,0.670207,-0.535031
1630411810242,-0.485377,0.670817,-0.536739
1630411810251,-0.485133,0.67161,-0.537654
1630411810261,-0.485072,0.670939,-0.5374099999999999
1630411810270,-0.485987,0.670573,-0.537349
1630411810280,-0.48592599999999997,0.670512,-0.537776
1630411810290,-0.48592599999999997,0.670573,-0.538874
1630411810299,-0.485194,0.670512,-0.539301
1630411810309,-0.48623099999999997,0.669536,-0.5392399999999999
1630411810318,-0.485865,0.6691699999999999,-0.540399
1630411810328,-0.485377,0.669841,-0.542107
1630411810338,-0.486414,0.670146,-0.5407649999999999
1630411810347,-0.486597,0.669231,-0.540887
1630411810357,-0.485865,0.669536,-0.541497
1630411810366,-0.485133,0.669902,-0.541436
1630411810376,-0.485743,0.668926,-0.5407649999999999
1630411810386,-0.485072,0.669109,-0.539972
1630411810395,-0.48495,0.669536,-0.5398499999999999
1630411810405,-0.484584,0.668194,-0.5407649999999999
1630411810414,-0.484828,0.668804,-0.540216
1630411810424,-0.48373,0.667584,-0.540338
1630411810434,-0.48312,0.6685599999999999,-0.541253
1630411810443,-0.48379099999999997,0.669292,-0.542534
1630411810453,-0.483852,0.668926,-0.541802
1630411810462,-0.483547,0.668804,-0.543083
1630411810472,-0.483608,0.668499,-0.541558
1630411810482,-0.483852,0.667828,-0.542046
1630411810491,-0.483059,0.667584,-0.542778
1630411810501,-0.482998,0.667767,-0.5425949999999999
1630411810510,-0.482754,0.666059,-0.543266
1630411810520,-0.48251,0.667157,-0.541924
1630411810530,-0.483364,0.667279,-0.542778
1630411810539,-0.483547,0.6676449999999999,-0.5422899999999999
1630411810549,-0.48379099999999997,0.668133,-0.542046
1630411810558,-0.48373,0.667462,-0.543327
1630411810568,-0.483364,0.668072,-0.5438149999999999
1630411810578,-0.483364,0.666669,-0.543266
1630411810587,-0.483242,0.666608,-0.543998
1630411810597,-0.48379099999999997,0.6661199999999999,-0.543327
1630411810606,-0.482998,0.666059,-0.544181
1630411810616,-0.483852,0.666303,-0.544059
1630411810626,-0.483547,0.667218,-0.544059
1630411810635,-0.48495,0.667096,-0.544242
1630411810645,-0.48440099999999997,0.666364,-0.543754
1630411810654,-0.485133,0.667096,-0.5435099999999999
1630411810664,-0.48531599999999997,0.666608,-0.544181
1630411810674,-0.484889,0.666547,-0.543754
1630411810683,-0.485255,0.667096,-0.543083
1630411810693,-0.48623099999999997,0.668133,-0.544547
1630411810702,-0.485194,0.667889,-0.544791
1630411810712,-0.485072,0.666852,-0.5450349999999999
1630411810722,-0.48562099999999997,0.666669,-0.543754
1630411810731,-0.485438,0.666364,-0.5422899999999999
1630411810741,-0.486048,0.6639849999999999,-0.540643
1630411810750,-0.487268,0.666364,-0.541436
1630411810760,-0.488122,0.669353,-0.541497
1630411810770,-0.486902,0.671793,-0.541192
1630411810779,-0.485438,0.672891,-0.5422899999999999
1630411810789,-0.486963,0.671,-0.5425949999999999
1630411810798,-0.487024,0.668194,-0.541619
1630411810808,-0.48739,0.6667299999999999,-0.540338
1630411810818,-0.48470599999999997,0.665937,-0.540216
1630411810827,-0.485194,0.665571,-0.5404599999999999
1630411810837,-0.484889,0.666669,-0.540033
1630411810846,-0.483547,0.666974,-0.5416799999999999
1630411810856,-0.48379099999999997,0.668072,-0.542107
1630411810866,-0.48251,0.669536,-0.5435099999999999
1630411810875,-0.483242,0.668621,-0.543083
1630411810885,-0.484157,0.667462,-0.542046
1630411810894,-0.483669,0.667218,-0.541741
1630411810904,-0.484035,0.666913,-0.542656
1630411810914,-0.483852,0.6673399999999999,-0.5416799999999999
1630411810923,-0.48373,0.667828,-0.542717
1630411810933,-0.482632,0.6688649999999999,-0.542534
1630411810942,-0.48373,0.668194,-0.541924
1630411810952,-0.483547,0.668499,-0.541131
1630411810962,-0.48312,0.668194,-0.540582
1630411810971,-0.48409599999999997,0.6685599999999999,-0.539484
1630411810981,-0.48434,0.668987,-0.539179
1630411810990,-0.483059,0.669109,-0.539362
1630411811000,-0.484035,0.666974,-0.5392399999999999
1630411811010,-0.484645,0.668621,-0.539484
1630411811019,-0.485682,0.667889,-0.5383249999999999
1630411811029,-0.48592599999999997,0.668743,-0.538203
1630411811038,-0.484523,0.671122,-0.539606
1630411811048,-0.48373,0.671854,-0.541314
1630411811058,-0.484584,0.670268,-0.540826
1630411811067,-0.485804,0.669536,-0.540582
1630411811077,-0.485072,0.669292,-0.540826
1630411811086,-0.485133,0.668987,-0.540826
1630411811096,-0.48470599999999997,0.669536,-0.540826
1630411811106,-0.484218,0.669719,-0.540948
1630411811115,-0.484889,0.670573,-0.541436
1630411811125,-0.483974,0.670268,-0.541619
1630411811134,-0.484218,0.670451,-0.540643
1630411811144,-0.484218,0.67039,-0.5407649999999999
1630411811154,-0.484157,0.669841,-0.539423
1630411811163,-0.483608,0.669597,-0.539301
1630411811173,-0.482632,0.669658,-0.540033
1630411811182,-0.483364,0.670024,-0.540887
1630411811192,-0.48318099999999997,0.669902,-0.541558
1630411811202,-0.482632,0.669353,-0.541497
1630411811211,-0.482693,0.669719,-0.542046
1630411811221,-0.48251,0.669109,-0.543022
1630411811230,-0.48251,0.668621,-0.542534
1630411811240,-0.481961,0.669536,-0.542717
1630411811250,-0.481534,0.669231,-0.542656
1630411811259,-0.481412,0.669109,-0.542656
1630411811269,-0.481534,0.668987,-0.543327
1630411811278,-0.481717,0.667767,-0.544303
1630411811288,-0.48068,0.667584,-0.543937
1630411811298,-0.48092399999999996,0.666364,-0.543388
1630411811307,-0.481168,0.6661199999999999,-0.543327
1630411811317,-0.481961,0.666303,-0.545096
1630411811326,-0.48129,0.666852,-0.544852
1630411811336,-0.48122899999999996,0.668438,-0.544669
1630411811346,-0.481961,0.667584,-0.543876
1630411811355,-0.4819,0.667767,-0.543754
1630411811365,-0.481961,0.6673399999999999,-0.5435099999999999
1630411811374,-0.482815,0.6679499999999999,-0.543998
1630411811384,-0.482327,0.667584,-0.544547
1630411811394,-0.481473,0.668743,-0.545096
1630411811403,-0.481351,0.668804,-0.545706
1630411811413,-0.481717,0.668438,-0.545828
1630411811422,-0.4819,0.668682,-0.545401
1630411811432,-0.481107,0.666486,-0.5456449999999999
1630411811442,-0.482327,0.666669,-0.544852
1630411811451,-0.482327,0.666913,-0.545462
1630411811461,-0.481778,0.665388,-0.544486
1630411811470,-0.482388,0.666791,-0.5441199999999999
1630411811480,-0.482144,0.667767,-0.546499
1630411811490,-0.481534,0.6679499999999999,-0.547658
1630411811499,-0.480863,0.665876,-0.546316
1630411811509,-0.481473,0.666852,-0.546133
1630411811518,-0.481534,0.666486,-0.5453399999999999
1630411811528,-0.483364,0.665083,-0.543876
1630411811538,-0.483852,0.666608,-0.544364
1630411811547,-0.484279,0.670512,-0.544974
1630411811557,-0.48312,0.673806,-0.546438
1630411811566,-0.48287599999999997,0.672281,-0.548268
1630411811576,-0.482998,0.668682,-0.5474749999999999
1630411811586,-0.481839,0.665266,-0.546987
1630411811595,-0.482266,0.664107,-0.545584
1630411811605,-0.481107,0.6648999999999999,-0.545279
1630411811614,-0.48092399999999996,0.665388,-0.546072
1630411811624,-0.480802,0.665693,-0.545218
1630411811634,-0.48122899999999996,0.667096,-0.545401
1630411811643,-0.48092399999999996,0.666913,-0.546438
1630411811653,-0.480497,0.6679499999999999,-0.547292
1630411811662,-0.48031399999999996,0.667584,-0.5477799999999999
1630411811672,-0.48092399999999996,0.6661199999999999,-0.546621
1630411811682,-0.481168,0.665327,-0.546987
1630411811691,-0.480985,0.665388,-0.545462
1630411811701,-0.481717,0.666303,-0.544913
1630411811710,-0.481717,0.667401,-0.5465599999999999
1630411811720,-0.481351,0.667706,-0.544852
1630411811730,-0.482083,0.666669,-0.543998
1630411811739,-0.482632,0.666547,-0.543083
1630411811749,-0.482693,0.6673399999999999,-0.542412
1630411811758,-0.482754,0.667767,-0.542778
1630411811768,-0.482449,0.668804,-0.5432049999999999
1630411811778,-0.481717,0.666242,-0.541192
1630411811787,-0.482998,0.665876,-0.541192
1630411811797,-0.484279,0.666486,-0.5416799999999999
1630411811806,-0.485804,0.666608,-0.5413749999999999
1630411811816,-0.483974,0.668926,-0.543022
1630411811826,-0.48373,0.670451,-0.543571
1630411811835,-0.485194,0.669536,-0.543266
1630411811845,-0.48495,0.668926,-0.5432049999999999
1630411811854,-0.485804,0.668316,-0.543754
1630411811864,-0.484889,0.667706,-0.544059
1630411811874,-0.485194,0.668194,-0.544303
1630411811883,-0.484828,0.668133,-0.544364
1630411811893,-0.484889,0.668987,-0.544547
1630411811902,-0.484523,0.667462,-0.5444249999999999
1630411811912,-0.484157,0.668194,-0.544059
1630411811922,-0.485682,0.668499,-0.543144
1630411811931,-0.48495,0.668133,-0.5428999999999999
1630411811941,-0.484828,0.666608,-0.543022
1630411811950,-0.485072,0.6670349999999999,-0.542961
1630411811960,-0.483608,0.667462,-0.544669
1630411811970,-0.48373,0.6667299999999999,-0.544486
1630411811979,-0.483608,0.668072,-0.545157
1630411811989,-0.482632,0.666669,-0.5447299999999999
1630411811998,-0.48287599999999997,0.6658149999999999,-0.545279
1630411812008,-0.483303,0.6664249999999999,-0.544364
1630411812018,-0.483059,0.6658149999999999,-0.544364
1630411812027,-0.48379099999999997,0.6655099999999999,-0.544608
1630411812037,-0.482693,0.666242,-0.544608
1630411812046,-0.483059,0.665876,-0.5459499999999999
1630411812056,-0.483364,0.6652049999999999,-0.5453399999999999
1630411812066,-0.48312,0.666364,-0.545889
1630411812075,-0.483059,0.665327,-0.546682
1630411812085,-0.482205,0.664168,-0.546011
1630411812094,-0.482388,0.664473,-0.545401
1630411812104,-0.481839,0.665632,-0.545584
1630411812114,-0.481778,0.666059,-0.544791
1630411812123,-0.48007,0.666669,-0.544974
1630411812133,-0.480192,0.666547,-0.5456449999999999
1630411812142,-0.480985,0.665998,-0.546804
1630411812152,-0.481656,0.666242,-0.547597
1630411812162,-0.48061899999999996,0.666059,-0.547597
1630411812171,-0.481046,0.665266,-0.5474749999999999
1630411812181,-0.480497,0.6652049999999999,-0.5480849999999999
1630411812190,-0.48007,0.664046,-0.5477799999999999
1630411812200,-0.480802,0.664839,-0.547109
1630411812210,-0.48122899999999996,0.667096,-0.548817
1630411812219,-0.480802,0.667828,-0.549244
1630411812229,-0.48068,0.6661199999999999,-0.549732
1630411812238,-0.481412,0.665144,-0.547902
1630411812248,-0.482022,0.664961,-0.546438
1630411812258,-0.48251,0.664168,-0.544974
1630411812267,-0.48312,0.6667299999999999,-0.545584
1630411812277,-0.48434,0.669292,-0.546194
1630411812286,-0.485865,0.671122,-0.545157
1630411812296,-0.483669,0.673013,-0.546438
1630411812306,-0.483242,0.671915,-0.546316
1630411812315,-0.482632,0.668987,-0.545523
1630411812325,-0.483547,0.6661199999999999,-0.544547
1630411812334,-0.483242,0.664961,-0.544608
1630411812344,-0.482815,0.664961,-0.544242
1630411812354,-0.481778,0.666059,-0.543998
1630411812363,-0.481473,0.666791,-0.544486
1630411812373,-0.481412,0.667767,-0.545767
1630411812382,-0.480802,0.668987,-0.546316
1630411812392,-0.481656,0.668926,-0.547048
1630411812402,-0.480741,0.6679499999999999,-0.546743
1630411812411,-0.48061899999999996,0.666059,-0.5453399999999999
1630411812421,-0.48068,0.664839,-0.5459499999999999
1630411812430,-0.48007,0.666303,-0.545462
1630411812440,-0.479521,0.666547,-0.545767
1630411812450,-0.480436,0.667096,-0.5459499999999999
1630411812459,-0.48007,0.6664249999999999,-0.545706
1630411812469,-0.480131,0.666059,-0.544181
1630411812478,-0.480497,0.666486,-0.544547
1630411812488,-0.481046,0.667401,-0.5438149999999999
1630411812498,-0.481412,0.6679499999999999,-0.5441199999999999
1630411812507,-0.479887,0.666547,-0.544303
1630411812517,-0.481107,0.665632,-0.544303
1630411812526,-0.482083,0.666486,-0.544059
1630411812536,-0.483547,0.665754,-0.543449
1630411812546,-0.483303,0.6673399999999999,-0.543388
1630411812555,-0.48318099999999997,0.669658,-0.544242
1630411812565,-0.483425,0.669414,-0.543754
1630411812574,-0.48373,0.669658,-0.5435099999999999
1630411812584,-0.48434,0.6679499999999999,-0.544608
1630411812594,-0.48409599999999997,0.666364,-0.5438149999999999
1630411812603,-0.48348599999999997,0.6667299999999999,-0.544852
1630411812613,-0.483364,0.6661199999999999,-0.544974
1630411812622,-0.483547,0.666974,-0.545889
1630411812632,-0.483242,0.667523,-0.546133
1630411812642,-0.48251,0.666852,-0.546011
1630411812651,-0.482815,0.666791,-0.545828
1630411812661,-0.48409599999999997,0.666669,-0.546133
1630411812670,-0.48440099999999997,0.667096,-0.545462
1630411812680,-0.485499,0.6673399999999999,-0.545828
1630411812690,-0.484767,0.667096,-0.545706
1630411812699,-0.48373,0.6676449999999999,-0.546743
1630411812709,-0.483303,0.667767,-0.546133
1630411812718,-0.483364,0.666974,-0.545462
1630411812728,-0.484035,0.666852,-0.545706
1630411812738,-0.483364,0.666486,-0.545584
1630411812747,-0.483364,0.666791,-0.544791
1630411812757,-0.481961,0.666303,-0.545218
1630411812766,-0.481717,0.666608,-0.544852
1630411812776,-0.481168,0.667218,-0.5447299999999999
1630411812786,-0.481839,0.666242,-0.544547
1630411812795,-0.48129,0.667096,-0.544669
1630411812805,-0.481778,0.666181,-0.544608
1630411812814,-0.481107,0.665388,-0.543998
1630411812824,-0.482266,0.666303,-0.543693
1630411812834,-0.480985,0.6661199999999999,-0.5444249999999999
1630411812843,-0.48122899999999996,0.665693,-0.543449
1630411812853,-0.481656,0.666242,-0.542168
1630411812862,-0.483059,0.666974,-0.541924
1630411812872,-0.482205,0.667096,-0.541802
1630411812882,-0.482388,0.6673399999999999,-0.542412
1630411812891,-0.481534,0.6670349999999999,-0.543449
1630411812901,-0.482754,0.667523,-0.544303
1630411812910,-0.483364,0.6676449999999999,-0.5444249999999999
1630411812920,-0.483059,0.6670349999999999,-0.544608
1630411812930,-0.482937,0.666669,-0.544059
1630411812939,-0.483059,0.666669,-0.543327
1630411812949,-0.48318099999999997,0.6667299999999999,-0.542778
1630411812958,-0.482693,0.668072,-0.542168
1630411812968,-0.483425,0.668682,-0.543632
1630411812978,-0.48318099999999997,0.667767,-0.543998
1630411812987,-0.483669,0.6682549999999999,-0.543876
1630411812997,-0.48348599999999997,0.669109,-0.543388
1630411813006,-0.48434,0.667218,-0.541558
1630411813016,-0.48434,0.666547,-0.5410699999999999
1630411813026,-0.485987,0.669231,-0.542961
1630411813035,-0.485072,0.670756,-0.5441199999999999
1630411813045,-0.483425,0.672159,-0.5462549999999999
1630411813054,-0.482693,0.671427,-0.547048
1630411813064,-0.482449,0.668682,-0.545584
1630411813074,-0.483242,0.667401,-0.544852
1630411813083,-0.48373,0.666364,-0.543449
1630411813093,-0.483547,0.666547,-0.542046
1630411813102,-0.483242,0.666974,-0.5428999999999999
1630411813112,-0.48348599999999997,0.6670349999999999,-0.543632
1630411813122,-0.482632,0.668987,-0.544303
1630411813131,-0.482022,0.669841,-0.545462
1630411813141,-0.481656,0.669353,-0.545279
1630411813150,-0.481717,0.668072,-0.5447299999999999
1630411813160,-0.481534,0.6673399999999999,-0.544303
1630411813170,-0.481961,0.666974,-0.544059
1630411813179,-0.481412,0.666303,-0.543144
1630411813189,-0.481656,0.665998,-0.542473
1630411813198,-0.481351,0.666242,-0.542961
1630411813208,-0.481473,0.666547,-0.543083
1630411813218,-0.480863,0.667157,-0.542961
1630411813227,-0.480802,0.666364,-0.543876
1630411813237,-0.481778,0.6664249999999999,-0.544608
1630411813246,-0.4819,0.666547,-0.545462
1630411813256,-0.481107,0.667157,-0.5456449999999999
1630411813266,-0.480558,0.6667299999999999,-0.544547
1630411813275,-0.481412,0.664961,-0.542412
1630411813285,-0.482144,0.666669,-0.542412
1630411813294,-0.483608,0.6655099999999999,-0.540704
1630411813304,-0.484157,0.667462,-0.539728
1630411813314,-0.483974,0.668316,-0.5432049999999999
1630411813323,-0.48287599999999997,0.668926,-0.544547
1630411813333,-0.48373,0.6685599999999999,-0.544303
1630411813342,-0.484035,0.668621,-0.544059
1630411813352,-0.484279,0.6676449999999999,-0.545218
1630411813362,-0.484828,0.667096,-0.545096
1630411813371,-0.485072,0.667523,-0.5459499999999999
1630411813381,-0.484157,0.667401,-0.5450349999999999
1630411813390,-0.483608,0.6679499999999999,-0.546011
1630411813400,-0.48251,0.667706,-0.545767
1630411813410,-0.482693,0.667401,-0.545462
1630411813419,-0.483242,0.6673399999999999,-0.5465599999999999
1630411813429,-0.48348599999999997,0.667889,-0.546133
1630411813438,-0.482449,0.667279,-0.545828
1630411813448,-0.483364,0.667767,-0.545584
1630411813458,-0.48379099999999997,0.666913,-0.546072
1630411813467,-0.482937,0.666547,-0.546133
1630411813477,-0.482998,0.6670349999999999,-0.546621
1630411813486,-0.483242,0.666608,-0.546133
1630411813496,-0.482449,0.666486,-0.545828
1630411813506,-0.482022,0.666181,-0.545828
1630411813515,-0.481778,0.665754,-0.545584
1630411813525,-0.482266,0.666974,-0.544974
1630411813534,-0.48257099999999997,0.666547,-0.544974
1630411813544,-0.480558,0.666974,-0.544913
1630411813554,-0.481717,0.665754,-0.544974
1630411813563,-0.4819,0.665876,-0.544059
1630411813573,-0.48122899999999996,0.666059,-0.544913
1630411813582,-0.48251,0.666608,-0.544852
1630411813592,-0.48122899999999996,0.665083,-0.545462
1630411813602,-0.481351,0.665022,-0.5447299999999999
1630411813611,-0.481717,0.665754,-0.544364
1630411813621,-0.481046,0.665449,-0.5450349999999999
1630411813630,-0.481412,0.665144,-0.545523
1630411813640,-0.481656,0.665693,-0.545096
1630411813650,-0.482388,0.666486,-0.545706
1630411813659,-0.481595,0.666547,-0.546377
1630411813669,-0.480741,0.665754,-0.546438
1630411813678,-0.482022,0.665388,-0.546499
1630411813688,-0.482266,0.665388,-0.5471699999999999
1630411813698,-0.482693,0.664778,-0.546377
1630411813707,-0.483364,0.665876,-0.5477799999999999
1630411813717,-0.483669,0.6667299999999999,-0.548451
1630411813726,-0.48287599999999997,0.666364,-0.549488
1630411813736,-0.482449,0.665754,-0.549183
1630411813746,-0.482693,0.666059,-0.548756
1630411813755,-0.482693,0.6652049999999999,-0.546499
1630411813765,-0.483852,0.664229,-0.545889
1630411813774,-0.484035,0.6661199999999999,-0.547292
1630411813784,-0.485804,0.668621,-0.5468649999999999
1630411813794,-0.484157,0.669963,-0.547414
1630411813803,-0.482693,0.669658,-0.548268
1630411813813,-0.482998,0.6676449999999999,-0.548268
1630411813822,-0.48348599999999997,0.665327,-0.546804
1630411813832,-0.48318099999999997,0.665571,-0.545889
1630411813842,-0.482754,0.664839,-0.5456449999999999
1630411813851,-0.483059,0.664351,-0.5456449999999999
1630411813861,-0.481717,0.666303,-0.5462549999999999
1630411813870,-0.481351,0.666608,-0.547048
1630411813880,-0.48061899999999996,0.667828,-0.547536
1630411813890,-0.479765,0.667706,-0.547719
1630411813899,-0.479826,0.665754,-0.548146
1630411813909,-0.480985,0.6652049999999999,-0.546438
1630411813918,-0.48007,0.664839,-0.546133
1630411813928,-0.48007,0.6655099999999999,-0.5465599999999999
1630411813938,-0.479948,0.664961,-0.5471699999999999
1630411813947,-0.48068,0.665937,-0.546438
1630411813957,-0.480375,0.665632,-0.546621
1630411813966,-0.480558,0.664961,-0.545218
1630411813976,-0.480131,0.665754,-0.545462
1630411813986,-0.480253,0.667096,-0.544608
1630411813995,-0.480253,0.666791,-0.5450349999999999
1630411814005,-0.480131,0.667706,-0.544486
1630411814014,-0.47946,0.666791,-0.543632
1630411814024,-0.481046,0.665266,-0.542534
1630411814034,-0.482388,0.666974,-0.541253
1630411814043,-0.48434,0.666364,-0.540399
1630411814053,-0.483669,0.668499,-0.541741
1630411814062,-0.482449,0.670268,-0.543571
1630411814072,-0.482449,0.669536,-0.543876
1630411814082,-0.482632,0.669231,-0.544242
1630411814091,-0.483364,0.668316,-0.543937
1630411814101,-0.48348599999999997,0.667279,-0.544852
1630411814110,-0.483974,0.6676449999999999,-0.544852
1630411814120,-0.48287599999999997,0.667706,-0.545279
1630411814130,-0.482388,0.666974,-0.545889
1630411814139,-0.48251,0.667584,-0.546682
1630411814149,-0.48257099999999997,0.667096,-0.546743
1630411814158,-0.4819,0.666852,-0.547048
1630411814168,-0.481778,0.667462,-0.547292
1630411814178,-0.481961,0.668072,-0.546926
1630411814187,-0.48251,0.667462,-0.546987
1630411814197,-0.483059,0.667767,-0.546438
1630411814206,-0.482754,0.6673399999999999,-0.547231
1630411814216,-0.482205,0.666669,-0.5459499999999999
1630411814226,-0.4819,0.6670349999999999,-0.546804
1630411814235,-0.48251,0.666303,-0.547292
1630411814245,-0.48257099999999997,0.6673399999999999,-0.546987
1630411814254,-0.482266,0.666486,-0.546438
1630411814264,-0.481839,0.666791,-0.5462549999999999
1630411814274,-0.48061899999999996,0.6670349999999999,-0.5465599999999999
1630411814283,-0.480863,0.666242,-0.546133
1630411814293,-0.48061899999999996,0.665266,-0.544974
1630411814302,-0.48092399999999996,0.665144,-0.544974
1630411814312,-0.48061899999999996,0.665693,-0.5450349999999999
1630411814322,-0.481107,0.664046,-0.544913
1630411814331,-0.481595,0.664168,-0.545706
1630411814341,-0.482022,0.665693,-0.546133
1630411814350,-0.482388,0.664778,-0.547048
1630411814360,-0.481961,0.665144,-0.546621
1630411814370,-0.481778,0.664778,-0.546682
1630411814379,-0.481351,0.6645949999999999,-0.547231
1630411814389,-0.481778,0.664839,-0.548451
1630411814398,-0.481595,0.665998,-0.548756
1630411814408,-0.48129,0.664107,-0.549671
1630411814418,-0.482022,0.663131,-0.54961
1630411814427,-0.481961,0.664351,-0.549427
1630411814437,-0.482205,0.6639849999999999,-0.548878
1630411814446,-0.480802,0.662582,-0.547292
1630411814456,-0.482388,0.6642899999999999,-0.547536
1630411814466,-0.481778,0.665876,-0.549915
1630411814475,-0.480192,0.6652049999999999,-0.551013
1630411814485,-0.481046,0.663436,-0.550708
1630411814494,-0.482266,0.663741,-0.549549
1630411814504,-0.481412,0.665144,-0.548756
1630411814514,-0.481717,0.662399,-0.5477799999999999
1630411814523,-0.482022,0.665022,-0.549976
1630411814533,-0.48470599999999997,0.668621,-0.550159
1630411814542,-0.485072,0.6694749999999999,-0.550464
1630411814552,-0.482632,0.667828,-0.55144
1630411814562,-0.481717,0.666059,-0.552233
1630411814571,-0.482083,0.663802,-0.551318
1630411814581,-0.481534,0.6627649999999999,-0.550586
1630411814590,-0.482205,0.662033,-0.550159
1630411814600,-0.481534,0.662338,-0.549915
1630411814610,-0.482266,0.664473,-0.549366
1630411814619,-0.48129,0.665266,-0.550647
1630411814629,-0.48129,0.666364,-0.550952
1630411814638,-0.48129,0.665876,-0.550647
1630411814648,-0.480253,0.6645949999999999,-0.549671
1630411814658,-0.48000899999999996,0.663497,-0.549061
1630411814667,-0.480253,0.664473,-0.548634
1630411814677,-0.480375,0.663924,-0.5483899999999999
1630411814686,-0.479765,0.664107,-0.547109
1630411814696,-0.479948,0.664778,-0.546926
1630411814706,-0.48000899999999996,0.664107,-0.547536
1630411814715,-0.479826,0.664412,-0.546682
1630411814725,-0.480375,0.665083,-0.546499
1630411814734,-0.479521,0.665571,-0.545828
1630411814744,-0.480436,0.665998,-0.546438
1630411814754,-0.479277,0.666486,-0.546743
1630411814763,-0.478972,0.665571,-0.546072
1630411814773,-0.480802,0.6645949999999999,-0.544242
1630411814782,-0.48287599999999997,0.664656,-0.5435099999999999
1630411814792,-0.48251,0.6655099999999999,-0.543754
1630411814802,-0.482388,0.669048,-0.545767
1630411814811,-0.482388,0.67039,-0.546011
1630411814821,-0.481778,0.669841,-0.546316
1630411814830,-0.48312,0.6676449999999999,-0.545279
1630411814840,-0.482144,0.666913,-0.545584
1630411814850,-0.48251,0.6667299999999999,-0.546011
1630411814859,-0.482388,0.666669,-0.546072
1630411814869,-0.481534,0.666913,-0.546499
1630411814878,-0.482693,0.667584,-0.546011
1630411814888,-0.482266,0.668072,-0.547048
1630411814898,-0.4819,0.668133,-0.547231
1630411814907,-0.481717,0.667279,-0.5471699999999999
1630411814917,-0.48092399999999996,0.666547,-0.547048
1630411814926,-0.480497,0.667096,-0.548268
1630411814936,-0.480802,0.666791,-0.547536
1630411814946,-0.481046,0.667157,-0.547536
1630411814955,-0.48007,0.666608,-0.548146
1630411814965,-0.479948,0.666486,-0.548817
1630411814974,-0.479521,0.665693,-0.549549
1630411814984,-0.479521,0.665571,-0.549
1630411814994,-0.479765,0.664717,-0.54961
1630411815003,-0.48000899999999996,0.664717,-0.5483899999999999
1630411815013,-0.479277,0.665022,-0.548817
1630411815022,-0.478606,0.664717,-0.547902
1630411815032,-0.478911,0.664656,-0.549
1630411815042,-0.47970399999999996,0.6652049999999999,-0.548878
1630411815051,-0.47946,0.665022,-0.548878
1630411815061,-0.478606,0.664961,-0.547414
1630411815070,-0.47848399999999996,0.663802,-0.548451
1630411815080,-0.479338,0.663924,-0.5483899999999999
1630411815090,-0.478667,0.662948,-0.550159
1630411815099,-0.478667,0.663802,-0.550586
1630411815109,-0.477813,0.664168,-0.551318
1630411815118,-0.47848399999999996,0.664778,-0.551928
1630411815128,-0.477508,0.663558,-0.552843
1630411815138,-0.477752,0.6645949999999999,-0.553026
1630411815147,-0.476898,0.663863,-0.554124
1630411815157,-0.477813,0.6630699999999999,-0.554612
1630411815166,-0.47702,0.662948,-0.554673
1630411815176,-0.476776,0.6630699999999999,-0.553697
1630411815186,-0.47665399999999997,0.664351,-0.554246
1630411815195,-0.476776,0.6642899999999999,-0.55632
1630411815205,-0.475556,0.663558,-0.556442
1630411815214,-0.474946,0.6630699999999999,-0.556808
1630411815224,-0.476288,0.662887,-0.556564
1630411815234,-0.475251,0.662216,-0.556137
1630411815243,-0.476105,0.661911,-0.556198
1630411815253,-0.477386,0.664046,-0.557479
1630411815262,-0.478423,0.666852,-0.558089
1630411815272,-0.477935,0.667523,-0.558455
1630411815282,-0.47702,0.667218,-0.558882
1630411815291,-0.476288,0.6658149999999999,-0.559614
1630411815301,-0.47604399999999997,0.6645949999999999,-0.559858
1630411815310,-0.477325,0.6630699999999999,-0.558516
1630411815320,-0.47665399999999997,0.661118,-0.55693
1630411815330,-0.476288,0.662521,-0.556381
1630411815339,-0.47543399999999997,0.662887,-0.556564
1630411815349,-0.475617,0.664351,-0.55754
1630411815358,-0.4758,0.667096,-0.556869
1630411815368,-0.474946,0.666852,-0.55693
1630411815378,-0.475983,0.665693,-0.555161
1630411815387,-0.475861,0.665022,-0.554185
1630411815397,-0.47360399999999997,0.664778,-0.552599
1630411815406,-0.47458,0.663924,-0.552294
1630411815416,-0.473482,0.664107,-0.551684
1630411815426,-0.474092,0.665876,-0.551257
1630411815435,-0.474336,0.6658149999999999,-0.551196
1630411815445,-0.473055,0.6658149999999999,-0.550891
1630411815454,-0.47390899999999997,0.667218,-0.550647
1630411815464,-0.473848,0.666608,-0.550403
1630411815474,-0.472933,0.666974,-0.55022
1630411815483,-0.473421,0.666852,-0.550098
1630411815493,-0.472567,0.666547,-0.549427
1630411815502,-0.473482,0.665083,-0.5477799999999999
1630411815512,-0.47482399999999997,0.666608,-0.547719
1630411815522,-0.47665399999999997,0.666059,-0.5465599999999999
1630411815531,-0.475678,0.668438,-0.5465599999999999
1630411815541,-0.47512899999999997,0.670207,-0.548146
1630411815550,-0.474885,0.671549,-0.548268
1630411815560,-0.475983,0.670878,-0.549061
1630411815570,-0.476898,0.670207,-0.5480849999999999
1630411815579,-0.476776,0.669109,-0.547597
1630411815589,-0.47756899999999997,0.667889,-0.5477799999999999
1630411815598,-0.477142,0.667889,-0.547719
1630411815608,-0.476837,0.6685599999999999,-0.5474749999999999
1630411815618,-0.477813,0.668133,-0.547902
1630411815627,-0.477081,0.667523,-0.548329
1630411815637,-0.476898,0.6679499999999999,-0.547963
1630411815646,-0.477813,0.668926,-0.547292
1630411815656,-0.477752,0.6691699999999999,-0.548024
1630411815666,-0.47787399999999997,0.669414,-0.547597
1630411815675,-0.478057,0.668987,-0.548268
1630411815685,-0.47824,0.668194,-0.547414
1630411815694,-0.478118,0.667584,-0.546743
1630411815704,-0.47787399999999997,0.667218,-0.546377
1630411815714,-0.478728,0.666669,-0.545889
1630411815723,-0.479155,0.668377,-0.545828
1630411815733,-0.478606,0.667279,-0.545706
1630411815742,-0.479033,0.666913,-0.545523
1630411815752,-0.479033,0.667279,-0.546621
1630411815762,-0.47885,0.667096,-0.545767
1630411815771,-0.479521,0.667279,-0.545828
1630411815781,-0.479338,0.667218,-0.545828
1630411815790,-0.480192,0.6667299999999999,-0.545462
1630411815800,-0.481046,0.667279,-0.546133
1630411815810,-0.48007,0.665998,-0.547048
1630411815819,-0.480863,0.665876,-0.547963
1630411815829,-0.48007,0.665754,-0.5474749999999999
1630411815838,-0.480131,0.665571,-0.5480849999999999
1630411815848,-0.479643,0.664778,-0.548939
1630411815858,-0.479826,0.664656,-0.548573
1630411815867,-0.478911,0.6636799999999999,-0.549305
1630411815877,-0.479582,0.664839,-0.550464
1630411815886,-0.47946,0.665388,-0.549854
1630411815896,-0.480497,0.664412,-0.550769
1630411815906,-0.479582,0.664656,-0.550525
1630411815915,-0.480497,0.664046,-0.551806
1630411815925,-0.480436,0.663741,-0.55144
1630411815934,-0.48007,0.6636799999999999,-0.550952
1630411815944,-0.479826,0.663619,-0.551135
1630411815954,-0.480558,0.664778,-0.551562
1630411815963,-0.479948,0.664961,-0.553636
1630411815973,-0.47939899999999996,0.663009,-0.554185
1630411815982,-0.48000899999999996,0.6630699999999999,-0.553636
1630411815992,-0.480253,0.664168,-0.552843
1630411816002,-0.48031399999999996,0.662643,-0.551074
1630411816011,-0.480558,0.661728,-0.550586
1630411816021,-0.482266,0.663619,-0.551806
1630411816030,-0.482632,0.665632,-0.552843
1630411816040,-0.481717,0.667279,-0.554673
1630411816050,-0.48068,0.666547,-0.554246
1630411816059,-0.479887,0.664839,-0.553026
1630411816069,-0.48007,0.664046,-0.551318
1630411816078,-0.48068,0.662704,-0.550525
1630411816088,-0.480802,0.662521,-0.549366
1630411816098,-0.48007,0.663558,-0.548817
1630411816107,-0.480375,0.664229,-0.549976
1630411816117,-0.47878899999999996,0.6652049999999999,-0.550525
1630411816126,-0.47763,0.6661199999999999,-0.552233
1630411816136,-0.47787399999999997,0.665571,-0.551684
1630411816146,-0.477996,0.664168,-0.550586
1630411816155,-0.47824,0.663131,-0.55144
1630411816165,-0.477691,0.663436,-0.551501
1630411816174,-0.477996,0.664168,-0.550891
1630411816184,-0.47885,0.664168,-0.550586
1630411816194,-0.477996,0.6648999999999999,-0.551196
1630411816203,-0.47824,0.664473,-0.551257
1630411816213,-0.477996,0.664534,-0.550769
1630411816222,-0.47787399999999997,0.6642899999999999,-0.550708
1630411816232,-0.47824,0.665571,-0.55022
1630411816242,-0.478911,0.666486,-0.550769
1630411816251,-0.47946,0.6673399999999999,-0.549488
1630411816261,-0.478667,0.667157,-0.548329
1630411816270,-0.47787399999999997,0.664839,-0.546743
1630411816280,-0.478728,0.665632,-0.5453399999999999
1630411816290,-0.480802,0.6655099999999999,-0.543022
1630411816299,-0.480497,0.667279,-0.5425949999999999
1630411816309,-0.479643,0.6676449999999999,-0.545096
1630411816318,-0.480375,0.668804,-0.546194
1630411816328,-0.481473,0.668987,-0.547292
1630411816338,-0.48061899999999996,0.6691699999999999,-0.547658
1630411816347,-0.480985,0.667523,-0.547597
1630411816357,-0.481534,0.666486,-0.547658
1630411816366,-0.48092399999999996,0.666913,-0.547658
1630411816376,-0.481168,0.6667299999999999,-0.547414
1630411816386,-0.480558,0.667584,-0.547719
1630411816395,-0.480497,0.6670349999999999,-0.546926
1630411816405,-0.480558,0.6673399999999999,-0.548817
1630411816414,-0.480436,0.6679499999999999,-0.549305
1630411816424,-0.480558,0.667767,-0.5483899999999999
1630411816434,-0.48031399999999996,0.668377,-0.548451
1630411816443,-0.479582,0.668133,-0.547353
1630411816453,-0.479826,0.666608,-0.547536
1630411816462,-0.479643,0.666974,-0.547658
1630411816472,-0.479887,0.665876,-0.546316
1630411816482,-0.479948,0.666303,-0.546194
1630411816491,-0.48031399999999996,0.666181,-0.546438
1630411816501,-0.479216,0.665327,-0.546804
1630411816510,-0.47878899999999996,0.6655099999999999,-0.547414
1630411816520,-0.479826,0.665937,-0.548634
1630411816530,-0.479338,0.6661199999999999,-0.5480849999999999
1630411816539,-0.479582,0.665937,-0.548695
1630411816549,-0.479826,0.6658149999999999,-0.548634
1630411816558,-0.479643,0.6661199999999999,-0.547902
1630411816568,-0.47970399999999996,0.665266,-0.548146
1630411816578,-0.479155,0.665449,-0.547719
1630411816587,-0.47909399999999996,0.664961,-0.548573
1630411816597,-0.47946,0.665327,-0.549732
1630411816606,-0.479033,0.664107,-0.549427
1630411816616,-0.479216,0.664107,-0.549793
1630411816626,-0.478728,0.664412,-0.549
1630411816635,-0.47878899999999996,0.6645949999999999,-0.549244
1630411816645,-0.478911,0.6642899999999999,-0.549732
1630411816654,-0.47885,0.664351,-0.550464
1630411816664,-0.478423,0.664046,-0.551501
1630411816674,-0.478667,0.6655099999999999,-0.552355
1630411816683,-0.47824,0.665632,-0.553148
1630411816693,-0.479338,0.6648999999999999,-0.55388
1630411816702,-0.477691,0.663314,-0.553941
1630411816712,-0.478057,0.663558,-0.553087
1630411816722,-0.47763,0.663497,-0.552904
1630411816731,-0.479033,0.664961,-0.552965
1630411816741,-0.47939899999999996,0.664351,-0.553148
1630411816750,-0.478362,0.6645949999999999,-0.553941
1630411816760,-0.47763,0.663436,-0.553697
1630411816770,-0.47817899999999997,0.664046,-0.552416
1630411816779,-0.47756899999999997,0.663436,-0.551074
1630411816789,-0.478667,0.6618499999999999,-0.550098
1630411816798,-0.479338,0.663009,-0.550891
1630411816808,-0.480741,0.665083,-0.551989
1630411816818,-0.479948,0.667706,-0.551684
1630411816827,-0.479216,0.668682,-0.553087
1630411816837,-0.478728,0.6676449999999999,-0.552843
1630411816846,-0.478118,0.665083,-0.551928
1630411816856,-0.47787399999999997,0.663802,-0.551196
1630411816866,-0.478606,0.663741,-0.549976
1630411816875,-0.47878899999999996,0.663314,-0.55022
1630411816885,-0.47848399999999996,0.6639849999999999,-0.549793
1630411816894,-0.478606,0.665388,-0.550098
1630411816904,-0.477752,0.6673399999999999,-0.551074
1630411816914,-0.477081,0.665998,-0.551501
1630411816923,-0.476898,0.665388,-0.551257
1630411816933,-0.478118,0.664351,-0.550464
1630411816942,-0.477508,0.664046,-0.548695
1630411816952,-0.477386,0.664412,-0.550464
1630411816962,-0.476288,0.664534,-0.550037
1630411816971,-0.477386,0.664778,-0.549671
1630411816981,-0.476776,0.6645949999999999,-0.550647
1630411816990,-0.47702,0.664778,-0.550281
1630411817000,-0.476837,0.665083,-0.549854
1630411817010,-0.478118,0.665754,-0.549732
1630411817019,-0.479033,0.667401,-0.549549
1630411817029,-0.479216,0.6673399999999999,-0.550098
1630411817038,-0.47946,0.667523,-0.549915
1630411817048,-0.478301,0.664473,-0.549
1630411817058,-0.47939899999999996,0.6639849999999999,-0.546438
1630411817067,-0.480131,0.6655099999999999,-0.545462
1630411817077,-0.482144,0.666669,-0.545218
1630411817086,-0.48068,0.669109,-0.546987
1630411817096,-0.480436,0.669292,-0.5483899999999999
1630411817106,-0.479948,0.668011,-0.5483899999999999
1630411817115,-0.48122899999999996,0.667584,-0.549244
1630411817125,-0.480558,0.666364,-0.548146
1630411817134,-0.48031399999999996,0.665022,-0.547536
1630411817144,-0.480192,0.6664249999999999,-0.548146
1630411817154,-0.480497,0.666974,-0.549
1630411817163,-0.480131,0.666974,-0.549793
1630411817173,-0.479765,0.6667299999999999,-0.549671
1630411817182,-0.479948,0.665876,-0.549976
1630411817192,-0.479948,0.666242,-0.549244
1630411817202,-0.480192,0.6664249999999999,-0.549793
1630411817211,-0.480192,0.6670349999999999,-0.550891
1630411817221,-0.47970399999999996,0.666486,-0.550464
1630411817230,-0.479643,0.6667299999999999,-0.55022
