timestamp,ax,ay,az
1630412019440,0.022448,0.941962,-0.359595
1630412019450,0.023546,0.94306,-0.357033
1630412019460,0.026962,0.945622,-0.355081
1630412019469,0.029219,0.947635,-0.353983
1630412019479,0.028426,0.9478179999999999,-0.353556
1630412019488,0.028059999999999998,0.947269,-0.352275
1630412019498,0.027206,0.946659,-0.351726
1630412019508,0.026352,0.9453779999999999,-0.351543
1630412019517,0.025193,0.9462929999999999,-0.353922
1630412019527,0.025376,0.946476,-0.355752
1630412019536,0.02562,0.947086,-0.35678899999999997
1630412019546,0.025376,0.948672,-0.359656
1630412019556,0.025193,0.94855,-0.361242
1630412019565,0.025315,0.947879,-0.360327
1630412019575,0.027206,0.948672,-0.358192
1630412019584,0.026657,0.946354,-0.35617899999999997
1630412019594,0.026474,0.944646,-0.355813
1630412019604,0.024949,0.9426329999999999,-0.356118
1630412019613,0.024644,0.942206,-0.356667
1630412019623,0.023119,0.940681,-0.35868
1630412019632,0.023058,0.940254,-0.359107
1630412019642,0.021655,0.940376,-0.359168
1630412019652,0.021471999999999998,0.942511,-0.356301
1630412019661,0.022265,0.94367,-0.35404399999999997
1630412019671,0.022631,0.946537,-0.354227
1630412019680,0.024156,0.9496479999999999,-0.355691
1630412019690,0.025436999999999998,0.949892,-0.35648399999999997
1630412019700,0.024217,0.94794,-0.352885
1630412019709,0.022326,0.9475129999999999,-0.348798
1630412019719,0.023912,0.947696,-0.34831
1630412019728,0.023363,0.946842,-0.348188
1630412019738,0.022997,0.945744,-0.348798
1630411793130,-0.14396,0.842044,-0.53436
1630411793139,-0.143228,0.841495,-0.532835
1630411793149,-0.144326,0.841312,-0.533323
1630411793158,-0.144021,0.840397,-0.533323
1630411793168,-0.144692,0.839787,-0.534543
1630411793178,-0.143594,0.841312,-0.534055
1630411793187,-0.144143,0.842532,-0.534482
1630411793197,-0.144265,0.843081,-0.53375
1630411793206,-0.143655,0.843935,-0.534299
1630411793216,-0.143777,0.84363,-0.53436
1630411793226,-0.14457,0.844362,-0.533628
1630411793235,-0.145607,0.843386,-0.533201
1630411793245,-0.144448,0.843386,-0.533201
1630411793254,-0.145546,0.842288,-0.533323
1630411793264,-0.146034,0.842471,-0.534299
1630411793274,-0.145058,0.841129,-0.534421
1630411793283,-0.144631,0.8418,-0.534238
1630411793293,-0.1464,0.842044,-0.532896
1630411793302,-0.14621699999999999,0.842227,-0.531981
1630411793312,-0.145607,0.842593,-0.533689
1630411793322,-0.144692,0.843447,-0.53314
1630411793331,-0.144631,0.843569,-0.532225
1630411793341,-0.144204,0.843752,-0.53131
1630411793350,-0.143838,0.841739,-0.5307
1630411793360,-0.144509,0.842166,-0.529907
1630411793370,-0.144936,0.841678,-0.530639
1630411793379,-0.145302,0.841556,-0.531554
1630411793389,-0.145119,0.841739,-0.531676
1630411793398,-0.14457,0.843508,-0.531737
1630411793408,-0.144143,0.844362,-0.531066
1630411793418,-0.145119,0.844545,-0.531249
1630411793427,-0.144509,0.844728,-0.53009
1630411793437,-0.145058,0.845582,-0.529663
1630411793446,-0.144936,0.845765,-0.528992
1630411793456,-0.145241,0.845094,-0.52826
1630411793466,-0.144753,0.845399,-0.529053
1630411793475,-0.14457,0.846253,-0.530151
1630411793485,-0.144814,0.846619,-0.530273
1630411793494,-0.145485,0.845765,-0.530761
1630411793504,-0.146156,0.845887,-0.530822
1630411793514,-0.14682699999999999,0.845643,-0.529114
1630411793523,-0.146705,0.845155,-0.528931
1630411793533,-0.145241,0.845033,-0.528809
1630411793542,-0.145729,0.845704,-0.529602
1630411793552,-0.145851,0.844606,-0.530639
1630411793562,-0.146034,0.842532,-0.529785
1630411793571,-0.146888,0.843386,-0.532042
1630411793581,-0.145851,0.845033,-0.532957
1630411793590,-0.14682699999999999,0.844301,-0.530944
1630411793600,-0.147864,0.844057,-0.528077
1630411793610,-0.146583,0.845094,-0.527955
1630411793619,-0.144509,0.846558,-0.528077
1630411793629,-0.144143,0.846741,-0.528931
1630411793638,-0.14396,0.847229,-0.528199
1630411793648,-0.14518,0.846741,-0.528077
1630411793658,-0.146339,0.846375,-0.529175
1630411793667,-0.145973,0.846619,-0.528687
1630411793677,-0.145912,0.845033,-0.527894
1630411793686,-0.145607,0.845826,-0.526857
1630411793696,-0.145485,0.845338,-0.527223
1630411793706,-0.145485,0.84424,-0.527772
1630411793715,-0.144875,0.84546,-0.529846
1630411793725,-0.144875,0.845277,-0.530212
1630411793734,-0.145607,0.844789,-0.52948
1630411793744,-0.146705,0.845216,-0.52887
1630411793754,-0.14621699999999999,0.845094,-0.527955
1630411793763,-0.145729,0.846253,-0.526552
1630411793773,-0.146278,0.846375,-0.527223
1630411793782,-0.146766,0.845338,-0.528443
1630411793792,-0.146095,0.845765,-0.528443
1630411793802,-0.14701,0.845765,-0.529419
1630411793811,-0.146888,0.846314,-0.528931
1630411793821,-0.146583,0.84607,-0.528504
1630411793830,-0.146583,0.84424,-0.527772
1630411793840,-0.14823,0.843264,-0.530212
1630411793850,-0.146705,0.844362,-0.532408
1630411793859,-0.146766,0.843996,-0.533262
1630411793869,-0.149328,0.842959,-0.529053
1630411793878,-0.14884,0.84302,-0.527833
1630411793888,-0.147925,0.843752,-0.529053
1630411793898,-0.14762,0.845033,-0.531554
1630411793907,-0.146644,0.845033,-0.532591
1630411793917,-0.14682699999999999,0.844728,-0.532774
1630411793926,-0.14652199999999999,0.84424,-0.531859
1630411793936,-0.146766,0.844423,-0.530639
1630411793946,-0.147193,0.843325,-0.531493
1630411793955,-0.147071,0.842288,-0.531066
1630411793965,-0.146888,0.842898,-0.5307
1630411793974,-0.146095,0.842776,-0.530761
1630411793984,-0.146888,0.843386,-0.53131
1630411793994,-0.145363,0.843996,-0.530639
1630411794003,-0.145302,0.843996,-0.52948
1630411794013,-0.144936,0.844911,-0.529602
1630411794022,-0.145973,0.845094,-0.530639
1630411794032,-0.146156,0.845521,-0.529602
1630411794042,-0.1464,0.84546,-0.530578
1630411794051,-0.146766,0.8461919999999999,-0.531005
1630411794061,-0.14701,0.845521,-0.530639
1630411794070,-0.147803,0.843996,-0.530395
1630411794080,-0.147559,0.844118,-0.530517
1630411794090,-0.146583,0.843569,-0.530456
1630411794099,-0.147498,0.843691,-0.528809
1630411794109,-0.14762,0.842959,-0.529419
1630411794118,-0.147315,0.843752,-0.528931
1630411794128,-0.14701,0.843325,-0.529419
1630411794138,-0.14652199999999999,0.843752,-0.529358
1630411794147,-0.146705,0.843264,-0.530029
1630411794157,-0.14701,0.843081,-0.529907
1630411794166,-0.14621699999999999,0.842898,-0.529541
1630411794176,-0.146278,0.84302,-0.529541
1630411794186,-0.145607,0.842654,-0.529114
1630411794195,-0.145973,0.843203,-0.52826
1630411794205,-0.14579,0.84241,-0.52765
1630411794214,-0.145851,0.842105,-0.528199
1630411794224,-0.144814,0.842715,-0.527772
1630411794234,-0.143594,0.844179,-0.526186
1630411794243,-0.143533,0.845094,-0.526247
1630411794253,-0.14396,0.8464969999999999,-0.526064
1630411794262,-0.144021,0.848266,-0.525637
1630411794272,-0.14274,0.84912,-0.525759
1630411794282,-0.142313,0.850645,-0.526552
1630411794291,-0.14213,0.850706,-0.527284
1630411794301,-0.142923,0.851499,-0.52643
1630411794310,-0.14280099999999998,0.850523,-0.526796
1630411794320,-0.143838,0.8501569999999999,-0.526308
1630411794330,-0.144204,0.849303,-0.52521
1630411794339,-0.144387,0.848876,-0.525393
1630411794349,-0.14335,0.849669,-0.52521
1630411794358,-0.142008,0.850218,-0.52643
1630411794368,-0.14219099999999998,0.850096,-0.527162
1630411794378,-0.142252,0.847778,-0.527589
1630411794387,-0.143899,0.846558,-0.527528
1630411794397,-0.143777,0.848388,-0.528626
1630411794406,-0.145058,0.847839,-0.530273
1630411794416,-0.14518,0.846009,-0.52704
1630411794426,-0.145668,0.845643,-0.523502
1630411794435,-0.144204,0.846863,-0.524905
1630411794445,-0.142069,0.8486319999999999,-0.52643
1630411794454,-0.14158099999999998,0.849486,-0.528016
1630411794464,-0.14091,0.8483269999999999,-0.527833
1630411794474,-0.142557,0.84851,-0.527345
1630411794483,-0.142557,0.8480219999999999,-0.526308
1630411794493,-0.143472,0.8474119999999999,-0.525759
1630411794502,-0.14310599999999998,0.848449,-0.524722
1630411794512,-0.143411,0.847595,-0.52399
1630411794522,-0.144326,0.847046,-0.52521
1630411794531,-0.143838,0.846436,-0.526918
1630411794541,-0.144082,0.8471069999999999,-0.527711
1630411794550,-0.14396,0.84607,-0.527528
1630411794560,-0.145363,0.845948,-0.527101
1630411794570,-0.145424,0.84607,-0.527467
1630411794579,-0.1464,0.846436,-0.527284
1630411794589,-0.1464,0.8461919999999999,-0.527406
1630411794598,-0.14652199999999999,0.845948,-0.527711
1630411794608,-0.146644,0.845704,-0.528321
1630411794618,-0.147376,0.844728,-0.52887
1630411794627,-0.147498,0.844972,-0.528748
1630411794637,-0.147803,0.843447,-0.526857
1630411794646,-0.148474,0.842227,-0.527711
1630411794656,-0.149511,0.842593,-0.530334
1630411794666,-0.149023,0.843874,-0.533384
1630411794675,-0.148718,0.843752,-0.532286
1630411794685,-0.149633,0.843142,-0.529053
1630411794694,-0.149938,0.843081,-0.528016
1630411794704,-0.149755,0.844911,-0.529114
1630411794714,-0.149084,0.844789,-0.530761
1630411794723,-0.14835199999999998,0.844972,-0.532042
1630411794733,-0.14835199999999998,0.843935,-0.532042
1630411794742,-0.148413,0.843813,-0.531676
1630411794752,-0.149877,0.843203,-0.532164
1630411794762,-0.15067,0.842288,-0.531615
1630411794771,-0.15067,0.843325,-0.530517
1630411794781,-0.149694,0.843874,-0.53131
1630411794790,-0.148596,0.844423,-0.531066
1630411794800,-0.14865699999999998,0.844606,-0.5307
1630411794810,-0.14865699999999998,0.844545,-0.53131
1630411794819,-0.149145,0.844484,-0.531188
1630411794829,-0.148779,0.843386,-0.530456
1630411794838,-0.149755,0.843813,-0.531066
1630411794848,-0.149633,0.842532,-0.5307
1630411794858,-0.150304,0.842471,-0.531676
1630411794867,-0.151158,0.8418,-0.531737
1630411794877,-0.150548,0.841983,-0.531554
1630411794886,-0.15128,0.842166,-0.531554
1630411794896,-0.151402,0.841678,-0.531981
1630411794906,-0.151585,0.84119,-0.531371
1630411794915,-0.150609,0.841678,-0.531859
1630411794925,-0.150365,0.841861,-0.531005
1630411794934,-0.150487,0.841678,-0.530029
1630411794944,-0.149999,0.841556,-0.530334
1630411794954,-0.15067,0.841251,-0.530761
1630411794963,-0.150731,0.840397,-0.530578
1630411794973,-0.151036,0.8398479999999999,-0.530822
1630411794982,-0.150304,0.840519,-0.530273
1630411794992,-0.150182,0.8418,-0.529358
1630411795002,-0.149511,0.841739,-0.528992
1630411795011,-0.14926699999999998,0.842288,-0.529236
1630411795021,-0.148596,0.842044,-0.530029
1630411795030,-0.148779,0.841983,-0.529785
1630411795040,-0.149328,0.841922,-0.529358
1630411795050,-0.149206,0.843996,-0.528321
1630411795059,-0.148474,0.845948,-0.529114
1630411795069,-0.148474,0.8464969999999999,-0.528504
1630411795078,-0.14884,0.845765,-0.528931
1630411795088,-0.149511,0.844545,-0.528931
1630411795098,-0.149877,0.842288,-0.529846
1630411795107,-0.151951,0.843203,-0.529968
1630411795117,-0.152256,0.843691,-0.529236
1630411795126,-0.153049,0.844606,-0.526979
1630411795136,-0.152256,0.846741,-0.528382
1630411795146,-0.153232,0.847656,-0.528016
1630411795155,-0.15420799999999998,0.84729,-0.527711
1630411795165,-0.155428,0.8486319999999999,-0.528992
1630411795174,-0.156892,0.846924,-0.529175
1630411795184,-0.15738,0.8480219999999999,-0.52948
1630411795194,-0.15677,0.849364,-0.536007
1630411795203,-0.154696,0.849181,-0.531371
1630411795213,-0.15677,0.8486319999999999,-0.52521
1630411795222,-0.158661,0.8495469999999999,-0.525271
1630411795232,-0.159576,0.848205,-0.522587
1630411795242,-0.160003,0.848998,-0.5225259999999999
1630411795251,-0.16097899999999998,0.8479,-0.524356
1630411795261,-0.161894,0.844606,-0.522892
1630411795270,-0.163846,0.841983,-0.520818
1630411795280,-0.16287,0.84241,-0.521794
1630411795290,-0.162321,0.842837,-0.52277
1630411795299,-0.160491,0.844301,-0.524966
1630411795309,-0.161406,0.842044,-0.527162
1630411795318,-0.164578,0.84119,-0.528992
1630411795328,-0.166591,0.841556,-0.532408
1630411795338,-0.165737,0.842166,-0.534665
1630411795347,-0.166774,0.840946,-0.535885
1630411795357,-0.167506,0.838506,-0.537166
1630411795366,-0.166896,0.837042,-0.538874
1630411795376,-0.167018,0.8364929999999999,-0.539179
1630411795386,-0.166469,0.832772,-0.539057
1630411795395,-0.16591999999999998,0.829234,-0.540643
1630411795405,-0.16652999999999998,0.825696,-0.543144
1630411795414,-0.166286,0.824354,-0.546926
1630411795424,-0.166286,0.823866,-0.550281
1630411795434,-0.166957,0.822707,-0.554429
1630411795443,-0.16958,0.820694,-0.556564
1630411795453,-0.171288,0.817644,-0.556808
1630411795462,-0.171532,0.816302,-0.558577
1630411795472,-0.171837,0.814533,-0.559736
1630411795482,-0.17269099999999998,0.8121539999999999,-0.559858
1630411795491,-0.174887,0.810568,-0.561505
1630411795501,-0.177144,0.808128,-0.5669339999999999
1630411795510,-0.177998,0.81069,-0.571936
1630411795520,-0.175741,0.813008,-0.579073
1630411795530,-0.177266,0.81008,-0.580354
1630411795539,-0.177815,0.808311,-0.58194
1630411795549,-0.176168,0.8069689999999999,-0.583526
1630411795558,-0.172325,0.810202,-0.587064
1630411795568,-0.167689,0.811605,-0.590541
1630411795578,-0.165737,0.81008,-0.5903579999999999
1630411795587,-0.167262,0.808982,-0.5903579999999999
1630411795597,-0.169763,0.80642,-0.5918829999999999
1630411795606,-0.172203,0.80337,-0.589016
1630411795616,-0.17141,0.801967,-0.59109
1630411795626,-0.16958,0.8017839999999999,-0.598654
1630411795635,-0.166896,0.802943,-0.606096
1630411795645,-0.165493,0.80276,-0.610976
1630411795654,-0.16530999999999998,0.800747,-0.612501
1630411795664,-0.164883,0.794769,-0.6101219999999999
1630411795674,-0.165798,0.789157,-0.607072
1630411795683,-0.164761,0.786412,-0.60817
1630411795693,-0.16469999999999999,0.785619,-0.614026
1630411795702,-0.163846,0.7847649999999999,-0.622566
1630411795712,-0.161711,0.782996,-0.629703
1630411795722,-0.159637,0.780007,-0.6365959999999999
1630411795731,-0.15359799999999998,0.777933,-0.636962
1630411795741,-0.14762,0.772626,-0.6332409999999999
1630411795750,-0.144814,0.762012,-0.62464
1630411795760,-0.146766,0.749141,-0.618296
1630411795770,-0.14579,0.742065,-0.61915
1630411795779,-0.138531,0.741028,-0.622627
1630411795789,-0.128222,0.744505,-0.632875
1630411795798,-0.115656,0.749873,-0.649162
1630411795808,-0.110166,0.7543259999999999,-0.6624599999999999
1630411795818,-0.10900699999999999,0.757742,-0.676368
1630411795827,-0.102236,0.76006,-0.687775
1630411795837,-0.102602,0.762622,-0.6938139999999999
1630411795846,-0.10022299999999999,0.7555459999999999,-0.697962
1630411795856,-0.106628,0.743956,-0.698938
1630411795866,-0.106201,0.7345619999999999,-0.697779
1630411795875,-0.10797,0.726205,-0.695156
1630411795885,-0.10638399999999999,0.721203,-0.6858839999999999
1630411795894,-0.105896,0.715957,-0.682712
1630411795904,-0.106262,0.713761,-0.68137
1630411795914,-0.10284599999999999,0.7160179999999999,-0.6803939999999999
1630411795923,-0.09851499999999999,0.715652,-0.676673
1630411795933,-0.09333,0.7154079999999999,-0.67222
1630411795942,-0.086681,0.718397,-0.672342
1630411795952,-0.081862,0.720654,-0.675392
1630411795962,-0.073993,0.718702,-0.678747
1630411795971,-0.069967,0.7160179999999999,-0.680821
1630411795981,-0.066612,0.7135779999999999,-0.685518
1630411795990,-0.066795,0.71248,-0.692777
1630411796000,-0.064294,0.714981,-0.696437
1630411796010,-0.058804,0.7184579999999999,-0.701134
1630411796019,-0.057523,0.72346,-0.704062
1630411796029,-0.054107,0.724985,-0.699243
1630411796038,-0.052094,0.721386,-0.690886
1630411796048,-0.052704,0.71797,-0.6864939999999999
1630411796058,-0.050203,0.714981,-0.686067
1630411796067,-0.048922,0.708027,-0.685152
1630411796077,-0.045506,0.701683,-0.6840539999999999
1630411796086,-0.039589,0.696376,-0.6806989999999999
1630411796096,-0.036478,0.694912,-0.671427
1630411796106,-0.038003,0.706807,-0.666974
1630411796115,-0.042822,0.7296819999999999,-0.677527
1630411796125,-0.043981,0.754875,-0.683688
1630411796134,-0.042883,0.765367,-0.675087
1630411796144,-0.045018,0.76921,-0.661911
1630411796154,-0.051911,0.773602,-0.652944
1630411796163,-0.065148,0.781776,-0.654164
1630411796173,-0.083021,0.793183,-0.666181
1630411796182,-0.101931,0.805383,-0.683688
1630411796192,-0.113582,0.814411,-0.698084
1630411796202,-0.127307,0.81557,-0.711382
1630411796211,-0.14213,0.805383,-0.721325
1630411796221,-0.152805,0.791231,-0.724863
1630411796230,-0.160552,0.772931,-0.720593
1630411796240,-0.166896,0.755912,-0.7190679999999999
1630411796250,-0.1708,0.736575,-0.7117479999999999
1630411796259,-0.171532,0.71492,-0.697596
1630411796269,-0.17702199999999998,0.698999,-0.6874089999999999
1630411796278,-0.178608,0.693448,-0.685762
1630411796288,-0.180316,0.686616,-0.68747
1630411796298,-0.180255,0.678869,-0.68686
1630411796307,-0.180377,0.672159,-0.679906
1630411796317,-0.176473,0.672647,-0.667462
1630411796326,-0.174948,0.676734,-0.659898
1630411796336,-0.16958,0.679357,-0.656604
1630411796346,-0.170007,0.677588,-0.652883
1630411796355,-0.17116599999999998,0.678625,-0.656238
1630411796365,-0.17324,0.681431,-0.6627649999999999
1630411796374,-0.177693,0.683688,-0.666364
1630411796384,-0.18379299999999998,0.687592,-0.669536
1630411796394,-0.182512,0.696559,-0.671854
1630411796403,-0.180133,0.707539,-0.674416
1630411796413,-0.175192,0.721569,-0.676978
1630411796422,-0.17324,0.734196,-0.680516
1630411796432,-0.172325,0.744261,-0.680882
1630411796442,-0.172569,0.7518859999999999,-0.682956
1630411796451,-0.173728,0.756522,-0.68137
1630411796461,-0.17671699999999999,0.75701,-0.678381
1630411796470,-0.18196299999999999,0.756217,-0.67954
1630411796480,-0.187148,0.751825,-0.679967
1630411796490,-0.18971,0.752252,-0.679967
1630411796499,-0.188978,0.757315,-0.681797
1630411796509,-0.184525,0.760792,-0.679906
1630411796518,-0.181841,0.7646959999999999,-0.679052
1630411796528,-0.179645,0.766648,-0.676246
1630411796538,-0.178364,0.76738,-0.67283
1630411796547,-0.174643,0.766404,-0.665083
1630411796557,-0.171044,0.766709,-0.655323
1630411796566,-0.16591999999999998,0.7634759999999999,-0.640988
1630411796576,-0.159027,0.761158,-0.630984
1630411796586,-0.156404,0.76067,-0.627812
1630411796595,-0.154696,0.759328,-0.627385
1630411796605,-0.153232,0.757437,-0.622627
1630411796614,-0.153659,0.7549359999999999,-0.616161
1630411796624,-0.156038,0.755424,-0.612684
1630411796634,-0.158112,0.75884,-0.607804
1630411796643,-0.161101,0.7643909999999999,-0.60695
1630411796653,-0.163419,0.77287,-0.610671
1630411796662,-0.162321,0.781776,-0.618235
1630411796672,-0.163358,0.786534,-0.621956
1630411796682,-0.162687,0.785863,-0.621712
1630411796691,-0.163968,0.779397,-0.620309
1630411796701,-0.168421,0.769149,-0.612318
1630411796710,-0.17641199999999999,0.75457,-0.598959
1630411796720,-0.184464,0.747494,-0.600362
1630411796730,-0.186233,0.7515809999999999,-0.615795
1630411796739,-0.186416,0.758718,-0.626775
1630411796749,-0.183244,0.766404,-0.634217
1630411796758,-0.1769,0.772138,-0.63928
1630411796768,-0.169885,0.770613,-0.638182
1630411796778,-0.168299,0.765733,-0.6341559999999999
1630411796787,-0.167811,0.760914,-0.632997
1630411796797,-0.16958,0.75396,-0.627324
1630411796806,-0.175436,0.745298,-0.625128
1630411796816,-0.176595,0.744993,-0.632082
1630411796826,-0.172813,0.749446,-0.637633
1630411796835,-0.168238,0.754448,-0.643672
1630411796845,-0.163236,0.759938,-0.645685
1630411796854,-0.159332,0.76311,-0.638792
1630411796864,-0.157136,0.767624,-0.63501
1630411796874,-0.157075,0.769759,-0.630252
1630411796883,-0.157502,0.771467,-0.623603
1630411796893,-0.159576,0.775493,-0.6183569999999999
1630411796902,-0.163785,0.780373,-0.613904
1630411796912,-0.165981,0.785436,-0.61305
1630411796922,-0.170678,0.788608,-0.6146969999999999
1630411796931,-0.175375,0.791536,-0.61427
1630411796941,-0.177998,0.793488,-0.6128669999999999
1630411796950,-0.181231,0.793122,-0.612501
1630411796960,-0.183305,0.793915,-0.610854
1630411796970,-0.185745,0.791658,-0.6113419999999999
1630411796979,-0.188185,0.790926,-0.609451
1630411796989,-0.192211,0.7872049999999999,-0.606645
1630411796998,-0.196298,0.7835449999999999,-0.60329
1630411797008,-0.199348,0.780922,-0.600545
1630411797018,-0.204655,0.7783599999999999,-0.598532
1630411797027,-0.209108,0.7777499999999999,-0.598959
1630411797037,-0.214049,0.7780549999999999,-0.597861
1630411797046,-0.21716,0.779458,-0.5978
1630411797056,-0.21899,0.778604,-0.59902
1630411797066,-0.221796,0.7801899999999999,-0.601155
1630411797075,-0.222223,0.781593,-0.603717
1630411797085,-0.221491,0.782691,-0.60756
1630411797094,-0.222101,0.782996,-0.608414
1630411797104,-0.222345,0.7832399999999999,-0.608536
1630411797114,-0.221308,0.780678,-0.609451
1630411797123,-0.220271,0.776774,-0.608536
1630411797133,-0.21984399999999998,0.772138,-0.60756
1630411797142,-0.217587,0.769454,-0.60878
1630411797152,-0.21411,0.767929,-0.609329
1630411797162,-0.210389,0.765733,-0.60756
1630411797171,-0.207156,0.76372,-0.605486
1630411797181,-0.203862,0.76372,-0.604998
1630411797190,-0.200324,0.764513,-0.604327
1630411797200,-0.198555,0.766892,-0.6039
1630411797210,-0.197518,0.76982,-0.603717
1630411797219,-0.195078,0.772687,-0.602802
1630411797229,-0.194712,0.776896,-0.601887
1630411797238,-0.193919,0.7817149999999999,-0.600972
1630411797248,-0.192394,0.785009,-0.600972
1630411797258,-0.193309,0.788791,-0.601216
1630411797267,-0.195322,0.7911699999999999,-0.599142
1630411797277,-0.197396,0.792756,-0.595726
1630411797286,-0.201483,0.794708,-0.594201
1630411797296,-0.203618,0.798612,-0.5961529999999999
1630411797306,-0.205143,0.800625,-0.598837
1630411797315,-0.207644,0.801906,-0.602924
1630411797325,-0.209108,0.800503,-0.605059
1630411797334,-0.210633,0.797636,-0.606767
1630411797344,-0.212646,0.793915,-0.606523
1630411797354,-0.212524,0.790621,-0.60634
1630411797363,-0.211975,0.786534,-0.606218
1630411797373,-0.210267,0.785741,-0.60634
1630411797382,-0.208864,0.783728,-0.604693
1630411797392,-0.20679,0.7798849999999999,-0.600484
1630411797402,-0.205875,0.7759199999999999,-0.597129
1630411797411,-0.205753,0.771894,-0.594567
1630411797421,-0.205875,0.768966,-0.591334
1630411797430,-0.205265,0.766709,-0.5891379999999999
1630411797440,-0.204838,0.766648,-0.589687
1630411797450,-0.204777,0.767624,-0.589565
1630411797459,-0.20410599999999998,0.76982,-0.590846
1630411797469,-0.203923,0.772382,-0.589992
1630411797478,-0.202642,0.7759199999999999,-0.591029
1630411797488,-0.202459,0.778482,-0.59292
1630411797498,-0.202398,0.7817149999999999,-0.5931029999999999
1630411797507,-0.20166599999999998,0.785924,-0.591944
1630411797517,-0.200324,0.787327,-0.592554
1630411797526,-0.199348,0.788059,-0.591761
1630411797536,-0.19794499999999998,0.7893399999999999,-0.591395
1630411797546,-0.196786,0.788974,-0.5882229999999999
1630411797555,-0.19580999999999998,0.790682,-0.590114
1630411797565,-0.195566,0.792024,-0.593042
1630411797574,-0.197579,0.7893399999999999,-0.591456
1630411797584,-0.198616,0.787083,-0.587552
1630411797594,-0.197457,0.7875099999999999,-0.586454
1630411797603,-0.194224,0.788486,-0.587857
1630411797613,-0.19178399999999998,0.790743,-0.58682
1630411797622,-0.18849,0.793488,-0.587125
1630411797632,-0.186904,0.793976,-0.58621
1630411797642,-0.187392,0.79422,-0.587064
1630411797651,-0.187148,0.793671,-0.58743
1630411797661,-0.187087,0.793915,-0.587552
1630411797670,-0.187453,0.793976,-0.587857
1630411797680,-0.186904,0.795196,-0.588467
1630411797690,-0.18605,0.79605,-0.589504
1630411797699,-0.185379,0.797148,-0.591029
1630411797709,-0.185379,0.797026,-0.5917
1630411797718,-0.185257,0.797087,-0.593042
1630411797728,-0.18409799999999998,0.796965,-0.5949329999999999
1630411797738,-0.184769,0.797758,-0.595421
1630411797747,-0.185257,0.797941,-0.5961529999999999
1630411797757,-0.18531799999999998,0.797941,-0.59597
1630411797766,-0.183915,0.798063,-0.596092
1630411797776,-0.182634,0.798917,-0.596031
1630411797786,-0.181841,0.7987339999999999,-0.59536
1630411797795,-0.183061,0.7993439999999999,-0.5961529999999999
1630411797805,-0.183671,0.800076,-0.5964579999999999
1630411797814,-0.183366,0.797758,-0.597678
1630411797824,-0.183671,0.797514,-0.596824
1630411797834,-0.180926,0.797514,-0.59719
1630411797843,-0.179401,0.798368,-0.595909
1630411797853,-0.178425,0.7990389999999999,-0.592981
1630411797862,-0.17702199999999998,0.7991,-0.590907
1630411797872,-0.175558,0.7993439999999999,-0.589565
1630411797882,-0.17610699999999999,0.798856,-0.589687
1630411797891,-0.175619,0.797331,-0.589199
1630411797901,-0.17763199999999998,0.793244,-0.5891379999999999
1630411797910,-0.177266,0.791109,-0.587369
1630411797920,-0.17702199999999998,0.790621,-0.585844
1630411797930,-0.176229,0.790438,-0.585112
1630411797939,-0.17580199999999999,0.791658,-0.5856
1630411797949,-0.175497,0.794586,-0.585844
1630411797958,-0.174704,0.795074,-0.586027
1630411797968,-0.175558,0.795623,-0.58499
1630411797978,-0.17702199999999998,0.797331,-0.585905
1630411797987,-0.178608,0.797331,-0.5860879999999999
1630411797997,-0.180926,0.798307,-0.587552
1630411798006,-0.182329,0.799588,-0.58865
1630411798016,-0.18257299999999999,0.801967,-0.589687
1630411798026,-0.18318299999999998,0.8026989999999999,-0.5900529999999999
1630411798035,-0.18470799999999998,0.802638,-0.591639
1630411798045,-0.186782,0.803065,-0.591456
1630411798054,-0.186782,0.803187,-0.591517
1630411798064,-0.18849,0.801296,-0.591761
1630411798074,-0.188612,0.800808,-0.591029
1630411798083,-0.18781899999999999,0.800808,-0.591029
1630411798093,-0.188673,0.7987339999999999,-0.590236
1630411798102,-0.188307,0.797697,-0.590236
1630411798112,-0.18788,0.796965,-0.589382
1630411798122,-0.188002,0.79605,-0.589382
1630411798131,-0.187209,0.794342,-0.58926
1630411798141,-0.18812399999999999,0.791902,-0.588711
1630411798150,-0.186904,0.7902549999999999,-0.5876129999999999
1630411798160,-0.187514,0.788303,-0.587186
1630411798170,-0.18781899999999999,0.787388,-0.58682
1630411798179,-0.18873399999999999,0.784521,-0.586027
1630411798189,-0.189222,0.785131,-0.586149
1630411798198,-0.18812399999999999,0.786046,-0.584929
1630411798208,-0.189466,0.786961,-0.585539
1630411798218,-0.189588,0.787022,-0.586637
1630411798227,-0.18934399999999998,0.7884249999999999,-0.586027
1630411798237,-0.189222,0.790438,-0.585539
1630411798246,-0.18903899999999998,0.792817,-0.585722
1630411798256,-0.189466,0.794769,-0.58499
1630411798266,-0.188917,0.795928,-0.5842579999999999
1630411798275,-0.18971,0.799161,-0.58438
1630411798285,-0.189832,0.799466,-0.585661
1630411798294,-0.18934399999999998,0.800808,-0.58316
1630411798304,-0.189832,0.802516,-0.582733
1630411798314,-0.188551,0.805505,-0.585844
1630411798323,-0.189466,0.8057489999999999,-0.584319
1630411798333,-0.191296,0.803736,-0.580476
1630411798342,-0.193431,0.8020889999999999,-0.578951
1630411798352,-0.191723,0.801845,-0.580354
1630411798362,-0.192272,0.801906,-0.580354
1630411798371,-0.19117399999999998,0.8014789999999999,-0.580476
1630411798381,-0.19086899999999998,0.800503,-0.580354
1630411798390,-0.191601,0.800686,-0.581147
1630411798400,-0.193126,0.800198,-0.580842
1630411798410,-0.193126,0.801662,-0.578646
1630411798419,-0.193248,0.801723,-0.578036
1630411798429,-0.192638,0.802943,-0.578402
1630411798438,-0.19428499999999999,0.800991,-0.580354
1630411798448,-0.195993,0.7990389999999999,-0.582794
1630411798458,-0.198311,0.798124,-0.583892
1630411798467,-0.199165,0.797758,-0.58621
1630411798477,-0.20008,0.795989,-0.58743
1630411798486,-0.201178,0.79544,-0.588467
1630411798496,-0.202337,0.795257,-0.589626
1630411798506,-0.200873,0.797026,-0.593225
1630411798515,-0.200324,0.79727,-0.5921879999999999
1630411798525,-0.20075099999999999,0.797453,-0.591639
1630411798534,-0.2013,0.795318,-0.593591
1630411798544,-0.203008,0.793183,-0.59292
1630411798554,-0.20258099999999998,0.790438,-0.592554
1630411798563,-0.20191,0.787937,-0.592066
1630411798573,-0.20008,0.788913,-0.592676
1630411798582,-0.19886,0.788608,-0.593591
1630411798592,-0.199043,0.787144,-0.593042
1630411798602,-0.19825,0.7856799999999999,-0.591456
1630411798611,-0.198738,0.7850699999999999,-0.5903579999999999
1630411798621,-0.198982,0.785192,-0.593225
1630411798630,-0.198189,0.784704,-0.595604
1630411798640,-0.199531,0.7838499999999999,-0.596336
1630411798650,-0.200629,0.782752,-0.596824
1630411798659,-0.2013,0.780251,-0.599386
1630411798669,-0.202154,0.778604,-0.601704
1630411798678,-0.20410599999999998,0.775493,-0.601765
1630411798688,-0.205448,0.773663,-0.603046
1630411798698,-0.205326,0.773236,-0.605242
1630411798707,-0.2074,0.770735,-0.606828
1630411798717,-0.209474,0.7686,-0.6082919999999999
1630411798726,-0.20843699999999998,0.768722,-0.6095119999999999
1630411798736,-0.21228,0.7677459999999999,-0.610549
1630411798746,-0.213012,0.76616,-0.610488
1630411798755,-0.21411,0.766343,-0.6107319999999999
1630411798765,-0.214964,0.763598,-0.611403
1630411798774,-0.21770899999999999,0.761829,-0.612745
1630411798784,-0.217648,0.762378,-0.612379
1630411798794,-0.216428,0.763232,-0.614026
1630411798803,-0.217526,0.7634759999999999,-0.6159169999999999
1630411798813,-0.21594,0.765062,-0.61671
1630411798822,-0.214659,0.766709,-0.6174419999999999
1630411798832,-0.212829,0.767014,-0.6161
1630411798842,-0.21289,0.766648,-0.6146969999999999
1630411798851,-0.211243,0.767502,-0.615063
1630411798861,-0.210328,0.766892,-0.613843
1630411798870,-0.208864,0.76738,-0.614636
1630411798880,-0.208315,0.767502,-0.6134769999999999
1630411798890,-0.206851,0.7662209999999999,-0.6137819999999999
1630411798899,-0.20782699999999998,0.7643909999999999,-0.614758
1630411798909,-0.207888,0.763964,-0.616649
1630411798918,-0.208315,0.764818,-0.6161
1630411798928,-0.20813199999999998,0.765428,-0.617076
1630411798938,-0.20557,0.768356,-0.618296
1630411798947,-0.203923,0.770369,-0.6174419999999999
1630411798957,-0.202764,0.771955,-0.615795
1630411798966,-0.201239,0.773419,-0.615063
1630411798976,-0.200873,0.7750049999999999,-0.615429
1630411798986,-0.200202,0.776774,-0.616283
1630411798995,-0.19947,0.777567,-0.617015
1630411799005,-0.198677,0.778543,-0.6174419999999999
1630411799014,-0.19825,0.776957,-0.618174
1630411799024,-0.198738,0.776042,-0.618113
1630411799034,-0.199226,0.775371,-0.618845
1630411799043,-0.198677,0.7750049999999999,-0.618174
1630411799053,-0.198616,0.775188,-0.617503
1630411799062,-0.195871,0.773907,-0.616771
1630411799072,-0.196664,0.770674,-0.615734
1630411799082,-0.196298,0.768722,-0.6146969999999999
1630411799091,-0.19641999999999998,0.76738,-0.6143919999999999
1630411799101,-0.196908,0.768844,-0.615429
1630411799110,-0.197396,0.767502,-0.616466
1630411799120,-0.198982,0.765489,-0.612135
1630411799130,-0.198677,0.7659159999999999,-0.610183
1630411799139,-0.19702999999999998,0.767075,-0.611891
1630411799149,-0.195627,0.768661,-0.613111
1630411799158,-0.19489499999999998,0.770857,-0.6125619999999999
1630411799168,-0.194468,0.77165,-0.610366
1630411799178,-0.195078,0.772565,-0.609695
1630411799187,-0.195139,0.772321,-0.608109
1630411799197,-0.197579,0.772504,-0.605669
1630411799206,-0.196603,0.776164,-0.605486
1630411799216,-0.195932,0.776042,-0.604876
1630411799226,-0.19580999999999998,0.777079,-0.604266
1630411799235,-0.196298,0.776896,-0.604449
1630411799245,-0.198128,0.776774,-0.6039
1630411799254,-0.197396,0.7768349999999999,-0.604632
1630411799264,-0.199348,0.777628,-0.605974
1630411799274,-0.20008,0.777933,-0.606401
1630411799283,-0.202032,0.7765299999999999,-0.608353
1630411799293,-0.20191,0.7765299999999999,-0.60878
1630411799302,-0.203984,0.777201,-0.609451
1630411799312,-0.203069,0.777872,-0.610793
1630411799322,-0.200995,0.780068,-0.609268
1630411799331,-0.20191,0.780983,-0.607499
1630411799341,-0.200324,0.781044,-0.60573
1630411799350,-0.19947,0.778787,-0.604693
1630411799360,-0.200019,0.777201,-0.604388
1630411799370,-0.200202,0.7759199999999999,-0.60817
1630411799379,-0.200934,0.775859,-0.60939
1630411799389,-0.202764,0.773053,-0.60756
1630411799398,-0.20227599999999998,0.77165,-0.607072
1630411799408,-0.202337,0.771711,-0.607377
1630411799418,-0.202032,0.772748,-0.608719
1630411799427,-0.201788,0.774639,-0.609146
1630411799437,-0.201483,0.7753099999999999,-0.6082919999999999
1630411799446,-0.201422,0.776774,-0.608475
1630411799456,-0.201483,0.776957,-0.6089019999999999
1630411799466,-0.201422,0.778177,-0.608414
1630411799475,-0.20288599999999998,0.778604,-0.609878
1630411799485,-0.203679,0.776713,-0.611586
1630411799494,-0.206546,0.775188,-0.614636
1630411799504,-0.209596,0.775554,-0.618723
1630411799514,-0.209535,0.775249,-0.6192719999999999
1630411799523,-0.205814,0.778177,-0.614819
1630411799533,-0.20191,0.781227,-0.610793
1630411799542,-0.201483,0.782264,-0.607133
1630411799552,-0.200629,0.781654,-0.604205
1630411799562,-0.199043,0.7823249999999999,-0.601338
1630411799571,-0.198067,0.780983,-0.599813
1630411799581,-0.199714,0.779336,-0.600057
1630411799590,-0.199897,0.775981,-0.602619
1630411799600,-0.203923,0.771467,-0.60451
1630411799610,-0.206973,0.76738,-0.606706
1630411799619,-0.20923,0.764818,-0.60939
1630411799629,-0.210023,0.764635,-0.610183
1630411799638,-0.209169,0.766709,-0.6125619999999999
1630411799648,-0.207949,0.768844,-0.612074
1630411799658,-0.207339,0.771772,-0.611281
1630411799667,-0.207156,0.772504,-0.609634
1630411799677,-0.20599699999999999,0.773724,-0.6098169999999999
1630411799686,-0.206424,0.772199,-0.6101219999999999
1630411799696,-0.208315,0.771467,-0.609634
1630411799706,-0.2074,0.772016,-0.609939
1630411799715,-0.207095,0.774273,-0.609878
1630411799725,-0.205326,0.7762249999999999,-0.608414
1630411799734,-0.204533,0.7789699999999999,-0.606462
1630411799744,-0.203374,0.7804949999999999,-0.605486
1630411799754,-0.20227599999999998,0.7820199999999999,-0.604693
1630411799763,-0.201788,0.781349,-0.603595
1630411799773,-0.20288599999999998,0.782386,-0.604449
1630411799782,-0.204228,0.779946,-0.605791
1630411799792,-0.20569199999999999,0.778543,-0.606767
1630411799802,-0.209108,0.777079,-0.607621
1630411799811,-0.21154799999999999,0.776469,-0.607499
1630411799821,-0.211121,0.775188,-0.605974
1630411799830,-0.20691199999999998,0.772687,-0.60634
1630411799840,-0.20410599999999998,0.773236,-0.6082919999999999
1630411799850,-0.201178,0.772626,-0.61
1630411799859,-0.200263,0.773602,-0.610061
1630411799869,-0.199592,0.77409,-0.6089019999999999
1630411799878,-0.199348,0.7753099999999999,-0.6092069999999999
1630411799888,-0.200568,0.776347,-0.609939
1630411799898,-0.200385,0.7777499999999999,-0.606889
1630411799907,-0.200202,0.777079,-0.605425
1630411799917,-0.198433,0.779092,-0.606035
1630411799926,-0.196359,0.779763,-0.60817
1630411799936,-0.195322,0.777933,-0.609451
1630411799946,-0.197457,0.776042,-0.609024
1630411799955,-0.19886,0.774517,-0.608963
1630411799965,-0.199165,0.773968,-0.6089019999999999
1630411799974,-0.198006,0.7750049999999999,-0.60878
1630411799984,-0.197884,0.775554,-0.608658
1630411799994,-0.195444,0.776469,-0.605913
1630411800003,-0.194712,0.777201,-0.603229
1630411800013,-0.194224,0.778482,-0.603168
1630411800022,-0.194651,0.781044,-0.603656
1630411800032,-0.193858,0.782508,-0.604815
1630411800042,-0.19337,0.783362,-0.605364
1630411800051,-0.194224,0.782142,-0.60512
1630411800061,-0.195017,0.781288,-0.604083
1630411800070,-0.195993,0.7798849999999999,-0.605364
1630411800080,-0.196054,0.7789699999999999,-0.605852
1630411800090,-0.195749,0.779641,-0.605303
1630411800099,-0.195383,0.780129,-0.605059
1630411800109,-0.195444,0.781471,-0.603046
1630411800118,-0.195261,0.782081,-0.602314
1630411800128,-0.195444,0.782142,-0.60268
1630411800138,-0.195871,0.783789,-0.606584
1630411800147,-0.195932,0.7841549999999999,-0.610244
1630411800157,-0.197274,0.7817149999999999,-0.6085969999999999
1630411800166,-0.198738,0.779824,-0.605791
1630411800176,-0.20044599999999999,0.7792749999999999,-0.604571
1630411800186,-0.202032,0.780434,-0.603534
1630411800195,-0.201605,0.781166,-0.606096
1630411800205,-0.20014099999999999,0.7811049999999999,-0.6095119999999999
1630411800214,-0.197091,0.7811049999999999,-0.611159
1630411800224,-0.196298,0.777323,-0.61305
1630411800234,-0.198677,0.773358,-0.6143919999999999
1630411800243,-0.201422,0.773968,-0.6137819999999999
1630411800253,-0.197701,0.772382,-0.616405
1630411800262,-0.199531,0.7686,-0.617259
1630411800272,-0.198128,0.768051,-0.61549
1630411800282,-0.196054,0.770552,-0.613233
1630411800291,-0.19397999999999999,0.772687,-0.612318
1630411800301,-0.193248,0.775066,-0.610366
1630411800310,-0.192211,0.776408,-0.6085969999999999
1630411800320,-0.192455,0.775737,-0.607926
1630411800330,-0.19178399999999998,0.774029,-0.608475
1630411800339,-0.192272,0.773541,-0.607499
1630411800349,-0.19178399999999998,0.773968,-0.608109
1630411800358,-0.19093,0.7746999999999999,-0.6085969999999999
1630411800368,-0.192272,0.775188,-0.608841
1630411800378,-0.191418,0.777262,-0.6085969999999999
1630411800387,-0.192028,0.778482,-0.608414
1630411800397,-0.192394,0.779397,-0.606706
1630411800406,-0.193004,0.780251,-0.605608
1630411800416,-0.19276,0.7789699999999999,-0.605974
1630411800426,-0.192821,0.778604,-0.606828
1630411800435,-0.193004,0.778421,-0.607255
1630411800445,-0.19397999999999999,0.778421,-0.608719
1630411800454,-0.194712,0.776896,-0.609573
1630411800464,-0.192516,0.777506,-0.609695
1630411800474,-0.193065,0.7783599999999999,-0.609085
1630411800483,-0.192272,0.778726,-0.607743
1630411800493,-0.19215,0.777872,-0.606767
1630411800502,-0.192821,0.777567,-0.60695
1630411800512,-0.191845,0.778787,-0.606401
1630411800522,-0.190442,0.7786649999999999,-0.606889
1630411800531,-0.19147899999999998,0.777384,-0.607316
1630411800541,-0.192333,0.777811,-0.609146
1630411800550,-0.193858,0.777079,-0.6095119999999999
1630411800560,-0.194468,0.776469,-0.609756
1630411800570,-0.19147899999999998,0.7783599999999999,-0.6095119999999999
1630411800579,-0.189588,0.781593,-0.60756
1630411800589,-0.18781899999999999,0.7832399999999999,-0.606401
1630411800598,-0.186172,0.784216,-0.606767
1630411800608,-0.185562,0.7853749999999999,-0.604998
1630411800618,-0.18483,0.784582,-0.604693
1630411800627,-0.185867,0.783728,-0.60695
1630411800637,-0.186477,0.784521,-0.609878
1630411800646,-0.186721,0.7832399999999999,-0.611281
1630411800656,-0.18873399999999999,0.781532,-0.607865
1630411800666,-0.190198,0.779763,-0.604022
1630411800675,-0.188612,0.781471,-0.604693
1630411800685,-0.187026,0.7832399999999999,-0.604937
1630411800694,-0.185684,0.783118,-0.605547
1630411800704,-0.185684,0.7841549999999999,-0.605669
1630411800714,-0.187026,0.784033,-0.60634
1630411800723,-0.188978,0.783118,-0.606828
1630411800733,-0.18934399999999998,0.783484,-0.606584
1630411800742,-0.189222,0.7826299999999999,-0.607194
1630411800752,-0.190381,0.7823249999999999,-0.606462
1630411800762,-0.191052,0.782569,-0.608231
1630411800771,-0.19147899999999998,0.7823249999999999,-0.608841
1630411800781,-0.190137,0.782569,-0.609756
1630411800790,-0.189405,0.782264,-0.60939
1630411800800,-0.189161,0.783057,-0.608475
1630411800810,-0.188795,0.781349,-0.606035
1630411800819,-0.18873399999999999,0.7814099999999999,-0.606279
1630411800829,-0.188856,0.781471,-0.604876
1630411800838,-0.189527,0.7807999999999999,-0.604144
1630411800848,-0.189161,0.781044,-0.604754
1630411800858,-0.189283,0.780678,-0.604205
1630411800867,-0.189283,0.780434,-0.603534
1630411800877,-0.190198,0.780129,-0.602619
1630411800886,-0.190991,0.779946,-0.602192
1630411800896,-0.190503,0.779824,-0.602009
1630411800906,-0.190442,0.779397,-0.604144
1630411800915,-0.19154,0.778177,-0.6079869999999999
1630411800925,-0.19337,0.778543,-0.608658
1630411800934,-0.193919,0.777872,-0.607255
1630411800944,-0.196603,0.778238,-0.607804
1630411800954,-0.197274,0.778116,-0.6089019999999999
1630411800963,-0.19733499999999998,0.777506,-0.611098
1630411800973,-0.198372,0.776164,-0.612074
1630411800982,-0.198738,0.774578,-0.6125619999999999
1630411800992,-0.198982,0.774639,-0.612745
1630411801002,-0.198982,0.774517,-0.610976
1630411801011,-0.197518,0.77409,-0.610183
1630411801021,-0.196908,0.774578,-0.609878
1630411801030,-0.195566,0.775432,-0.6085969999999999
1630411801040,-0.194468,0.7774449999999999,-0.606462
1630411801050,-0.195078,0.777994,-0.605791
1630411801059,-0.19550499999999998,0.776896,-0.605364
1630411801069,-0.195871,0.7777499999999999,-0.605974
1630411801078,-0.19580999999999998,0.777506,-0.6076819999999999
1630411801088,-0.196542,0.778238,-0.606523
1630411801098,-0.197213,0.7777499999999999,-0.606828
1630411801107,-0.196847,0.778116,-0.606279
1630411801117,-0.197396,0.780007,-0.605913
1630411801126,-0.195932,0.7811049999999999,-0.606828
1630411801136,-0.195749,0.781898,-0.604876
1630411801146,-0.195749,0.7807999999999999,-0.604266
1630411801155,-0.196603,0.780312,-0.603778
1630411801165,-0.196481,0.780251,-0.605547
1630411801174,-0.19702999999999998,0.780129,-0.60512
1630411801184,-0.199165,0.777872,-0.604754
1630411801194,-0.199409,0.776347,-0.606645
1630411801203,-0.200934,0.7753099999999999,-0.608658
1630411801213,-0.202215,0.774944,-0.608658
1630411801222,-0.20227599999999998,0.774578,-0.60817
1630411801232,-0.201605,0.774822,-0.607316
1630411801242,-0.201422,0.7753099999999999,-0.605608
1630411801251,-0.20075099999999999,0.774395,-0.605608
1630411801261,-0.200324,0.775798,-0.605547
1630411801270,-0.199043,0.774761,-0.605425
1630411801280,-0.199592,0.773968,-0.605303
1630411801290,-0.2013,0.773541,-0.605486
1630411801299,-0.20288599999999998,0.771528,-0.606889
1630411801309,-0.20313,0.772565,-0.608353
1630411801318,-0.202215,0.772809,-0.608109
1630411801328,-0.201483,0.774395,-0.6079869999999999
1630411801338,-0.20191,0.774822,-0.607926
1630411801347,-0.201422,0.7759199999999999,-0.60878
1630411801357,-0.19983599999999999,0.776591,-0.60695
1630411801366,-0.198433,0.777567,-0.606645
1630411801376,-0.198067,0.776652,-0.605791
1630411801386,-0.199348,0.776408,-0.605059
1630411801395,-0.198677,0.775554,-0.606035
1630411801405,-0.197823,0.774883,-0.6079869999999999
1630411801414,-0.197701,0.7759199999999999,-0.610244
1630411801424,-0.198616,0.776713,-0.60878
1630411801434,-0.198616,0.7771399999999999,-0.605669
1630411801443,-0.199348,0.777262,-0.603412
1630411801453,-0.198921,0.777872,-0.604876
1630411801462,-0.19825,0.779946,-0.606767
1630411801472,-0.197396,0.7798849999999999,-0.60817
1630411801482,-0.19886,0.7795799999999999,-0.606828
1630411801491,-0.198067,0.779092,-0.60695
1630411801501,-0.199348,0.777994,-0.606645
1630411801510,-0.199348,0.776896,-0.605791
1630411801520,-0.20044599999999999,0.776286,-0.605608
1630411801530,-0.199531,0.776164,-0.604632
1630411801539,-0.198433,0.776286,-0.605303
1630411801549,-0.199165,0.7780549999999999,-0.606706
1630411801558,-0.199409,0.7786649999999999,-0.606767
1630411801568,-0.199653,0.779031,-0.606096
1630411801578,-0.198555,0.781776,-0.606157
1630411801587,-0.200202,0.780739,-0.60695
1630411801597,-0.20014099999999999,0.780068,-0.606462
1630411801606,-0.200568,0.780251,-0.607377
1630411801616,-0.20044599999999999,0.7783599999999999,-0.607011
1630411801626,-0.200385,0.776713,-0.606889
1630411801635,-0.201483,0.7753099999999999,-0.606279
1630411801645,-0.202215,0.775676,-0.606279
1630411801654,-0.19983599999999999,0.777506,-0.60512
1630411801664,-0.197823,0.776286,-0.604571
1630411801674,-0.198738,0.777323,-0.606218
1630411801683,-0.199775,0.779336,-0.607011
1630411801693,-0.199226,0.778909,-0.608109
1630411801702,-0.201239,0.777384,-0.604754
1630411801712,-0.20166599999999998,0.776896,-0.604571
1630411801722,-0.200385,0.777689,-0.60512
1630411801731,-0.199165,0.778909,-0.604937
1630411801741,-0.199043,0.778238,-0.605669
1630411801750,-0.199104,0.7783599999999999,-0.604327
1630411801760,-0.197518,0.779336,-0.604327
1630411801770,-0.197701,0.7804949999999999,-0.6039
1630411801779,-0.197884,0.780007,-0.603961
1630411801789,-0.19702999999999998,0.780861,-0.604327
1630411801798,-0.196786,0.781898,-0.604266
1630411801808,-0.19672499999999998,0.781471,-0.605242
1630411801818,-0.197518,0.7795799999999999,-0.603229
1630411801827,-0.197152,0.7795799999999999,-0.602802
1630411801837,-0.197457,0.778421,-0.602863
1630411801846,-0.196786,0.779336,-0.602192
1630411801856,-0.19519999999999998,0.780983,-0.601948
1630411801866,-0.195261,0.781532,-0.601277
1630411801875,-0.19458999999999999,0.7814099999999999,-0.601277
1630411801885,-0.195078,0.7832399999999999,-0.601155
1630411801894,-0.195383,0.784033,-0.601643
1630411801904,-0.195688,0.784094,-0.601094
1630411801914,-0.196054,0.783911,-0.600362
1630411801923,-0.19580999999999998,0.783362,-0.600362
1630411801933,-0.196176,0.783728,-0.601826
1630411801942,-0.196542,0.783606,-0.602131
1630411801952,-0.197396,0.783667,-0.602192
1630411801962,-0.19794499999999998,0.783179,-0.602253
1630411801971,-0.197518,0.783423,-0.601765
1630411801981,-0.197091,0.783484,-0.602253
1630411801990,-0.195566,0.782508,-0.602192
1630411802000,-0.195444,0.783362,-0.601521
1630411802010,-0.197274,0.782996,-0.602436
1630411802019,-0.196481,0.781593,-0.60207
1630411802029,-0.196542,0.780129,-0.602741
1630411802038,-0.19733499999999998,0.779519,-0.602497
1630411802048,-0.197457,0.779397,-0.601643
1630411802058,-0.196481,0.778604,-0.601826
1630411802067,-0.195932,0.778543,-0.602497
1630411802077,-0.19489499999999998,0.780617,-0.601399
1630411802086,-0.194224,0.782508,-0.600911
1630411802096,-0.192699,0.784521,-0.601338
1630411802106,-0.192516,0.785619,-0.601704
1630411802115,-0.19215,0.786168,-0.599874
1630411802125,-0.193004,0.786412,-0.600606
1630411802134,-0.193248,0.785497,-0.599874
1630411802144,-0.195627,0.783118,-0.602314
1630411802154,-0.196542,0.781532,-0.607377
1630411802163,-0.193126,0.783423,-0.606096
1630411802173,-0.19178399999999998,0.7844599999999999,-0.605303
1630411802182,-0.192272,0.784582,-0.603595
1630411802192,-0.192516,0.783118,-0.600057
1630411802202,-0.195261,0.780678,-0.594201
1630411802211,-0.196664,0.781166,-0.595787
1630411802221,-0.19641999999999998,0.781166,-0.603778
1630411802230,-0.195932,0.779458,-0.608353
1630411802240,-0.196603,0.7789699999999999,-0.606462
1630411802250,-0.194956,0.781349,-0.604876
1630411802259,-0.193553,0.784033,-0.604449
1630411802269,-0.192272,0.785253,-0.60207
1630411802278,-0.190686,0.786534,-0.600484
1630411802288,-0.189588,0.787388,-0.598776
1630411802298,-0.1891,0.788181,-0.597922
1630411802307,-0.187575,0.788364,-0.59719
1630411802317,-0.187636,0.7878149999999999,-0.595604
1630411802326,-0.189161,0.787144,-0.5955429999999999
1630411802336,-0.189405,0.786534,-0.595909
1630411802346,-0.18842899999999999,0.786961,-0.59902
1630411802355,-0.189466,0.786778,-0.600728
1630411802365,-0.190076,0.786412,-0.601094
1630411802374,-0.19093,0.785131,-0.60207
1630411802384,-0.19093,0.7835449999999999,-0.601826
1630411802394,-0.191296,0.783118,-0.60085
1630411802403,-0.19117399999999998,0.7838499999999999,-0.600179
1630411802413,-0.190381,0.7838499999999999,-0.599874
1630411802422,-0.189161,0.782508,-0.599813
1630411802432,-0.188795,0.7820199999999999,-0.597129
1630411802442,-0.192333,0.782752,-0.598776
1630411802451,-0.195078,0.783728,-0.599569
1630411802461,-0.192943,0.782569,-0.598166
1630411802470,-0.193736,0.783423,-0.599325
1630411802480,-0.192028,0.7850699999999999,-0.603168
1630411802490,-0.19086899999999998,0.784948,-0.605486
1630411802499,-0.191052,0.7862899999999999,-0.601521
1630411802509,-0.19093,0.786412,-0.5978
1630411802518,-0.190015,0.788852,-0.5978
1630411802528,-0.188368,0.789828,-0.5978
1630411802538,-0.188002,0.789706,-0.59658
1630411802547,-0.18666,0.790682,-0.5970679999999999
1630411802557,-0.186538,0.790194,-0.596092
1630411802566,-0.18666,0.788486,-0.595665
1630411802576,-0.18812399999999999,0.7881199999999999,-0.594384
1630411802586,-0.18812399999999999,0.787693,-0.59597
1630411802595,-0.187697,0.788608,-0.596702
1630411802605,-0.187087,0.790133,-0.597556
1630411802614,-0.186904,0.791597,-0.597007
1630411802624,-0.187392,0.791048,-0.596946
1630411802634,-0.187331,0.791963,-0.597312
1630411802643,-0.186538,0.792878,-0.598715
1630411802653,-0.187087,0.793244,-0.597556
1630411802662,-0.185562,0.792451,-0.596336
1630411802672,-0.185928,0.791719,-0.596031
1630411802682,-0.186843,0.790011,-0.59536
1630411802691,-0.186965,0.7890349999999999,-0.59475
1630411802701,-0.187514,0.7884249999999999,-0.594506
1630411802710,-0.188612,0.787388,-0.594994
1630411802720,-0.188002,0.787266,-0.5952379999999999
1630411802730,-0.188612,0.788059,-0.594445
1630411802739,-0.188612,0.788486,-0.59475
1630411802749,-0.18781899999999999,0.790499,-0.5934079999999999
1630411802758,-0.186904,0.791231,-0.5934079999999999
1630411802768,-0.18666,0.791658,-0.593164
1630411802778,-0.187148,0.791719,-0.5921879999999999
1630411802787,-0.187087,0.791109,-0.592249
1630411802797,-0.188246,0.791048,-0.592371
1630411802806,-0.186904,0.790438,-0.592371
1630411802816,-0.187575,0.790804,-0.592615
1630411802826,-0.187514,0.790133,-0.592859
1630411802835,-0.188002,0.789096,-0.5927979999999999
1630411802845,-0.187697,0.789157,-0.592066
1630411802854,-0.188246,0.789279,-0.592249
1630411802864,-0.187392,0.7905599999999999,-0.591212
1630411802874,-0.185867,0.792268,-0.5915779999999999
1630411802883,-0.184769,0.794769,-0.592432
1630411802893,-0.183915,0.794891,-0.591761
1630411802902,-0.184769,0.794037,-0.59048
1630411802912,-0.184952,0.793915,-0.5897479999999999
1630411802922,-0.185257,0.794952,-0.590175
1630411802931,-0.184891,0.794098,-0.5891379999999999
1630411802941,-0.184769,0.795074,-0.589321
1630411802950,-0.18470799999999998,0.795562,-0.590175
1630411802960,-0.18409799999999998,0.795013,-0.590785
1630411802970,-0.185135,0.793244,-0.589809
1630411802979,-0.18562299999999998,0.79544,-0.591395
1630411802989,-0.186416,0.796538,-0.5934079999999999
1630411802998,-0.18781899999999999,0.796721,-0.593225
1630411803008,-0.187331,0.795928,-0.5915779999999999
1630411803018,-0.187331,0.796477,-0.590846
1630411803027,-0.185562,0.796782,-0.5921879999999999
1630411803037,-0.18531799999999998,0.795379,-0.592127
1630411803046,-0.185135,0.794281,-0.592127
1630411803056,-0.185196,0.793488,-0.59109
1630411803066,-0.186294,0.792878,-0.590114
1630411803075,-0.185745,0.7920849999999999,-0.588589
1630411803085,-0.185928,0.792756,-0.587369
1630411803094,-0.18562299999999998,0.793061,-0.5879179999999999
1630411803104,-0.185379,0.793183,-0.588772
1630411803114,-0.184525,0.793366,-0.58926
1630411803123,-0.18470799999999998,0.793366,-0.590846
1630411803133,-0.186294,0.792634,-0.590724
1630411803142,-0.187026,0.792756,-0.590114
1630411803152,-0.188185,0.791902,-0.590602
1630411803162,-0.187697,0.793366,-0.591029
1630411803171,-0.188063,0.792634,-0.5918829999999999
1630411803181,-0.18788,0.79361,-0.5918829999999999
1630411803190,-0.188612,0.794159,-0.591944
1630411803200,-0.188307,0.794586,-0.5906629999999999
1630411803210,-0.188002,0.795196,-0.5909679999999999
1630411803219,-0.187941,0.793305,-0.590602
1630411803229,-0.187453,0.791963,-0.590846
1630411803238,-0.188185,0.792512,-0.593896
1630411803248,-0.188551,0.791536,-0.595726
1630411803258,-0.18971,0.790011,-0.594262
1630411803267,-0.190015,0.788852,-0.591151
1630411803277,-0.189588,0.789401,-0.590236
1630411803286,-0.188002,0.790377,-0.590419
1630411803296,-0.188612,0.7911699999999999,-0.592066
1630411803306,-0.187636,0.792024,-0.592981
1630411803315,-0.186416,0.792512,-0.59292
1630411803325,-0.186538,0.792512,-0.5921879999999999
1630411803334,-0.186477,0.793976,-0.5917
1630411803344,-0.18605,0.794098,-0.590846
1630411803354,-0.185501,0.793305,-0.590541
1630411803363,-0.186294,0.793732,-0.590175
1630411803373,-0.185562,0.794281,-0.590236
1630411803382,-0.185257,0.793793,-0.5909679999999999
1630411803392,-0.18605,0.793732,-0.590785
1630411803402,-0.185928,0.793366,-0.591395
1630411803411,-0.185928,0.792512,-0.590541
1630411803421,-0.186294,0.793488,-0.58987
1630411803430,-0.185135,0.793915,-0.589992
1630411803440,-0.185257,0.794403,-0.589931
1630411803450,-0.184647,0.795074,-0.589199
1630411803459,-0.18562299999999998,0.795806,-0.589016
1630411803469,-0.184769,0.795684,-0.5894429999999999
1630411803478,-0.184952,0.795379,-0.589382
1630411803488,-0.184525,0.79605,-0.5891379999999999
1630411803498,-0.186416,0.796538,-0.590724
1630411803507,-0.186416,0.795318,-0.589809
1630411803517,-0.186355,0.793976,-0.5906629999999999
1630411803526,-0.187392,0.792939,-0.5906629999999999
1630411803536,-0.187697,0.793732,-0.5900529999999999
1630411803546,-0.186599,0.793122,-0.5903579999999999
1630411803555,-0.186233,0.794342,-0.589382
1630411803565,-0.18666,0.793915,-0.588955
1630411803574,-0.18562299999999998,0.794647,-0.589321
1630411803584,-0.186172,0.794586,-0.589199
1630411803594,-0.185562,0.794525,-0.588406
1630411803603,-0.185745,0.794708,-0.589077
1630411803613,-0.185562,0.794891,-0.590236
1630411803622,-0.184586,0.795074,-0.59048
1630411803632,-0.184647,0.794586,-0.589321
1630411803642,-0.185074,0.794647,-0.589992
1630411803651,-0.186233,0.794891,-0.58987
1630411803661,-0.185135,0.795989,-0.590114
1630411803670,-0.18483,0.795867,-0.59109
1630411803680,-0.184769,0.794342,-0.591822
1630411803690,-0.184342,0.793244,-0.590785
1630411803699,-0.185562,0.791902,-0.589565
1630411803709,-0.18501299999999998,0.793427,-0.592066
1630411803718,-0.184952,0.79422,-0.595055
1630411803728,-0.185379,0.793244,-0.594994
1630411803738,-0.186416,0.79239,-0.590724
1630411803747,-0.185806,0.791658,-0.5888329999999999
1630411803757,-0.183671,0.793488,-0.588711
1630411803766,-0.18196299999999999,0.795074,-0.5906629999999999
1630411803776,-0.180621,0.796416,-0.590114
1630411803786,-0.180804,0.797087,-0.590297
1630411803795,-0.18056,0.797636,-0.58987
1630411803805,-0.181658,0.797514,-0.588711
1630411803814,-0.181353,0.796843,-0.588101
1630411803824,-0.183061,0.796782,-0.588772
1630411803834,-0.182939,0.79666,-0.588345
1630411803843,-0.18257299999999999,0.796782,-0.589199
1630411803853,-0.18287799999999999,0.794952,-0.591517
1630411803862,-0.183854,0.793366,-0.592005
1630411803872,-0.18409799999999998,0.791902,-0.591944
1630411803882,-0.183732,0.791353,-0.592249
1630411803891,-0.184159,0.791902,-0.592066
1630411803901,-0.18422,0.791292,-0.59231
1630411803910,-0.183549,0.7914749999999999,-0.592676
1630411803920,-0.183732,0.791963,-0.5918829999999999
1630411803930,-0.183976,0.791536,-0.591639
1630411803939,-0.182817,0.792329,-0.591822
1630411803949,-0.183366,0.792756,-0.5917
1630411803958,-0.182817,0.790804,-0.5909679999999999
1630411803968,-0.183915,0.791048,-0.5924929999999999
1630411803978,-0.18361,0.792512,-0.595604
1630411803987,-0.18440299999999998,0.791109,-0.598471
1630411803997,-0.18605,0.789889,-0.595726
1630411804006,-0.18666,0.790194,-0.593042
1630411804016,-0.186172,0.790438,-0.59353
1630411804026,-0.184586,0.792024,-0.593591
1630411804035,-0.183427,0.792939,-0.593896
1630411804045,-0.182146,0.793366,-0.593957
1630411804054,-0.181536,0.791902,-0.5940179999999999
1630411804064,-0.182146,0.791597,-0.5937129999999999
1630411804074,-0.183,0.791719,-0.593774
1630411804083,-0.183671,0.7920849999999999,-0.5940179999999999
1630411804093,-0.183549,0.792146,-0.59292
1630411804102,-0.183,0.794037,-0.5921879999999999
1630411804112,-0.182146,0.794464,-0.592981
1630411804122,-0.182512,0.79422,-0.59292
1630411804131,-0.182451,0.79422,-0.5934079999999999
1630411804141,-0.182512,0.793854,-0.593225
1630411804150,-0.183915,0.793,-0.593225
1630411804160,-0.18348799999999998,0.793122,-0.5924929999999999
1630411804170,-0.182817,0.793854,-0.5927979999999999
1630411804179,-0.18379299999999998,0.793427,-0.592737
1630411804189,-0.18318299999999998,0.792146,-0.59292
1630411804198,-0.183549,0.791841,-0.59292
1630411804208,-0.183915,0.790438,-0.5927979999999999
1630411804218,-0.18483,0.7908649999999999,-0.591822
1630411804227,-0.184769,0.791597,-0.592981
1630411804237,-0.184037,0.791658,-0.591822
1630411804246,-0.18409799999999998,0.791597,-0.5915779999999999
1630411804256,-0.183854,0.79239,-0.591395
1630411804266,-0.184342,0.791536,-0.591395
1630411804275,-0.184647,0.792146,-0.590907
1630411804285,-0.184525,0.792268,-0.590724
1630411804294,-0.184464,0.792756,-0.590846
1630411804304,-0.18470799999999998,0.793061,-0.5917
1630411804314,-0.184464,0.791536,-0.5917
1630411804323,-0.185745,0.792024,-0.591456
1630411804333,-0.185684,0.790804,-0.591212
1630411804342,-0.185684,0.792268,-0.5909679999999999
1630411804352,-0.18544,0.792207,-0.591456
1630411804362,-0.18483,0.793976,-0.591395
1630411804371,-0.183915,0.795806,-0.5912729999999999
1630411804381,-0.182817,0.795745,-0.591334
1630411804390,-0.183366,0.794891,-0.59048
1630411804400,-0.18470799999999998,0.796721,-0.5906629999999999
1630411804410,-0.183976,0.796233,-0.591151
1630411804419,-0.184464,0.796965,-0.5909679999999999
1630411804429,-0.183366,0.795379,-0.591517
1630411804438,-0.185501,0.794159,-0.591334
1630411804448,-0.18544,0.791597,-0.592005
1630411804458,-0.184769,0.79361,-0.592676
1630411804467,-0.184586,0.793976,-0.595787
1630411804477,-0.185379,0.794159,-0.596275
1630411804486,-0.185501,0.793305,-0.590114
1630411804496,-0.18440299999999998,0.793244,-0.5879179999999999
1630411804506,-0.183671,0.794891,-0.588406
1630411804515,-0.181597,0.796111,-0.590236
1630411804525,-0.18257299999999999,0.795867,-0.59109
1630411804534,-0.182817,0.795379,-0.59109
1630411804544,-0.184159,0.794952,-0.59109
1630411804554,-0.184769,0.793732,-0.591517
1630411804563,-0.185562,0.791963,-0.590297
1630411804573,-0.18544,0.7920849999999999,-0.5906629999999999
1630411804582,-0.185379,0.792573,-0.5915779999999999
1630411804592,-0.184769,0.793,-0.5912729999999999
1630411804602,-0.185135,0.792634,-0.591517
1630411804611,-0.185257,0.792756,-0.593774
1630411804621,-0.18562299999999998,0.792512,-0.594079
1630411804630,-0.18470799999999998,0.79239,-0.592615
1630411804640,-0.18501299999999998,0.79239,-0.591822
1630411804650,-0.185196,0.793244,-0.59048
1630411804659,-0.183854,0.792573,-0.590602
1630411804669,-0.18440299999999998,0.792939,-0.590297
1630411804678,-0.185196,0.792451,-0.5915779999999999
1630411804688,-0.185562,0.792329,-0.5921879999999999
1630411804698,-0.184891,0.792512,-0.5918829999999999
1630411804707,-0.185379,0.792451,-0.591334
1630411804717,-0.184464,0.790987,-0.592127
1630411804726,-0.185074,0.790438,-0.593591
1630411804736,-0.185135,0.790438,-0.596641
1630411804746,-0.186111,0.791414,-0.597251
1630411804755,-0.18544,0.791536,-0.595177
1630411804765,-0.185257,0.791414,-0.59353
1630411804774,-0.18483,0.791719,-0.592249
1630411804784,-0.18409799999999998,0.790804,-0.592554
1630411804794,-0.185257,0.791109,-0.5937129999999999
1630411804803,-0.183549,0.791231,-0.593652
1630411804813,-0.183,0.791719,-0.594506
1630411804822,-0.182756,0.793732,-0.5943229999999999
1630411804832,-0.18287799999999999,0.793,-0.593896
1630411804842,-0.183366,0.792756,-0.593469
1630411804851,-0.182451,0.793305,-0.593835
1630411804861,-0.183366,0.793244,-0.592615
1630411804870,-0.182512,0.793305,-0.592249
1630411804880,-0.18318299999999998,0.793488,-0.593042
1630411804890,-0.18348799999999998,0.793427,-0.593286
1630411804899,-0.184037,0.792207,-0.593774
1630411804909,-0.183549,0.791963,-0.594811
1630411804918,-0.183244,0.791902,-0.5949329999999999
1630411804928,-0.183366,0.7920849999999999,-0.594811
1630411804938,-0.18379299999999998,0.791292,-0.5946279999999999
1630411804947,-0.183122,0.790194,-0.5940179999999999
1630411804957,-0.183122,0.790499,-0.59231
1630411804966,-0.183,0.790804,-0.59292
1630411804976,-0.182695,0.790499,-0.593347
1630411804986,-0.184464,0.790194,-0.594201
1630411804995,-0.18470799999999998,0.7899499999999999,-0.593774
1630411805005,-0.183976,0.791292,-0.594079
1630411805014,-0.183732,0.791414,-0.59475
1630411805024,-0.184464,0.791292,-0.595421
1630411805034,-0.184159,0.790621,-0.595787
1630411805043,-0.183854,0.789584,-0.595116
1630411805053,-0.183549,0.789462,-0.594811
1630411805062,-0.18318299999999998,0.790133,-0.59414
1630411805072,-0.183305,0.790499,-0.593652
1630411805082,-0.183,0.790011,-0.592554
1630411805091,-0.18239,0.791536,-0.591517
1630411805101,-0.181719,0.791414,-0.5912729999999999
1630411805110,-0.18117,0.793549,-0.591395
1630411805120,-0.18178,0.793122,-0.592615
1630411805130,-0.18056,0.79422,-0.593469
1630411805139,-0.180316,0.793,-0.595116
1630411805149,-0.182207,0.792512,-0.5937129999999999
1630411805158,-0.182939,0.793,-0.59353
1630411805168,-0.18239,0.79483,-0.593469
1630411805178,-0.18117,0.79483,-0.593896
1630411805187,-0.180194,0.794891,-0.593957
1630411805197,-0.181536,0.793183,-0.593347
1630411805206,-0.181597,0.791719,-0.593164
1630411805216,-0.18226799999999999,0.790194,-0.593835
1630411805226,-0.182451,0.792512,-0.597434
1630411805235,-0.183,0.791963,-0.598532
1630411805245,-0.184037,0.790011,-0.593225
1630411805254,-0.183427,0.7890349999999999,-0.591151
1630411805264,-0.182512,0.789523,-0.591822
1630411805274,-0.180316,0.7914749999999999,-0.594384
1630411805283,-0.178913,0.793488,-0.595055
1630411805293,-0.17946199999999998,0.793549,-0.593835
1630411805302,-0.180194,0.794342,-0.592432
1630411805312,-0.180987,0.793732,-0.591212
1630411805322,-0.180499,0.794342,-0.590724
1630411805331,-0.180865,0.79483,-0.5903579999999999
1630411805341,-0.180682,0.79483,-0.590297
1630411805350,-0.181292,0.795135,-0.5931029999999999
1630411805360,-0.18117,0.794708,-0.592859
1630411805370,-0.182512,0.79361,-0.593835
1630411805379,-0.182634,0.793183,-0.593286
1630411805389,-0.182817,0.792634,-0.5924929999999999
1630411805398,-0.182085,0.793549,-0.592554
1630411805408,-0.181841,0.792939,-0.5921879999999999
1630411805418,-0.180987,0.793061,-0.593042
1630411805427,-0.180987,0.792573,-0.592127
1630411805437,-0.182085,0.793122,-0.592005
1630411805446,-0.182451,0.793732,-0.5912729999999999
1630411805456,-0.182756,0.794952,-0.5909679999999999
1630411805466,-0.18239,0.793732,-0.589687
1630411805475,-0.182085,0.793366,-0.58987
1630411805485,-0.18226799999999999,0.794464,-0.594445
1630411805494,-0.18287799999999999,0.794525,-0.597129
1630411805504,-0.18348799999999998,0.794464,-0.595055
1630411805514,-0.18318299999999998,0.792878,-0.592554
1630411805523,-0.182634,0.793915,-0.5921879999999999
1630411805533,-0.18178,0.79422,-0.592005
1630411805542,-0.182146,0.792207,-0.592371
1630411805552,-0.18226799999999999,0.7917799999999999,-0.592249
1630411805562,-0.182756,0.791536,-0.591822
1630411805571,-0.18287799999999999,0.791597,-0.593347
1630411805581,-0.18196299999999999,0.7914749999999999,-0.593591
1630411805590,-0.183366,0.7905599999999999,-0.593896
1630411805600,-0.183305,0.791414,-0.593164
1630411805610,-0.182939,0.79239,-0.593225
1630411805619,-0.18196299999999999,0.793061,-0.59231
1630411805629,-0.182024,0.793488,-0.591944
1630411805638,-0.18239,0.79361,-0.5921879999999999
1630411805648,-0.182939,0.794708,-0.593469
1630411805658,-0.182695,0.794708,-0.5924929999999999
1630411805667,-0.182756,0.793122,-0.592676
1630411805677,-0.182695,0.792817,-0.592432
1630411805686,-0.184037,0.792756,-0.5924929999999999
1630411805696,-0.183854,0.792634,-0.593286
1630411805706,-0.183732,0.791658,-0.593286
1630411805715,-0.183244,0.791963,-0.593957
1630411805725,-0.183976,0.792512,-0.592615
1630411805734,-0.184159,0.79239,-0.591639
1630411805744,-0.184159,0.792817,-0.592127
1630411805754,-0.18470799999999998,0.792695,-0.592676
1630411805763,-0.184647,0.79239,-0.592432
1630411805773,-0.183854,0.792024,-0.591944
1630411805782,-0.184037,0.791353,-0.592066
1630411805792,-0.183976,0.792634,-0.592066
1630411805802,-0.183976,0.793,-0.59231
1630411805811,-0.184037,0.794098,-0.5931029999999999
1630411805821,-0.184586,0.794159,-0.5918829999999999
1630411805830,-0.18379299999999998,0.793854,-0.592432
1630411805840,-0.18422,0.793854,-0.592859
1630411805850,-0.184891,0.793244,-0.59292
1630411805859,-0.18348799999999998,0.793244,-0.5934079999999999
1630411805869,-0.183061,0.794464,-0.594201
1630411805878,-0.183305,0.793061,-0.594262
1630411805888,-0.183244,0.7917799999999999,-0.5934079999999999
1630411805898,-0.183854,0.791048,-0.593347
1630411805907,-0.183854,0.791597,-0.5927979999999999
1630411805917,-0.183854,0.7908649999999999,-0.591151
1630411805926,-0.183976,0.791353,-0.590907
1630411805936,-0.182634,0.792634,-0.592554
1630411805946,-0.181658,0.7920849999999999,-0.59414
1630411805955,-0.182146,0.7920849999999999,-0.5937129999999999
1630411805965,-0.18226799999999999,0.792878,-0.5940179999999999
1630411805974,-0.181719,0.794525,-0.595299
1630411805984,-0.181109,0.795806,-0.594994
1630411805994,-0.180987,0.796355,-0.592554
1630411806003,-0.179889,0.795379,-0.589382
1630411806013,-0.178486,0.795928,-0.589931
1630411806022,-0.177693,0.794525,-0.59231
1630411806032,-0.178425,0.793976,-0.593042
1630411806042,-0.178913,0.792268,-0.5931029999999999
1630411806051,-0.17934,0.7911699999999999,-0.592127
1630411806061,-0.180255,0.791109,-0.591151
1630411806070,-0.17976699999999998,0.7908649999999999,-0.589077
1630411806080,-0.180194,0.792207,-0.5903579999999999
1630411806090,-0.178425,0.792878,-0.590602
1630411806099,-0.178364,0.793732,-0.591944
1630411806109,-0.179706,0.793854,-0.591456
1630411806118,-0.179889,0.792878,-0.5927979999999999
1630411806128,-0.180438,0.792695,-0.5912729999999999
1630411806138,-0.181048,0.792817,-0.591212
1630411806147,-0.181231,0.794037,-0.5915779999999999
1630411806157,-0.18117,0.795074,-0.591151
1630411806166,-0.18117,0.795562,-0.591456
1630411806176,-0.180011,0.795562,-0.591456
1630411806186,-0.180072,0.796477,-0.590114
1630411806195,-0.18056,0.796172,-0.589199
1630411806205,-0.17934,0.79544,-0.5891379999999999
1630411806214,-0.180804,0.795928,-0.588711
1630411806224,-0.180072,0.796721,-0.592737
1630411806234,-0.181109,0.796538,-0.596092
1630411806243,-0.184525,0.792878,-0.593286
1630411806253,-0.184586,0.791963,-0.590846
1630411806262,-0.184952,0.791597,-0.591517
1630411806272,-0.18483,0.791536,-0.592615
1630411806282,-0.183976,0.792817,-0.593835
1630411806291,-0.183061,0.792756,-0.594445
1630411806301,-0.183122,0.793915,-0.5946279999999999
1630411806310,-0.182085,0.794342,-0.5946279999999999
1630411806320,-0.182817,0.793854,-0.5940179999999999
1630411806330,-0.183854,0.794525,-0.592432
1630411806339,-0.182451,0.794098,-0.592859
1630411806349,-0.182756,0.793122,-0.593652
1630411806358,-0.183122,0.792878,-0.5937129999999999
1630411806368,-0.18409799999999998,0.792329,-0.59414
1630411806378,-0.18409799999999998,0.792451,-0.5946279999999999
1630411806387,-0.183854,0.791536,-0.5946279999999999
1630411806397,-0.18501299999999998,0.7917799999999999,-0.594994
1630411806406,-0.18483,0.790682,-0.594445
1630411806416,-0.18409799999999998,0.791231,-0.5952379999999999
1630411806426,-0.18470799999999998,0.791292,-0.595116
1630411806435,-0.184464,0.791536,-0.594079
1630411806445,-0.184464,0.7914749999999999,-0.59414
1630411806454,-0.18348799999999998,0.791719,-0.593042
1630411806464,-0.183915,0.792634,-0.59353
1630411806474,-0.183732,0.792817,-0.592981
1630411806483,-0.184037,0.792756,-0.59292
1630411806493,-0.183854,0.792573,-0.592859
1630411806502,-0.18409799999999998,0.791597,-0.592981
1630411806512,-0.184281,0.793061,-0.592432
1630411806522,-0.184281,0.792451,-0.592005
1630411806531,-0.184891,0.79239,-0.5934079999999999
1630411806541,-0.183976,0.79239,-0.5943229999999999
1630411806550,-0.184342,0.791902,-0.593042
1630411806560,-0.18422,0.791292,-0.593042
1630411806570,-0.183915,0.790499,-0.5921879999999999
1630411806579,-0.18318299999999998,0.791536,-0.591761
1630411806589,-0.183244,0.791597,-0.5915779999999999
1630411806598,-0.183061,0.791841,-0.590907
1630411806608,-0.183244,0.791536,-0.591822
1630411806618,-0.182695,0.79239,-0.592249
1630411806627,-0.182024,0.793,-0.592676
1630411806637,-0.182146,0.792268,-0.591944
1630411806646,-0.182085,0.794342,-0.592005
1630411806656,-0.181475,0.795379,-0.591944
1630411806666,-0.180011,0.796843,-0.591944
1630411806675,-0.179828,0.797087,-0.591761
1630411806685,-0.179645,0.796538,-0.592249
1630411806694,-0.180438,0.79544,-0.5917
1630411806704,-0.181292,0.793122,-0.592432
1630411806714,-0.180865,0.793,-0.594079
1630411806723,-0.180499,0.794525,-0.595726
1630411806733,-0.180682,0.794586,-0.595726
1630411806742,-0.181841,0.793488,-0.5918829999999999
1630411806752,-0.180743,0.793732,-0.5891379999999999
1630411806762,-0.178974,0.795867,-0.590419
1630411806771,-0.178425,0.797026,-0.592066
1630411806781,-0.177388,0.796538,-0.592615
1630411806790,-0.177998,0.795928,-0.5934079999999999
1630411806800,-0.179584,0.794281,-0.592554
1630411806810,-0.180194,0.79361,-0.593042
1630411806819,-0.180316,0.793915,-0.591151
1630411806829,-0.180377,0.794464,-0.5906629999999999
1630411806838,-0.180499,0.795196,-0.591822
1630411806848,-0.180072,0.794891,-0.593469
1630411806858,-0.180316,0.793488,-0.5946279999999999
1630411806867,-0.181597,0.793244,-0.595055
1630411806877,-0.182146,0.792146,-0.59597
1630411806886,-0.181902,0.791292,-0.596641
1630411806896,-0.182695,0.788791,-0.5955429999999999
1630411806906,-0.183,0.7881199999999999,-0.595116
1630411806915,-0.183305,0.787632,-0.595604
1630411806925,-0.183061,0.787998,-0.597251
1630411806934,-0.183061,0.787998,-0.595299
1630411806944,-0.183305,0.788791,-0.5946279999999999
1630411806954,-0.183244,0.789584,-0.594689
1630411806963,-0.183,0.789706,-0.593957
1630411806973,-0.183,0.789584,-0.5943229999999999
1630411806982,-0.183122,0.789401,-0.596214
1630411806992,-0.184342,0.789096,-0.599752
1630411807002,-0.18483,0.788486,-0.600484
1630411807011,-0.18666,0.787754,-0.598959
1630411807021,-0.185562,0.788303,-0.59841
1630411807030,-0.185074,0.7884249999999999,-0.597312
1630411807040,-0.18483,0.788242,-0.597983
1630411807050,-0.18361,0.789157,-0.597861
1630411807059,-0.18409799999999998,0.788852,-0.597861
1630411807069,-0.18361,0.788669,-0.597007
1630411807078,-0.18409799999999998,0.788608,-0.597617
1630411807088,-0.18361,0.788547,-0.597922
1630411807098,-0.18318299999999998,0.787388,-0.598471
1630411807107,-0.183915,0.786656,-0.597922
1630411807117,-0.18483,0.787144,-0.598532
1630411807126,-0.185501,0.786168,-0.598654
1630411807136,-0.18531799999999998,0.786351,-0.598837
1630411807146,-0.18562299999999998,0.787327,-0.59902
1630411807155,-0.185074,0.7868999999999999,-0.599142
1630411807165,-0.18483,0.786351,-0.599325
1630411807174,-0.185257,0.787998,-0.59963
1630411807184,-0.185745,0.788059,-0.599569
1630411807194,-0.185074,0.788059,-0.599081
1630411807203,-0.186355,0.787083,-0.599264
1630411807213,-0.18531799999999998,0.787327,-0.599447
1630411807222,-0.186172,0.7865949999999999,-0.599447
1630411807232,-0.186416,0.786473,-0.599081
1630411807242,-0.187087,0.786839,-0.599691
1630411807251,-0.186721,0.787144,-0.599569
1630411807261,-0.186538,0.787449,-0.598532
1630411807270,-0.186599,0.787388,-0.598593
1630411807280,-0.186111,0.787449,-0.597495
1630411807290,-0.185684,0.7878149999999999,-0.59902
1630411807299,-0.185501,0.788364,-0.598044
1630411807309,-0.18562299999999998,0.788059,-0.597983
1630411807318,-0.185684,0.788608,-0.598105
1630411807328,-0.186721,0.7875099999999999,-0.598105
1630411807338,-0.185867,0.787022,-0.598227
1630411807347,-0.185745,0.787144,-0.596702
1630411807357,-0.185379,0.787266,-0.596885
1630411807366,-0.185196,0.788364,-0.59597
1630411807376,-0.18440299999999998,0.788608,-0.596214
1630411807386,-0.185074,0.7902549999999999,-0.596946
1630411807395,-0.183671,0.790499,-0.597678
1630411807405,-0.18440299999999998,0.790926,-0.597312
1630411807414,-0.183549,0.788852,-0.596946
1630411807424,-0.183915,0.789096,-0.597007
1630411807434,-0.18422,0.789828,-0.597434
1630411807443,-0.183854,0.790743,-0.596824
1630411807453,-0.18318299999999998,0.7908649999999999,-0.5961529999999999
1630411807462,-0.183122,0.790316,-0.596824
1630411807472,-0.183122,0.789889,-0.5961529999999999
1630411807482,-0.18348799999999998,0.787998,-0.594994
1630411807491,-0.183122,0.789279,-0.596946
1630411807501,-0.183549,0.791231,-0.599996
1630411807510,-0.184037,0.790926,-0.598044
1630411807520,-0.184769,0.789584,-0.593835
1630411807530,-0.182817,0.790804,-0.5927979999999999
1630411807539,-0.18239,0.791841,-0.5940179999999999
1630411807549,-0.182085,0.792207,-0.595421
1630411807558,-0.181719,0.792878,-0.59719
1630411807568,-0.181719,0.791536,-0.5964579999999999
1630411807578,-0.183732,0.790621,-0.59719
1630411807587,-0.18287799999999999,0.790133,-0.595787
1630411807597,-0.183366,0.790316,-0.5940179999999999
1630411807606,-0.183671,0.790194,-0.594567
1630411807616,-0.18287799999999999,0.791414,-0.594689
1630411807626,-0.182634,0.791597,-0.595665
1630411807635,-0.184281,0.7908649999999999,-0.597739
1630411807645,-0.184525,0.790133,-0.597861
1630411807654,-0.18544,0.788547,-0.598898
1630411807664,-0.185928,0.787632,-0.598044
1630411807674,-0.185745,0.787144,-0.596885
1630411807683,-0.18605,0.787388,-0.596885
1630411807693,-0.186111,0.787876,-0.5961529999999999
1630411807702,-0.185562,0.7893399999999999,-0.596397
1630411807712,-0.185562,0.789218,-0.597556
1630411807722,-0.18562299999999998,0.790987,-0.597312
1630411807731,-0.185867,0.791048,-0.59658
1630411807741,-0.18483,0.790499,-0.596275
1630411807750,-0.184342,0.788791,-0.597434
1630411807760,-0.18470799999999998,0.7890349999999999,-0.599447
1630411807770,-0.185074,0.787327,-0.601765
1630411807779,-0.186416,0.786107,-0.600057
1630411807789,-0.187026,0.785314,-0.599264
1630411807798,-0.18605,0.786656,-0.598227
1630411807808,-0.185379,0.787388,-0.598532
1630411807818,-0.185196,0.787754,-0.598349
1630411807827,-0.185257,0.787144,-0.598349
1630411807837,-0.184464,0.7884249999999999,-0.59841
1630411807846,-0.18470799999999998,0.7875099999999999,-0.599203
1630411807856,-0.184586,0.7875099999999999,-0.599935
1630411807866,-0.185806,0.787022,-0.59902
1630411807875,-0.18544,0.786412,-0.599386
1630411807885,-0.18470799999999998,0.787266,-0.598959
1630411807894,-0.185379,0.786656,-0.598959
1630411807904,-0.185867,0.786839,-0.60085
1630411807914,-0.186416,0.786534,-0.600057
1630411807923,-0.187026,0.786534,-0.600118
1630411807933,-0.186355,0.786168,-0.600972
1630411807942,-0.186355,0.786717,-0.601216
1630411807952,-0.186843,0.7862899999999999,-0.601033
1630411807962,-0.186599,0.786168,-0.599874
1630411807971,-0.185867,0.786229,-0.600362
1630411807981,-0.18605,0.7853749999999999,-0.599508
1630411807990,-0.185928,0.785436,-0.599813
1630411808000,-0.186416,0.786168,-0.599569
1630411808010,-0.18531799999999998,0.785802,-0.599569
1630411808019,-0.185379,0.784704,-0.598166
1630411808029,-0.187209,0.784704,-0.598776
1630411808038,-0.186416,0.784826,-0.598654
1630411808048,-0.185745,0.785131,-0.598044
1630411808058,-0.186294,0.785436,-0.599508
1630411808067,-0.18605,0.786778,-0.599813
1630411808077,-0.186355,0.7859849999999999,-0.60085
1630411808086,-0.185867,0.786168,-0.600545
1630411808096,-0.185562,0.787388,-0.59963
1630411808106,-0.185867,0.787266,-0.599569
1630411808115,-0.18440299999999998,0.786961,-0.598776
1630411808125,-0.18470799999999998,0.786839,-0.598349
1630411808134,-0.18409799999999998,0.786839,-0.598532
1630411808144,-0.18470799999999998,0.7881199999999999,-0.597739
1630411808154,-0.183549,0.7890349999999999,-0.597312
1630411808163,-0.18318299999999998,0.790011,-0.596275
1630411808173,-0.182451,0.7899499999999999,-0.595482
1630411808182,-0.182146,0.791231,-0.596031
1630411808192,-0.182207,0.791414,-0.59658
1630411808202,-0.182329,0.792634,-0.596946
1630411808211,-0.181902,0.792512,-0.597495
1630411808221,-0.181475,0.792451,-0.59719
1630411808230,-0.18196299999999999,0.791414,-0.596946
1630411808240,-0.183305,0.789828,-0.597434
1630411808250,-0.18348799999999998,0.791414,-0.598288
1630411808259,-0.182817,0.7914749999999999,-0.596641
1630411808269,-0.18226799999999999,0.790438,-0.5964579999999999
1630411808278,-0.182695,0.7893399999999999,-0.597007
1630411808288,-0.183305,0.7868999999999999,-0.597251
1630411808298,-0.184586,0.785436,-0.597129
1630411808307,-0.18470799999999998,0.786961,-0.59963
1630411808317,-0.184647,0.787449,-0.601704
1630411808326,-0.184891,0.787388,-0.597922
1630411808336,-0.185196,0.787754,-0.5943229999999999
1630411808346,-0.184342,0.788852,-0.594262
1630411808355,-0.183671,0.790072,-0.596214
1630411808365,-0.183244,0.790682,-0.5970679999999999
1630411808374,-0.18226799999999999,0.790926,-0.596824
1630411808384,-0.18287799999999999,0.790499,-0.596336
1630411808394,-0.182512,0.789279,-0.5958479999999999
1630411808403,-0.183244,0.7902549999999999,-0.595482
1630411808413,-0.183061,0.791048,-0.59414
1630411808422,-0.183244,0.7905599999999999,-0.5931029999999999
1630411808432,-0.182695,0.7905599999999999,-0.593774
1630411808442,-0.182329,0.790377,-0.594994
1630411808451,-0.18226799999999999,0.791292,-0.596885
1630411808461,-0.183061,0.790072,-0.596397
1630411808470,-0.183305,0.789401,-0.5964579999999999
1630411808480,-0.18318299999999998,0.790133,-0.595726
1630411808490,-0.182939,0.790377,-0.595421
1630411808499,-0.183366,0.790377,-0.5958479999999999
1630411808509,-0.182329,0.790743,-0.595116
1630411808518,-0.18196299999999999,0.791353,-0.595482
1630411808528,-0.183549,0.791048,-0.59536
1630411808538,-0.183366,0.792146,-0.595726
1630411808547,-0.183244,0.7917799999999999,-0.593347
1630411808557,-0.18287799999999999,0.790804,-0.594201
1630411808566,-0.18318299999999998,0.7920849999999999,-0.5964579999999999
1630411808576,-0.18318299999999998,0.791902,-0.60024
1630411808586,-0.184464,0.7908649999999999,-0.598471
1630411808595,-0.18605,0.790499,-0.5958479999999999
1630411808605,-0.186111,0.790072,-0.59475
1630411808614,-0.18531799999999998,0.790316,-0.596092
1630411808624,-0.185379,0.789462,-0.596275
1630411808634,-0.185074,0.788791,-0.59719
1630411808643,-0.185196,0.788608,-0.5970679999999999
1630411808653,-0.18470799999999998,0.788974,-0.598166
1630411808662,-0.184586,0.788791,-0.597007
1630411808672,-0.184586,0.787998,-0.597434
1630411808682,-0.18470799999999998,0.788303,-0.596275
1630411808691,-0.18409799999999998,0.788913,-0.59597
1630411808701,-0.183976,0.789706,-0.596519
1630411808710,-0.184525,0.790377,-0.595726
1630411808720,-0.185196,0.790194,-0.596275
1630411808730,-0.18544,0.790072,-0.5967629999999999
1630411808739,-0.184647,0.789828,-0.596092
1630411808749,-0.185257,0.789401,-0.5955429999999999
1630411808758,-0.185196,0.789523,-0.596214
1630411808768,-0.18422,0.788486,-0.5970679999999999
1630411808778,-0.185074,0.788486,-0.596397
1630411808787,-0.185562,0.7890349999999999,-0.596824
1630411808797,-0.18544,0.789218,-0.596092
1630411808806,-0.185806,0.7899499999999999,-0.596946
1630411808816,-0.184891,0.7902549999999999,-0.595909
1630411808826,-0.18440299999999998,0.7911699999999999,-0.595116
1630411808835,-0.184586,0.791536,-0.595787
1630411808845,-0.18409799999999998,0.7905599999999999,-0.595909
1630411808854,-0.18483,0.790987,-0.59536
1630411808864,-0.184159,0.7899499999999999,-0.595665
1630411808874,-0.185135,0.789584,-0.596397
1630411808883,-0.184464,0.788791,-0.596946
1630411808893,-0.18422,0.789584,-0.595299
1630411808902,-0.184647,0.788669,-0.5958479999999999
1630411808912,-0.18470799999999998,0.789828,-0.5958479999999999
1630411808922,-0.18318299999999998,0.789096,-0.59536
1630411808931,-0.183427,0.789584,-0.5955429999999999
1630411808941,-0.18287799999999999,0.790011,-0.594384
1630411808950,-0.182817,0.791109,-0.595726
1630411808960,-0.183,0.791536,-0.595726
1630411808970,-0.182085,0.792329,-0.595421
1630411808979,-0.182634,0.792634,-0.59536
1630411808989,-0.182695,0.792878,-0.595482
1630411808998,-0.182085,0.792939,-0.595726
1630411809008,-0.181292,0.792146,-0.595177
1630411809018,-0.181658,0.791292,-0.596214
1630411809027,-0.182024,0.790682,-0.596336
1630411809037,-0.183854,0.790072,-0.594811
1630411809046,-0.183732,0.791231,-0.593957
1630411809056,-0.182146,0.791963,-0.593286
1630411809066,-0.181719,0.792451,-0.594079
1630411809075,-0.181536,0.791841,-0.59658
1630411809085,-0.181292,0.789889,-0.596397
1630411809094,-0.18379299999999998,0.7890349999999999,-0.596275
1630411809104,-0.184037,0.789889,-0.597983
1630411809114,-0.184464,0.790377,-0.598898
1630411809123,-0.184647,0.789828,-0.5978
1630411809133,-0.184281,0.790804,-0.593957
1630411809142,-0.182695,0.7917799999999999,-0.5946279999999999
1630411809152,-0.181414,0.791536,-0.5958479999999999
1630411809162,-0.181841,0.790804,-0.596031
1630411809171,-0.180621,0.7905599999999999,-0.596092
1630411809181,-0.181414,0.789706,-0.594567
1630411809190,-0.182451,0.788791,-0.593469
1630411809200,-0.182512,0.7875099999999999,-0.591944
1630411809210,-0.181536,0.7887299999999999,-0.590297
1630411809219,-0.181292,0.7902549999999999,-0.590907
1630411809229,-0.180682,0.791353,-0.591761
1630411809238,-0.181414,0.7917799999999999,-0.592859
1630411809248,-0.181414,0.792695,-0.593957
1630411809258,-0.182451,0.792695,-0.5949329999999999
1630411809267,-0.183061,0.793,-0.594384
1630411809277,-0.183366,0.793366,-0.594262
1630411809286,-0.183671,0.793366,-0.593286
1630411809296,-0.183305,0.79483,-0.5937129999999999
1630411809306,-0.184037,0.79422,-0.593469
1630411809315,-0.184464,0.794647,-0.592981
1630411809325,-0.184342,0.794403,-0.59292
1630411809334,-0.184586,0.793244,-0.591334
1630411809344,-0.184281,0.792146,-0.592005
1630411809354,-0.184586,0.791841,-0.594506
1630411809363,-0.185074,0.792268,-0.598044
1630411809373,-0.185745,0.790987,-0.59902
1630411809382,-0.187514,0.7905599999999999,-0.596641
1630411809392,-0.187148,0.788974,-0.594567
1630411809402,-0.187209,0.788547,-0.5940179999999999
1630411809411,-0.187941,0.788486,-0.59536
1630411809421,-0.186111,0.789523,-0.595909
1630411809430,-0.18605,0.790072,-0.596702
1630411809440,-0.185501,0.789279,-0.597312
1630411809450,-0.186294,0.789828,-0.596214
1630411809459,-0.186416,0.790194,-0.597129
1630411809469,-0.186294,0.790133,-0.595665
1630411809478,-0.186477,0.7902549999999999,-0.594567
1630411809488,-0.186111,0.790621,-0.59597
1630411809498,-0.185501,0.7908649999999999,-0.596092
1630411809507,-0.185989,0.791048,-0.596275
1630411809517,-0.186233,0.790804,-0.5952379999999999
1630411809526,-0.187026,0.790316,-0.596275
1630411809536,-0.187087,0.790133,-0.596702
1630411809546,-0.186904,0.790621,-0.59597
1630411809555,-0.187331,0.789584,-0.597007
1630411809565,-0.186233,0.790499,-0.5961529999999999
1630411809574,-0.186416,0.7902549999999999,-0.595787
1630411809584,-0.186782,0.790011,-0.5946279999999999
1630411809594,-0.186172,0.790621,-0.5949329999999999
1630411809603,-0.184525,0.790987,-0.594445
1630411809613,-0.18544,0.791109,-0.594689
1630411809622,-0.184342,0.791292,-0.59414
1630411809632,-0.18562299999999998,0.791597,-0.593042
1630411809642,-0.184586,0.7920849999999999,-0.593652
1630411809651,-0.185379,0.791963,-0.593896
1630411809661,-0.184342,0.792329,-0.593164
1630411809670,-0.185501,0.791719,-0.593652
1630411809680,-0.184647,0.791902,-0.593347
1630411809690,-0.18501299999999998,0.7917799999999999,-0.59353
1630411809699,-0.18409799999999998,0.792268,-0.593164
1630411809709,-0.185135,0.7917799999999999,-0.593469
1630411809718,-0.184159,0.792695,-0.593164
1630411809728,-0.183061,0.792634,-0.593164
1630411809738,-0.183671,0.792329,-0.593164
1630411809747,-0.183244,0.793244,-0.592859
1630411809757,-0.183305,0.793366,-0.592554
1630411809766,-0.183854,0.793366,-0.5909679999999999
1630411809776,-0.18361,0.792634,-0.590907
1630411809786,-0.182024,0.794037,-0.591517
1630411809795,-0.182512,0.794281,-0.5917
1630411809805,-0.182329,0.795501,-0.592066
1630411809814,-0.181536,0.79544,-0.591639
1630411809824,-0.181597,0.79483,-0.592066
1630411809834,-0.181353,0.794769,-0.591151
1630411809843,-0.18226799999999999,0.79483,-0.5918829999999999
1630411809853,-0.182756,0.796538,-0.592432
1630411809862,-0.182451,0.796477,-0.5917
1630411809872,-0.18178,0.794952,-0.591517
1630411809882,-0.183,0.793305,-0.591639
1630411809891,-0.183732,0.790438,-0.593652
1630411809901,-0.183732,0.789767,-0.595665
1630411809910,-0.184037,0.789828,-0.59841
1630411809920,-0.184769,0.791292,-0.598044
1630411809930,-0.18531799999999998,0.789584,-0.592981
1630411809939,-0.18531799999999998,0.7893399999999999,-0.5909679999999999
1630411809949,-0.18379299999999998,0.789828,-0.592371
1630411809958,-0.183427,0.790926,-0.593896
1630411809968,-0.18287799999999999,0.790682,-0.59475
1630411809978,-0.183427,0.790682,-0.594994
1630411809987,-0.184586,0.791048,-0.5955429999999999
1630411809997,-0.18483,0.7908649999999999,-0.5955429999999999
1630411810006,-0.184586,0.792024,-0.593835
1630411810016,-0.18422,0.7914749999999999,-0.592432
1630411810026,-0.18409799999999998,0.792207,-0.5931029999999999
1630411810035,-0.184586,0.791841,-0.593469
1630411810045,-0.18483,0.792817,-0.5949329999999999
1630411810054,-0.185135,0.791353,-0.5952379999999999
1630411810064,-0.18605,0.790987,-0.5961529999999999
1630411810074,-0.187209,0.7896449999999999,-0.596336
1630411810083,-0.186965,0.788364,-0.596092
1630411810093,-0.188063,0.7881199999999999,-0.596092
1630411810102,-0.188307,0.787449,-0.596092
1630411810112,-0.18781899999999999,0.7881199999999999,-0.596824
1630411810122,-0.188002,0.7884249999999999,-0.596214
1630411810131,-0.188551,0.7875099999999999,-0.597312
1630411810141,-0.188917,0.787754,-0.596885
1630411810150,-0.188368,0.788059,-0.596092
1630411810160,-0.188673,0.786717,-0.5958479999999999
1630411810170,-0.18842899999999999,0.7875099999999999,-0.597434
1630411810179,-0.189161,0.787693,-0.600118
1630411810189,-0.18995399999999998,0.786778,-0.600423
1630411810198,-0.190198,0.785863,-0.598166
1630411810208,-0.189161,0.786534,-0.597556
1630411810218,-0.18873399999999999,0.786168,-0.598044
1630411810227,-0.188185,0.786412,-0.59841
1630411810237,-0.18812399999999999,0.786717,-0.598105
1630411810246,-0.188612,0.787876,-0.598166
1630411810256,-0.18849,0.787022,-0.597861
1630411810266,-0.188368,0.787327,-0.597556
1630411810275,-0.187636,0.786961,-0.597861
1630411810285,-0.18666,0.7872049999999999,-0.5970679999999999
1630411810294,-0.187331,0.7881199999999999,-0.597007
1630411810304,-0.186904,0.788303,-0.596946
1630411810314,-0.187331,0.7887299999999999,-0.596885
1630411810323,-0.18781899999999999,0.788913,-0.596824
1630411810333,-0.186843,0.788913,-0.5970679999999999
1630411810342,-0.18666,0.789279,-0.597129
1630411810352,-0.187758,0.788974,-0.596824
1630411810362,-0.187758,0.789096,-0.596275
1630411810371,-0.186965,0.789706,-0.596885
1630411810381,-0.187148,0.788852,-0.5970679999999999
1630411810390,-0.187575,0.790194,-0.596641
1630411810400,-0.187209,0.7896449999999999,-0.595604
1630411810410,-0.187209,0.789218,-0.59597
1630411810419,-0.187514,0.789096,-0.595726
1630411810429,-0.187087,0.789889,-0.5955429999999999
1630411810438,-0.187514,0.789096,-0.595787
1630411810448,-0.18788,0.789218,-0.594872
1630411810458,-0.186233,0.790011,-0.59597
1630411810467,-0.186904,0.790072,-0.5952379999999999
1630411810477,-0.187209,0.789523,-0.5949329999999999
1630411810486,-0.186843,0.789706,-0.594872
1630411810496,-0.187331,0.789706,-0.59475
1630411810506,-0.187087,0.7899499999999999,-0.5940179999999999
1630411810515,-0.186416,0.790377,-0.5946279999999999
1630411810525,-0.185562,0.790743,-0.593652
1630411810534,-0.18531799999999998,0.7902549999999999,-0.594689
1630411810544,-0.184525,0.790133,-0.593896
1630411810554,-0.184159,0.7905599999999999,-0.59414
1630411810563,-0.185135,0.790316,-0.59353
1630411810573,-0.18483,0.790316,-0.593957
1630411810582,-0.184769,0.7899499999999999,-0.59353
1630411810592,-0.18501299999999998,0.791353,-0.594079
1630411810602,-0.184525,0.792268,-0.595421
1630411810611,-0.18379299999999998,0.792512,-0.5952379999999999
1630411810621,-0.183854,0.791658,-0.595726
1630411810630,-0.183671,0.791353,-0.595299
1630411810640,-0.183915,0.791048,-0.594567
1630411810650,-0.18483,0.7917799999999999,-0.596214
1630411810659,-0.184159,0.791597,-0.594567
1630411810669,-0.18361,0.791597,-0.594811
1630411810678,-0.184037,0.791719,-0.594811
1630411810688,-0.18470799999999998,0.789889,-0.59536
1630411810698,-0.184952,0.787571,-0.596092
1630411810707,-0.18544,0.788181,-0.59841
1630411810717,-0.186111,0.7890349999999999,-0.599935
1630411810726,-0.18666,0.788059,-0.597739
1630411810736,-0.187636,0.786778,-0.594262
1630411810746,-0.187148,0.788242,-0.5937129999999999
1630411810755,-0.18501299999999998,0.789523,-0.5949329999999999
1630411810765,-0.18531799999999998,0.7899499999999999,-0.59658
1630411810774,-0.186172,0.789889,-0.596336
1630411810784,-0.185684,0.790682,-0.597129
1630411810794,-0.186538,0.790438,-0.597617
1630411810803,-0.186355,0.790194,-0.5964579999999999
1630411810813,-0.186477,0.790133,-0.59414
1630411810822,-0.187209,0.789767,-0.5934079999999999
1630411810832,-0.186599,0.790194,-0.593591
1630411810842,-0.186721,0.791048,-0.5952379999999999
1630411810851,-0.186782,0.790072,-0.596946
1630411810861,-0.187758,0.7893399999999999,-0.597129
1630411810870,-0.188002,0.788364,-0.597129
1630411810880,-0.187636,0.788852,-0.5958479999999999
1630411810890,-0.18788,0.789279,-0.595787
1630411810899,-0.187453,0.788791,-0.594994
1630411810909,-0.186904,0.7884249999999999,-0.596397
1630411810918,-0.187636,0.7890349999999999,-0.596336
1630411810928,-0.187575,0.789279,-0.596885
1630411810938,-0.188307,0.7887299999999999,-0.596397
1630411810947,-0.188673,0.788791,-0.595665
1630411810957,-0.187026,0.788181,-0.5952379999999999
1630411810966,-0.187453,0.787754,-0.5964579999999999
1630411810976,-0.188063,0.788608,-0.599386
1630411810986,-0.18788,0.787388,-0.599325
1630411810995,-0.18849,0.786717,-0.595787
1630411811005,-0.1891,0.786839,-0.594994
1630411811014,-0.18812399999999999,0.7875099999999999,-0.596214
1630411811024,-0.188002,0.7875099999999999,-0.596641
1630411811034,-0.187392,0.7875099999999999,-0.597007
1630411811043,-0.188185,0.7872049999999999,-0.596702
1630411811053,-0.189161,0.787876,-0.597617
1630411811062,-0.189283,0.788852,-0.596092
1630411811072,-0.189466,0.788791,-0.596031
1630411811082,-0.188551,0.788913,-0.595787
1630411811091,-0.187941,0.789828,-0.595421
1630411811101,-0.187392,0.790377,-0.595177
1630411811110,-0.18666,0.791414,-0.595177
1630411811120,-0.186782,0.790926,-0.594994
1630411811130,-0.186782,0.790316,-0.595055
1630411811139,-0.188002,0.7905599999999999,-0.594445
1630411811149,-0.187453,0.791231,-0.5940179999999999
1630411811158,-0.187758,0.791353,-0.59414
1630411811168,-0.187941,0.791048,-0.594201
1630411811178,-0.187453,0.791902,-0.594567
1630411811187,-0.188063,0.792024,-0.595299
1630411811197,-0.188246,0.7911699999999999,-0.595055
1630411811206,-0.189283,0.789889,-0.5949329999999999
1630411811216,-0.188246,0.790133,-0.5940179999999999
1630411811226,-0.188307,0.789889,-0.594872
1630411811235,-0.188368,0.789828,-0.5949329999999999
1630411811245,-0.187575,0.790194,-0.59414
1630411811254,-0.18812399999999999,0.789462,-0.594872
1630411811264,-0.186904,0.790743,-0.59414
1630411811274,-0.186416,0.791109,-0.5949329999999999
1630411811283,-0.185867,0.791353,-0.594506
1630411811293,-0.186721,0.790987,-0.593774
1630411811302,-0.186843,0.791231,-0.593896
1630411811312,-0.18666,0.7914749999999999,-0.59414
1630411811322,-0.186233,0.791902,-0.5937129999999999
1630411811331,-0.186355,0.7908649999999999,-0.593896
1630411811341,-0.185379,0.7917799999999999,-0.593347
1630411811350,-0.185379,0.7920849999999999,-0.59231
1630411811360,-0.185562,0.792573,-0.592066
1630411811370,-0.185745,0.792573,-0.5909679999999999
1630411811379,-0.184891,0.793427,-0.5915779999999999
1630411811389,-0.18483,0.792939,-0.592066
1630411811398,-0.184464,0.794159,-0.592981
1630411811408,-0.183854,0.794159,-0.593042
1630411811418,-0.183305,0.793427,-0.593286
1630411811427,-0.184586,0.793671,-0.592737
1630411811437,-0.185745,0.794342,-0.591822
1630411811446,-0.184586,0.793915,-0.590907
1630411811456,-0.183366,0.793671,-0.59231
1630411811466,-0.183976,0.793915,-0.593469
1630411811475,-0.18379299999999998,0.791109,-0.593652
1630411811485,-0.183854,0.789584,-0.5937129999999999
1630411811494,-0.185501,0.790621,-0.5958479999999999
1630411811504,-0.185562,0.791902,-0.595909
1630411811514,-0.187026,0.7908649999999999,-0.5937129999999999
1630411811523,-0.187392,0.7917799999999999,-0.591029
1630411811533,-0.18531799999999998,0.793427,-0.592737
1630411811542,-0.182756,0.794342,-0.5946279999999999
1630411811552,-0.182756,0.79422,-0.59475
1630411811562,-0.18226799999999999,0.79422,-0.595177
1630411811571,-0.183976,0.794098,-0.594079
1630411811581,-0.184769,0.792695,-0.594201
1630411811590,-0.185135,0.791902,-0.59353
1630411811600,-0.185806,0.790987,-0.592432
1630411811610,-0.185196,0.7914749999999999,-0.591517
1630411811619,-0.18483,0.791719,-0.5921879999999999
1630411811629,-0.18361,0.791719,-0.5934079999999999
1630411811638,-0.18409799999999998,0.7914749999999999,-0.594567
1630411811648,-0.183976,0.790743,-0.5946279999999999
1630411811658,-0.185379,0.790377,-0.594567
1630411811667,-0.185257,0.790926,-0.594079
1630411811677,-0.184586,0.790926,-0.5946279999999999
1630411811686,-0.18422,0.791109,-0.595177
1630411811696,-0.185135,0.791109,-0.594567
1630411811706,-0.185135,0.7914749999999999,-0.594506
1630411811715,-0.184281,0.7905599999999999,-0.594872
1630411811725,-0.18544,0.791841,-0.594567
1630411811734,-0.18422,0.790072,-0.59353
1630411811744,-0.18409799999999998,0.790072,-0.5949329999999999
1630411811754,-0.184586,0.791536,-0.597922
1630411811763,-0.18501299999999998,0.7908649999999999,-0.600118
1630411811773,-0.184952,0.788852,-0.595604
1630411811782,-0.185196,0.787998,-0.594262
1630411811792,-0.185684,0.789096,-0.59475
1630411811802,-0.185074,0.788303,-0.596092
1630411811811,-0.18544,0.7893399999999999,-0.597495
1630411811821,-0.18440299999999998,0.788852,-0.598349
1630411811830,-0.184586,0.789706,-0.5978
1630411811840,-0.184464,0.789523,-0.597617
1630411811850,-0.18409799999999998,0.788547,-0.597312
1630411811859,-0.184159,0.7896449999999999,-0.59658
1630411811869,-0.183427,0.7902549999999999,-0.595665
1630411811878,-0.183915,0.790926,-0.596275
1630411811888,-0.184037,0.7902549999999999,-0.596885
1630411811898,-0.18361,0.7908649999999999,-0.596336
1630411811907,-0.18409799999999998,0.7908649999999999,-0.596031
1630411811917,-0.18348799999999998,0.790682,-0.5949329999999999
1630411811926,-0.183549,0.791048,-0.595116
1630411811936,-0.183549,0.791597,-0.595421
1630411811946,-0.182512,0.791597,-0.5943229999999999
1630411811955,-0.18226799999999999,0.791841,-0.594811
1630411811965,-0.183,0.791292,-0.594689
1630411811974,-0.18287799999999999,0.790194,-0.594872
1630411811984,-0.182634,0.789157,-0.594811
1630411811994,-0.183366,0.788852,-0.595482
1630411812003,-0.182695,0.788974,-0.594506
1630411812013,-0.18287799999999999,0.789828,-0.594384
1630411812022,-0.182329,0.7905599999999999,-0.594811
1630411812032,-0.182512,0.790743,-0.594262
1630411812042,-0.18239,0.7908649999999999,-0.5934079999999999
1630411812051,-0.181902,0.790804,-0.5927979999999999
1630411812061,-0.18196299999999999,0.791292,-0.592005
1630411812070,-0.182634,0.791658,-0.592005
1630411812080,-0.182695,0.792573,-0.592859
1630411812090,-0.181902,0.793427,-0.592371
1630411812099,-0.182085,0.793122,-0.592432
1630411812109,-0.182512,0.793671,-0.5931029999999999
1630411812118,-0.182512,0.794281,-0.592615
1630411812128,-0.182512,0.794403,-0.593652
1630411812138,-0.182634,0.795318,-0.593835
1630411812147,-0.181902,0.793366,-0.5934079999999999
1630411812157,-0.183061,0.793854,-0.593469
1630411812166,-0.183854,0.793854,-0.593286
1630411812176,-0.18422,0.793732,-0.59231
1630411812186,-0.183732,0.794403,-0.593042
1630411812195,-0.183061,0.793305,-0.594262
1630411812205,-0.181841,0.792329,-0.596275
1630411812214,-0.18348799999999998,0.789096,-0.594445
1630411812224,-0.184952,0.790011,-0.595482
1630411812234,-0.184586,0.791902,-0.597556
1630411812243,-0.184525,0.792512,-0.597312
1630411812253,-0.183976,0.791353,-0.593774
1630411812262,-0.18440299999999998,0.790682,-0.5915779999999999
1630411812272,-0.183061,0.792756,-0.5918829999999999
1630411812282,-0.182451,0.793976,-0.593652
1630411812291,-0.182756,0.793488,-0.595055
1630411812301,-0.18239,0.792512,-0.595116
1630411812310,-0.183244,0.791292,-0.5955429999999999
1630411812320,-0.18361,0.790926,-0.595421
1630411812330,-0.184769,0.791658,-0.593896
1630411812339,-0.184281,0.791963,-0.593042
1630411812349,-0.18470799999999998,0.791597,-0.5931029999999999
1630411812358,-0.184769,0.791902,-0.594262
1630411812368,-0.185074,0.7920849999999999,-0.595055
1630411812378,-0.18483,0.790682,-0.595116
1630411812387,-0.185806,0.790194,-0.594811
1630411812397,-0.186172,0.789584,-0.5949329999999999
1630411812406,-0.186477,0.790072,-0.594201
1630411812416,-0.186294,0.789523,-0.594506
1630411812426,-0.18605,0.7899499999999999,-0.5940179999999999
1630411812435,-0.185928,0.790011,-0.595604
1630411812445,-0.18605,0.790316,-0.594567
1630411812454,-0.186416,0.790316,-0.594262
1630411812464,-0.184647,0.789828,-0.593286
1630411812474,-0.184952,0.790194,-0.593957
1630411812483,-0.18501299999999998,0.791231,-0.596824
1630411812493,-0.184586,0.7917799999999999,-0.598349
1630411812502,-0.18501299999999998,0.7914749999999999,-0.5970679999999999
1630411812512,-0.18605,0.790072,-0.594262
1630411812522,-0.186355,0.7899499999999999,-0.59353
1630411812531,-0.185806,0.789706,-0.594079
1630411812541,-0.184952,0.790499,-0.595665
1630411812550,-0.183122,0.7911699999999999,-0.596275
1630411812560,-0.184159,0.791109,-0.596824
1630411812570,-0.18409799999999998,0.7911699999999999,-0.5967629999999999
1630411812579,-0.18348799999999998,0.7905599999999999,-0.596092
1630411812589,-0.182695,0.790133,-0.594994
1630411812598,-0.183122,0.790072,-0.5934079999999999
1630411812608,-0.181658,0.7908649999999999,-0.5934079999999999
1630411812618,-0.181231,0.791048,-0.593042
1630411812627,-0.182085,0.791292,-0.593835
1630411812637,-0.18287799999999999,0.791109,-0.59475
1630411812646,-0.18318299999999998,0.791414,-0.59536
1630411812656,-0.183244,0.791292,-0.5952379999999999
1630411812666,-0.18409799999999998,0.7911699999999999,-0.595299
1630411812675,-0.183244,0.791597,-0.594689
1630411812685,-0.183671,0.791841,-0.5958479999999999
1630411812694,-0.184159,0.791414,-0.596275
1630411812704,-0.184647,0.790438,-0.595482
1630411812714,-0.184586,0.790743,-0.595116
1630411812723,-0.185074,0.790804,-0.595726
1630411812733,-0.185928,0.790804,-0.594872
1630411812742,-0.184952,0.790682,-0.594262
1630411812752,-0.184952,0.790194,-0.5940179999999999
1630411812762,-0.184952,0.789767,-0.5949329999999999
1630411812771,-0.186233,0.790438,-0.594384
1630411812781,-0.186355,0.790133,-0.594445
1630411812790,-0.185684,0.790377,-0.594689
1630411812800,-0.186416,0.7902549999999999,-0.5946279999999999
1630411812810,-0.186294,0.790011,-0.594689
1630411812819,-0.18666,0.788791,-0.5955429999999999
1630411812829,-0.187148,0.788852,-0.5946279999999999
1630411812838,-0.187697,0.788547,-0.5946279999999999
1630411812848,-0.186843,0.788791,-0.594079
1630411812858,-0.186965,0.789706,-0.594262
1630411812867,-0.185501,0.790621,-0.59414
1630411812877,-0.185684,0.791536,-0.595299
1630411812886,-0.18531799999999998,0.791902,-0.5955429999999999
1630411812896,-0.185196,0.791292,-0.595726
1630411812906,-0.186843,0.7902549999999999,-0.59414
1630411812915,-0.186477,0.790804,-0.594506
1630411812925,-0.185684,0.791658,-0.5952379999999999
1630411812934,-0.18531799999999998,0.7920849999999999,-0.594689
1630411812944,-0.185989,0.79239,-0.59475
1630411812954,-0.18666,0.790316,-0.595055
1630411812963,-0.187514,0.7881199999999999,-0.596092
1630411812973,-0.187331,0.7884249999999999,-0.597678
1630411812982,-0.18666,0.790194,-0.599996
1630411812992,-0.187453,0.7905599999999999,-0.599142
1630411813002,-0.18727,0.789401,-0.594384
1630411813011,-0.187331,0.789401,-0.592737
1630411813021,-0.186355,0.791048,-0.592554
1630411813030,-0.186111,0.7911699999999999,-0.5943229999999999
1630411813040,-0.186355,0.790804,-0.59536
1630411813050,-0.18666,0.790011,-0.596092
1630411813059,-0.186965,0.789828,-0.595787
1630411813069,-0.186477,0.790682,-0.594872
1630411813078,-0.186294,0.791109,-0.593652
1630411813088,-0.186355,0.7908649999999999,-0.591761
1630411813098,-0.186294,0.791719,-0.591944
1630411813107,-0.18544,0.7914749999999999,-0.591944
1630411813117,-0.185867,0.792207,-0.592737
1630411813126,-0.186355,0.791353,-0.594994
1630411813136,-0.185928,0.790621,-0.595177
1630411813146,-0.187209,0.7893399999999999,-0.594994
1630411813155,-0.18788,0.7881199999999999,-0.595299
1630411813165,-0.187636,0.787388,-0.594262
1630411813174,-0.187514,0.787632,-0.5949329999999999
1630411813184,-0.188246,0.788303,-0.5955429999999999
1630411813194,-0.187026,0.788669,-0.594994
1630411813203,-0.188002,0.789889,-0.5952379999999999
1630411813213,-0.186904,0.791353,-0.5940179999999999
1630411813222,-0.18605,0.790316,-0.5937129999999999
1630411813232,-0.186477,0.788913,-0.594445
1630411813242,-0.185806,0.789462,-0.596336
1630411813251,-0.186538,0.788974,-0.598532
1630411813261,-0.187087,0.788608,-0.597251
1630411813270,-0.187209,0.788181,-0.595055
1630411813280,-0.186355,0.789767,-0.59353
1630411813290,-0.185684,0.7908649999999999,-0.594445
1630411813299,-0.185257,0.790621,-0.5952379999999999
1630411813309,-0.184464,0.790621,-0.59536
1630411813318,-0.184952,0.790926,-0.595482
1630411813328,-0.18379299999999998,0.791658,-0.595787
1630411813338,-0.184586,0.792146,-0.5961529999999999
1630411813347,-0.18501299999999998,0.791353,-0.59536
1630411813357,-0.185257,0.791963,-0.595177
1630411813366,-0.183671,0.791902,-0.593896
1630411813376,-0.184586,0.793244,-0.593652
1630411813386,-0.184586,0.793061,-0.593835
1630411813395,-0.183976,0.792329,-0.594567
1630411813405,-0.18440299999999998,0.792695,-0.593835
1630411813414,-0.184952,0.792024,-0.594384
1630411813424,-0.185806,0.791719,-0.594201
1630411813434,-0.185196,0.791902,-0.594262
1630411813443,-0.18544,0.791658,-0.5946279999999999
1630411813453,-0.185196,0.791536,-0.595299
1630411813462,-0.18544,0.791597,-0.595116
1630411813472,-0.18544,0.790011,-0.5940179999999999
1630411813482,-0.185257,0.789828,-0.593652
1630411813491,-0.186233,0.790133,-0.593957
1630411813501,-0.185684,0.7899499999999999,-0.5934079999999999
1630411813510,-0.18544,0.789462,-0.593286
1630411813520,-0.185745,0.789584,-0.59475
1630411813530,-0.18501299999999998,0.788974,-0.594262
1630411813539,-0.185745,0.790377,-0.594506
1630411813549,-0.18531799999999998,0.7905599999999999,-0.593896
1630411813558,-0.185867,0.790804,-0.594384
1630411813568,-0.185989,0.7905599999999999,-0.593896
1630411813578,-0.184891,0.790804,-0.593286
1630411813587,-0.185257,0.7905599999999999,-0.5921879999999999
1630411813597,-0.184769,0.791414,-0.5915779999999999
1630411813606,-0.18409799999999998,0.791841,-0.591944
1630411813616,-0.184281,0.791719,-0.592615
1630411813626,-0.18422,0.792817,-0.592615
1630411813635,-0.183854,0.793366,-0.593286
1630411813645,-0.18361,0.792817,-0.593469
1630411813654,-0.184037,0.792756,-0.593164
1630411813664,-0.184037,0.793061,-0.593957
1630411813674,-0.18348799999999998,0.793854,-0.593774
1630411813683,-0.183122,0.794464,-0.593225
1630411813693,-0.18196299999999999,0.792939,-0.593469
1630411813702,-0.183671,0.792512,-0.593286
1630411813712,-0.18422,0.790926,-0.5934079999999999
1630411813722,-0.183976,0.790011,-0.594201
1630411813731,-0.184769,0.791597,-0.596519
1630411813741,-0.18470799999999998,0.7917799999999999,-0.59719
1630411813750,-0.184769,0.7920849999999999,-0.594201
1630411813760,-0.18531799999999998,0.7917799999999999,-0.591212
1630411813770,-0.183061,0.793122,-0.5909679999999999
1630411813779,-0.183,0.793366,-0.592432
1630411813789,-0.181841,0.793183,-0.59353
1630411813798,-0.183122,0.793,-0.594201
1630411813808,-0.183671,0.794159,-0.594811
1630411813818,-0.18483,0.793671,-0.5940179999999999
1630411813827,-0.184281,0.79361,-0.592676
1630411813837,-0.184464,0.793976,-0.591151
1630411813846,-0.184891,0.794098,-0.590907
1630411813856,-0.18501299999999998,0.793061,-0.592249
1630411813866,-0.18501299999999998,0.792207,-0.592981
1630411813875,-0.184891,0.792207,-0.593957
1630411813885,-0.186233,0.790926,-0.59353
1630411813894,-0.185074,0.790743,-0.59414
1630411813904,-0.185684,0.790682,-0.594262
1630411813914,-0.187087,0.789584,-0.59414
1630411813923,-0.185928,0.789889,-0.593652
1630411813933,-0.18562299999999998,0.790377,-0.5937129999999999
1630411813942,-0.185806,0.790438,-0.593286
1630411813952,-0.185074,0.7911699999999999,-0.5931029999999999
1630411813962,-0.18605,0.791414,-0.591822
1630411813971,-0.185806,0.790499,-0.592859
1630411813981,-0.18544,0.789889,-0.593469
1630411813990,-0.186172,0.790682,-0.59719
1630411814000,-0.187331,0.7902549999999999,-0.598532
1630411814010,-0.187148,0.789096,-0.596092
1630411814019,-0.187392,0.788913,-0.59414
1630411814029,-0.186782,0.788974,-0.593652
1630411814038,-0.185867,0.790133,-0.594872
1630411814048,-0.185806,0.790743,-0.5958479999999999
1630411814058,-0.185684,0.7902549999999999,-0.5958479999999999
1630411814067,-0.185745,0.7899499999999999,-0.594811
1630411814077,-0.185562,0.790194,-0.594506
1630411814086,-0.185196,0.790682,-0.594262
1630411814096,-0.18470799999999998,0.791536,-0.59353
1630411814106,-0.185196,0.792024,-0.594262
1630411814115,-0.18440299999999998,0.792878,-0.5949329999999999
1630411814125,-0.18348799999999998,0.793244,-0.59475
1630411814134,-0.18409799999999998,0.792634,-0.59475
1630411814144,-0.184342,0.792146,-0.594506
1630411814154,-0.184281,0.792756,-0.594445
1630411814163,-0.18422,0.792512,-0.5946279999999999
1630411814173,-0.184464,0.792451,-0.59414
1630411814182,-0.183854,0.792756,-0.594384
1630411814192,-0.184342,0.792939,-0.595055
1630411814202,-0.183915,0.792634,-0.5952379999999999
1630411814211,-0.18440299999999998,0.792024,-0.5946279999999999
1630411814221,-0.18440299999999998,0.791963,-0.593286
1630411814230,-0.18440299999999998,0.792024,-0.5940179999999999
1630411814240,-0.184281,0.7911699999999999,-0.594262
1630411814250,-0.18440299999999998,0.7917799999999999,-0.593164
1630411814259,-0.184037,0.7905599999999999,-0.593286
1630411814269,-0.184891,0.7902549999999999,-0.59353
1630411814278,-0.185135,0.790621,-0.5934079999999999
1630411814288,-0.184037,0.790804,-0.59414
1630411814298,-0.18379299999999998,0.790987,-0.59475
1630411814307,-0.184159,0.7908649999999999,-0.593957
1630411814317,-0.18318299999999998,0.790438,-0.593835
1630411814326,-0.183122,0.790316,-0.592859
1630411814336,-0.183122,0.791963,-0.594079
1630411814346,-0.18239,0.791414,-0.593286
1630411814355,-0.181658,0.791719,-0.59231
1630411814365,-0.180987,0.79239,-0.592371
1630411814374,-0.180804,0.793549,-0.592981
1630411814384,-0.18056,0.794342,-0.593042
1630411814394,-0.180804,0.793305,-0.5924929999999999
1630411814403,-0.181414,0.793122,-0.592127
1630411814413,-0.181658,0.793854,-0.5927979999999999
1630411814422,-0.18117,0.795684,-0.592554
1630411814432,-0.18117,0.795379,-0.5917
1630411814442,-0.178791,0.795379,-0.591761
1630411814451,-0.180621,0.794586,-0.592615
1630411814461,-0.180926,0.793732,-0.593896
1630411814470,-0.180987,0.7920849999999999,-0.592249
1630411814480,-0.181414,0.793183,-0.59353
1630411814490,-0.18178,0.794342,-0.595787
1630411814499,-0.182817,0.794952,-0.5955429999999999
1630411814509,-0.182207,0.794586,-0.593042
1630411814518,-0.180621,0.79483,-0.591761
1630411814528,-0.178913,0.79544,-0.592371
1630411814538,-0.17915699999999998,0.795318,-0.593347
1630411814547,-0.17946199999999998,0.793854,-0.5931029999999999
1630411814557,-0.180194,0.793244,-0.593469
1630411814566,-0.180926,0.79361,-0.5934079999999999
1630411814576,-0.180194,0.794281,-0.591456
1630411814586,-0.180133,0.793976,-0.591761
1630411814595,-0.180682,0.794281,-0.591761
1630411814605,-0.180194,0.794281,-0.592432
1630411814614,-0.180804,0.793427,-0.592066
1630411814624,-0.180499,0.792756,-0.592554
1630411814634,-0.182207,0.792512,-0.593591
1630411814643,-0.183,0.7911699999999999,-0.5934079999999999
1630411814653,-0.183671,0.791841,-0.593652
1630411814662,-0.183,0.7917799999999999,-0.5943229999999999
1630411814672,-0.183549,0.791902,-0.59414
1630411814682,-0.18318299999999998,0.792695,-0.5946279999999999
1630411814691,-0.183305,0.793183,-0.593652
1630411814701,-0.18361,0.79239,-0.593591
1630411814710,-0.183366,0.792329,-0.5931029999999999
1630411814720,-0.182817,0.791292,-0.5921879999999999
1630411814730,-0.18361,0.790194,-0.594384
1630411814739,-0.183366,0.790743,-0.598959
1630411814749,-0.183305,0.790743,-0.600118
1630411814758,-0.18483,0.789157,-0.595055
1630411814768,-0.18544,0.788547,-0.592981
1630411814778,-0.18531799999999998,0.789462,-0.593469
1630411814787,-0.184342,0.789889,-0.5952379999999999
1630411814797,-0.182756,0.791231,-0.5958479999999999
1630411814806,-0.18226799999999999,0.790987,-0.595665
1630411814816,-0.182817,0.7911699999999999,-0.596214
1630411814826,-0.183976,0.791536,-0.595787
1630411814835,-0.183,0.790926,-0.595177
1630411814845,-0.182512,0.7917799999999999,-0.59414
1630411814854,-0.18239,0.7920849999999999,-0.5940179999999999
1630411814864,-0.18239,0.793244,-0.594506
1630411814874,-0.18257299999999999,0.792878,-0.594262
1630411814883,-0.182329,0.793732,-0.5946279999999999
1630411814893,-0.18257299999999999,0.79239,-0.595055
1630411814902,-0.183061,0.793305,-0.593469
1630411814912,-0.18257299999999999,0.792146,-0.59353
1630411814922,-0.182756,0.792573,-0.59414
1630411814931,-0.182756,0.792634,-0.594079
1630411814941,-0.18257299999999999,0.792939,-0.594384
1630411814950,-0.182512,0.793,-0.594384
1630411814960,-0.18196299999999999,0.792878,-0.593896
1630411814970,-0.181902,0.792268,-0.593957
1630411814979,-0.182329,0.792329,-0.592981
1630411814989,-0.18178,0.792695,-0.5931029999999999
1630411814998,-0.181048,0.792268,-0.5927979999999999
1630411815008,-0.181048,0.7920849999999999,-0.592432
1630411815018,-0.181536,0.791902,-0.5909679999999999
1630411815027,-0.181231,0.791902,-0.591517
1630411815037,-0.17995,0.791902,-0.591334
1630411815046,-0.179889,0.791719,-0.5917
1630411815056,-0.180072,0.79239,-0.591517
1630411815066,-0.181231,0.7917799999999999,-0.5897479999999999
1630411815075,-0.18056,0.792817,-0.589199
1630411815085,-0.17915699999999998,0.793915,-0.588406
1630411815094,-0.179218,0.795989,-0.5894429999999999
1630411815104,-0.178791,0.798063,-0.590114
1630411815114,-0.178425,0.79788,-0.589321
1630411815123,-0.17812,0.7987339999999999,-0.58987
1630411815133,-0.178486,0.7996489999999999,-0.589199
1630411815142,-0.179218,0.80032,-0.58987
1630411815152,-0.178486,0.799832,-0.588894
1630411815162,-0.17915699999999998,0.8011739999999999,-0.5879179999999999
1630411815171,-0.178669,0.800747,-0.58987
1630411815181,-0.179218,0.800625,-0.589687
1630411815190,-0.178974,0.798002,-0.588589
1630411815200,-0.17946199999999998,0.796294,-0.586942
1630411815210,-0.17946199999999998,0.798124,-0.589565
1630411815219,-0.179889,0.798856,-0.592249
1630411815229,-0.180926,0.798551,-0.591761
1630411815238,-0.18056,0.797636,-0.587674
1630411815248,-0.179218,0.797575,-0.585905
1630411815258,-0.177571,0.7987339999999999,-0.586881
1630411815267,-0.17702199999999998,0.798917,-0.5873079999999999
1630411815277,-0.17751,0.798246,-0.587857
1630411815286,-0.177388,0.797758,-0.588284
1630411815296,-0.17824199999999998,0.797819,-0.588101
1630411815306,-0.17824199999999998,0.798307,-0.586332
1630411815315,-0.178974,0.7990389999999999,-0.585966
1630411815325,-0.18056,0.797941,-0.586332
1630411815334,-0.180011,0.797331,-0.586881
1630411815344,-0.181048,0.797026,-0.587552
1630411815354,-0.181231,0.79666,-0.588345
1630411815363,-0.180987,0.796233,-0.588772
1630411815373,-0.18239,0.794952,-0.5885279999999999
1630411815382,-0.18361,0.794098,-0.588711
1630411815392,-0.184342,0.794708,-0.589199
1630411815402,-0.184159,0.794098,-0.588406
1630411815411,-0.184586,0.794403,-0.5885279999999999
1630411815421,-0.185806,0.794525,-0.588162
1630411815430,-0.185562,0.79483,-0.587979
1630411815440,-0.18562299999999998,0.794525,-0.587674
1630411815450,-0.186721,0.793183,-0.588101
1630411815459,-0.187209,0.793183,-0.5897479999999999
1630411815469,-0.187026,0.79544,-0.5918829999999999
1630411815478,-0.187331,0.79544,-0.594506
1630411815488,-0.187941,0.793732,-0.5915779999999999
1630411815498,-0.188368,0.792878,-0.5906629999999999
1630411815507,-0.188856,0.793671,-0.590236
1630411815517,-0.187636,0.794586,-0.589931
1630411815526,-0.186538,0.793915,-0.59231
1630411815536,-0.18666,0.793549,-0.59292
1630411815546,-0.186782,0.792512,-0.593957
1630411815555,-0.187514,0.792756,-0.5927979999999999
1630411815565,-0.18781899999999999,0.793,-0.592371
1630411815574,-0.187697,0.792695,-0.5921879999999999
1630411815584,-0.18781899999999999,0.792329,-0.591944
1630411815594,-0.18727,0.792573,-0.59231
1630411815603,-0.187026,0.792695,-0.591944
1630411815613,-0.186965,0.791963,-0.59231
1630411815622,-0.186904,0.792512,-0.591639
1630411815632,-0.187026,0.793,-0.591822
1630411815642,-0.186904,0.792268,-0.592432
1630411815651,-0.186294,0.793122,-0.592859
1630411815661,-0.185867,0.792817,-0.59292
1630411815670,-0.186172,0.792756,-0.5927979999999999
1630411815680,-0.186111,0.7920849999999999,-0.593347
1630411815690,-0.185867,0.792695,-0.593042
1630411815699,-0.185196,0.792207,-0.5927979999999999
1630411815709,-0.186111,0.793122,-0.593347
1630411815718,-0.185135,0.791597,-0.593469
1630411815728,-0.18531799999999998,0.790743,-0.5931029999999999
1630411815738,-0.185501,0.790133,-0.592737
1630411815747,-0.186599,0.790072,-0.59231
1630411815757,-0.185745,0.7893399999999999,-0.5921879999999999
1630411815766,-0.185501,0.7887299999999999,-0.593286
1630411815776,-0.185379,0.7899499999999999,-0.592859
1630411815786,-0.184342,0.789828,-0.593286
1630411815795,-0.184037,0.790377,-0.5927979999999999
1630411815805,-0.183366,0.791109,-0.59292
1630411815814,-0.182451,0.791902,-0.591822
1630411815824,-0.181719,0.792756,-0.5906629999999999
1630411815834,-0.182329,0.793183,-0.5909679999999999
1630411815843,-0.181902,0.793549,-0.590785
1630411815853,-0.181414,0.794464,-0.5912729999999999
1630411815862,-0.181292,0.795562,-0.591212
1630411815872,-0.181475,0.795928,-0.59109
1630411815882,-0.180682,0.796538,-0.5918829999999999
1630411815891,-0.180255,0.796904,-0.592005
1630411815901,-0.18056,0.796355,-0.5915779999999999
1630411815910,-0.18117,0.796477,-0.5917
1630411815920,-0.180865,0.79727,-0.591822
1630411815930,-0.17946199999999998,0.797514,-0.592127
1630411815939,-0.179584,0.796965,-0.59109
1630411815949,-0.180682,0.795684,-0.591822
1630411815958,-0.180865,0.79239,-0.5915779999999999
1630411815968,-0.180316,0.792512,-0.5927979999999999
1630411815978,-0.181292,0.794464,-0.594994
1630411815987,-0.180316,0.794281,-0.594811
1630411815997,-0.181902,0.793427,-0.591029
1630411816006,-0.181048,0.793549,-0.58865
1630411816016,-0.180011,0.794342,-0.588894
1630411816026,-0.179706,0.795257,-0.589565
1630411816035,-0.179096,0.795196,-0.591822
1630411816045,-0.180011,0.795806,-0.592737
1630411816054,-0.181109,0.796416,-0.592432
1630411816064,-0.181109,0.795928,-0.592127
1630411816074,-0.181292,0.795989,-0.58926
1630411816083,-0.18117,0.796782,-0.5888329999999999
1630411816093,-0.181231,0.796233,-0.589504
1630411816102,-0.180316,0.795867,-0.59048
1630411816112,-0.18117,0.794952,-0.5912729999999999
1630411816122,-0.180804,0.793854,-0.592371
1630411816131,-0.18287799999999999,0.792634,-0.591822
1630411816141,-0.184464,0.792634,-0.592066
1630411816150,-0.18531799999999998,0.790987,-0.593225
1630411816160,-0.18422,0.7911699999999999,-0.592371
1630411816170,-0.184464,0.791292,-0.59231
1630411816179,-0.18422,0.791963,-0.592432
1630411816189,-0.184342,0.791109,-0.592066
1630411816198,-0.18409799999999998,0.791536,-0.5918829999999999
1630411816208,-0.184464,0.793183,-0.591456
1630411816218,-0.183915,0.793488,-0.59048
1630411816227,-0.183122,0.792451,-0.590785
1630411816237,-0.184891,0.79239,-0.593164
1630411816246,-0.184769,0.791963,-0.5958479999999999
1630411816256,-0.184769,0.7920849999999999,-0.595604
1630411816266,-0.185745,0.792024,-0.593042
1630411816275,-0.185501,0.791902,-0.592676
1630411816285,-0.18483,0.792695,-0.59292
1630411816294,-0.18531799999999998,0.792817,-0.593225
1630411816304,-0.184952,0.791536,-0.594201
1630411816314,-0.185135,0.791536,-0.59475
1630411816323,-0.184952,0.790987,-0.594445
1630411816333,-0.18562299999999998,0.790743,-0.594384
1630411816342,-0.186904,0.7914749999999999,-0.594567
1630411816352,-0.185379,0.791109,-0.593225
1630411816362,-0.185501,0.792329,-0.5940179999999999
1630411816371,-0.18440299999999998,0.793,-0.593469
1630411816381,-0.183732,0.793183,-0.593164
1630411816390,-0.183671,0.79422,-0.592859
1630411816400,-0.184769,0.793915,-0.592432
1630411816410,-0.185074,0.793488,-0.592432
1630411816419,-0.184647,0.793122,-0.59292
1630411816429,-0.184952,0.792756,-0.5927979999999999
1630411816438,-0.184769,0.792268,-0.593347
1630411816448,-0.18483,0.7917799999999999,-0.5927979999999999
1630411816458,-0.18531799999999998,0.791963,-0.593469
1630411816467,-0.184647,0.791597,-0.593652
1630411816477,-0.18470799999999998,0.791963,-0.594262
1630411816486,-0.185501,0.791963,-0.5931029999999999
1630411816496,-0.184464,0.792146,-0.593286
1630411816506,-0.184342,0.792146,-0.59292
1630411816515,-0.18470799999999998,0.792024,-0.591944
1630411816525,-0.184159,0.792024,-0.592127
1630411816534,-0.18318299999999998,0.791719,-0.592249
1630411816544,-0.182817,0.792268,-0.5917
1630411816554,-0.183061,0.793488,-0.5921879999999999
1630411816563,-0.182695,0.794464,-0.59231
1630411816573,-0.182939,0.793854,-0.591395
1630411816582,-0.183,0.794037,-0.591395
1630411816592,-0.182329,0.793976,-0.589992
1630411816602,-0.181536,0.794281,-0.590114
1630411816611,-0.182329,0.793854,-0.588894
1630411816621,-0.181536,0.794647,-0.589626
1630411816630,-0.181658,0.795196,-0.589626
1630411816640,-0.181719,0.796904,-0.589626
1630411816650,-0.18117,0.79666,-0.59048
1630411816659,-0.17995,0.797087,-0.591212
1630411816669,-0.179828,0.796294,-0.590236
1630411816678,-0.180804,0.796294,-0.589931
1630411816688,-0.180682,0.796416,-0.590419
1630411816698,-0.180865,0.796721,-0.5909679999999999
1630411816707,-0.181109,0.797453,-0.5894429999999999
1630411816717,-0.17976699999999998,0.796294,-0.59048
1630411816726,-0.180865,0.795501,-0.590785
1630411816736,-0.182512,0.793183,-0.591761
1630411816746,-0.182756,0.792451,-0.591029
1630411816755,-0.18226799999999999,0.793244,-0.593347
1630411816765,-0.18196299999999999,0.794098,-0.5958479999999999
1630411816774,-0.183122,0.793488,-0.593164
1630411816784,-0.18348799999999998,0.793854,-0.589992
1630411816794,-0.183305,0.794464,-0.58865
1630411816803,-0.18178,0.795135,-0.590297
1630411816813,-0.181597,0.795623,-0.5915779999999999
1630411816822,-0.180682,0.794708,-0.591334
1630411816832,-0.181292,0.794769,-0.591517
1630411816842,-0.181414,0.794159,-0.5917
1630411816851,-0.182756,0.79483,-0.590602
1630411816861,-0.181841,0.793854,-0.589199
1630411816870,-0.181902,0.794525,-0.589077
1630411816880,-0.182146,0.79483,-0.58926
1630411816890,-0.18239,0.794098,-0.591212
1630411816899,-0.18239,0.793671,-0.591517
1630411816909,-0.183549,0.792939,-0.59231
1630411816918,-0.183305,0.792939,-0.592676
1630411816928,-0.184769,0.792573,-0.592676
1630411816938,-0.184769,0.792878,-0.592737
1630411816947,-0.184159,0.791963,-0.593591
1630411816957,-0.183976,0.792451,-0.593591
1630411816966,-0.184769,0.7917799999999999,-0.59353
1630411816976,-0.18531799999999998,0.791841,-0.592615
1630411816986,-0.184464,0.792024,-0.592432
1630411816995,-0.184586,0.793122,-0.5918829999999999
1630411817005,-0.181902,0.791902,-0.591761
1630411817014,-0.183244,0.792207,-0.59292
1630411817024,-0.18348799999999998,0.791719,-0.5967629999999999
1630411817034,-0.183732,0.79239,-0.5964579999999999
1630411817043,-0.185684,0.791353,-0.593835
1630411817053,-0.184891,0.791597,-0.5924929999999999
1630411817062,-0.183305,0.792756,-0.592432
1630411817072,-0.182756,0.792756,-0.594262
1630411817082,-0.182939,0.792634,-0.593774
1630411817091,-0.18287799999999999,0.792878,-0.594079
1630411817101,-0.18287799999999999,0.792451,-0.593957
1630411817110,-0.183122,0.792756,-0.593774
1630411817120,-0.18318299999999998,0.792573,-0.594262
1630411817130,-0.18257299999999999,0.792024,-0.593774
1630411817139,-0.18257299999999999,0.792695,-0.5940179999999999
1630411817149,-0.181658,0.793,-0.593286
1630411817158,-0.182634,0.792817,-0.593957
1630411817168,-0.182939,0.79361,-0.593225
1630411817178,-0.183122,0.793183,-0.592676
1630411817187,-0.182512,0.792756,-0.593042
1630411817197,-0.18239,0.793,-0.592615
1630411817206,-0.18287799999999999,0.793427,-0.5924929999999999
1630411817216,-0.182756,0.793183,-0.592615
1630411817226,-0.182634,0.793183,-0.592127
1630411817235,-0.18257299999999999,0.792939,-0.592432
1630411817245,-0.182695,0.793488,-0.592432
1630411817254,-0.182512,0.793427,-0.592981
1630411817264,-0.183,0.793366,-0.593591
1630411817274,-0.182451,0.793183,-0.5921879999999999
1630411817283,-0.183427,0.792817,-0.5912729999999999
1630411817293,-0.183305,0.792756,-0.590907
1630411817302,-0.18318299999999998,0.792756,-0.591639
1630411817312,-0.18287799999999999,0.793,-0.5918829999999999
1630411817322,-0.183244,0.79361,-0.591517
1630411817331,-0.182512,0.793488,-0.591944
1630411817341,-0.18196299999999999,0.793061,-0.591944
1630411817350,-0.181719,0.794586,-0.592249
1630411817360,-0.181597,0.793427,-0.591944
