timestamp,ax,ay,az
1629457672160,-0.318847,-0.64965,-0.685457
1629457672170,-0.318359,-0.649772,-0.68442
1629457672179,-0.31829799999999997,-0.651053,-0.6852739999999999
1629457672189,-0.319152,-0.650565,-0.68564
1629457672198,-0.31890799999999997,-0.650016,-0.6855789999999999
1629457672208,-0.320006,-0.64904,-0.686616
1629457672218,-0.31964,-0.649528,-0.687226
1629457672227,-0.320006,-0.648125,-0.687531
1629457672237,-0.319945,-0.647454,-0.68686
1629457672246,-0.32086,-0.646478,-0.685762
1629457672256,-0.320982,-0.645075,-0.684603
1629457672266,-0.32226299999999997,-0.644282,-0.6861889999999999
1629457672275,-0.321592,-0.644099,-0.688995
1629457672285,-0.321531,-0.641598,-0.687836
1629457672294,-0.32208,-0.6399509999999999,-0.687836
1629457672304,-0.321775,-0.640927,-0.68869
1629457672314,-0.321836,-0.640744,-0.6880189999999999
1629457672323,-0.32086,-0.639219,-0.687775
1629457672333,-0.320677,-0.638975,-0.685762
1629457672342,-0.320677,-0.6420859999999999,-0.684603
1629457672352,-0.31964,-0.643428,-0.6867989999999999
1629457672362,-0.31964,-0.643977,-0.68991
1629457672371,-0.31951799999999997,-0.645319,-0.691801
1629457672381,-0.31890799999999997,-0.646539,-0.690093
1629457672390,-0.31842,-0.646356,-0.686372
1629457672400,-0.31768799999999997,-0.647027,-0.685213
1629457672410,-0.31860299999999997,-0.646722,-0.685457
1629457672419,-0.31951799999999997,-0.646051,-0.68686
1629457672429,-0.31982299999999997,-0.645624,-0.6877139999999999
1629457672438,-0.31842,-0.644953,-0.6871039999999999
1629457672448,-0.318542,-0.6451359999999999,-0.687592
1629457672458,-0.318176,-0.644709,-0.687592
1629456577002,-0.45078999999999997,-0.349164,-0.81374
1629456577011,-0.450912,-0.348981,-0.816302
1629456577021,-0.452498,-0.349957,-0.816851
1629456577030,-0.451644,-0.350384,-0.81618
1629456577040,-0.45109499999999997,-0.349164,-0.814838
1629456577050,-0.451217,-0.348737,-0.814716
1629456577059,-0.452986,-0.348432,-0.812825
1629456577069,-0.453962,-0.347639,-0.814533
1629456577078,-0.45444999999999997,-0.3477,-0.818132
1629456577088,-0.45597499999999996,-0.348005,-0.820511
1629456577098,-0.454694,-0.34892,-0.820206
1629456577107,-0.453413,-0.348676,-0.81679
1629456577117,-0.452681,-0.349835,-0.81496
1629456577126,-0.451888,-0.351177,-0.813862
1629456577136,-0.451156,-0.351421,-0.815631
1629456577146,-0.450851,-0.350994,-0.817339
1629456577155,-0.450729,-0.350811,-0.816973
1629456577165,-0.45048499999999997,-0.350262,-0.817278
1629456577174,-0.45017999999999997,-0.350506,-0.817095
1629456577184,-0.449143,-0.35136,-0.8148989999999999
1629456577194,-0.448594,-0.35197,-0.814472
1629456577203,-0.449082,-0.35136,-0.814472
1629456577213,-0.44773999999999997,-0.351665,-0.813862
1629456577222,-0.44895999999999997,-0.35160399999999997,-0.8148989999999999
1629456577232,-0.449509,-0.351055,-0.816485
1629456577242,-0.450912,-0.350262,-0.816912
1629456577251,-0.451461,-0.352397,-0.81679
1629456577261,-0.45231499999999997,-0.351482,-0.816912
1629456577270,-0.45231499999999997,-0.351116,-0.81496
1629456577280,-0.451339,-0.35160399999999997,-0.813862
1629456577290,-0.451217,-0.350445,-0.815326
1629456577299,-0.450851,-0.349774,-0.816546
1629456577309,-0.45078999999999997,-0.349774,-0.812093
1629456577318,-0.45261999999999997,-0.348127,-0.8115439999999999
1629456577328,-0.452681,-0.348554,-0.813557
1629456577338,-0.452254,-0.348005,-0.813923
1629456577347,-0.452437,-0.349042,-0.815082
1629456577357,-0.453291,-0.34892,-0.815936
1629456577366,-0.454511,-0.349286,-0.816912
1629456577376,-0.45353499999999997,-0.349774,-0.8158139999999999
1629456577386,-0.45322999999999997,-0.349957,-0.8145939999999999
1629456577395,-0.45444999999999997,-0.349774,-0.81435
1629456577405,-0.453901,-0.35014,-0.8158139999999999
1629456577414,-0.453169,-0.349591,-0.815997
1629456577424,-0.453291,-0.35014,-0.817095
1629456577434,-0.453047,-0.350323,-0.818498
1629456577443,-0.453352,-0.350628,-0.819108
1629456577453,-0.45231499999999997,-0.35136,-0.817156
1629456577462,-0.452071,-0.351238,-0.817644
1629456577472,-0.451217,-0.350811,-0.815997
1629456577482,-0.45109499999999997,-0.350018,-0.816363
1629456577491,-0.450729,-0.349713,-0.816546
1629456577501,-0.450119,-0.348798,-0.815936
1629456577510,-0.449631,-0.348188,-0.8164239999999999
1629456577520,-0.44987499999999997,-0.347822,-0.816485
1629456577530,-0.450729,-0.348005,-0.8155089999999999
1629456577539,-0.451156,-0.34831,-0.814777
1629456577549,-0.450424,-0.34831,-0.813862
1629456577558,-0.450424,-0.348798,-0.8136789999999999
1629456577568,-0.45139999999999997,-0.350567,-0.815021
1629456577578,-0.45048499999999997,-0.350384,-0.81618
1629456577587,-0.451339,-0.349774,-0.81557
1629456577597,-0.451156,-0.349713,-0.8155089999999999
1629456577606,-0.451949,-0.34892,-0.816546
1629456577616,-0.452193,-0.348127,-0.816302
1629456577626,-0.452498,-0.346724,-0.8155089999999999
1629456577635,-0.45353499999999997,-0.346114,-0.8142889999999999
1629456577645,-0.453108,-0.345321,-0.81557
1629456577654,-0.452498,-0.346175,-0.816302
1629456577664,-0.452559,-0.346846,-0.814167
1629456577674,-0.452254,-0.347761,-0.814472
1629456577683,-0.451156,-0.348798,-0.81374
1629456577693,-0.450119,-0.350018,-0.815143
1629456577702,-0.45078999999999997,-0.350567,-0.81618
1629456577712,-0.451644,-0.350628,-0.817522
1629456577722,-0.450546,-0.349896,-0.817522
1629456577731,-0.451644,-0.349103,-0.817034
1629456577741,-0.451888,-0.3477,-0.815875
1629456577750,-0.451461,-0.347822,-0.815326
1629456577760,-0.451827,-0.346541,-0.814777
1629456577770,-0.451888,-0.347456,-0.815448
1629456577779,-0.451583,-0.3477,-0.8155089999999999
1629456577789,-0.45109499999999997,-0.348066,-0.815692
1629456577798,-0.450546,-0.34892,-0.816851
1629456577808,-0.45078999999999997,-0.34892,-0.818376
1629456577818,-0.451522,-0.348432,-0.818681
1629456577827,-0.450973,-0.349408,-0.8174
1629456577837,-0.452254,-0.349774,-0.816729
1629456577846,-0.45170499999999997,-0.350628,-0.816058
1629456577856,-0.450363,-0.35197,-0.8155089999999999
1629456577866,-0.449936,-0.35197,-0.81618
1629456577875,-0.449204,-0.352092,-0.817156
1629456577885,-0.448289,-0.352397,-0.816241
1629456577894,-0.44804499999999997,-0.352763,-0.81557
1629456577904,-0.446642,-0.351726,-0.816729
1629456577914,-0.447069,-0.353068,-0.817522
1629456577923,-0.448716,-0.352397,-0.818559
1629456577933,-0.44926499999999997,-0.35190899999999997,-0.817766
1629456577942,-0.449997,-0.350689,-0.817583
1629456577952,-0.449204,-0.350811,-0.816546
1629456577962,-0.449326,-0.352336,-0.814228
1629456577971,-0.45017999999999997,-0.352763,-0.813435
1629456577981,-0.450729,-0.352458,-0.8121539999999999
1629456577990,-0.451644,-0.353312,-0.813252
1629456578000,-0.451644,-0.354715,-0.813313
1629456578010,-0.452254,-0.35434899999999997,-0.814777
1629456578019,-0.453657,-0.35441,-0.817766
1629456578029,-0.454023,-0.35343399999999997,-0.815326
1629456578038,-0.452864,-0.351665,-0.814167
1629456578048,-0.45383999999999997,-0.350994,-0.811971
1629456578058,-0.454572,-0.349835,-0.808677
1629456578067,-0.455304,-0.350445,-0.807335
1629456578077,-0.457256,-0.35075,-0.811788
1629456578086,-0.457927,-0.351055,-0.817156
1629456578096,-0.457622,-0.352336,-0.817217
1629456578106,-0.457012,-0.354776,-0.81496
1629456578115,-0.45688999999999996,-0.355142,-0.8130689999999999
1629456578125,-0.457195,-0.354288,-0.814228
1629456578134,-0.456463,-0.356118,-0.814472
1629456578144,-0.455914,-0.356118,-0.814716
1629456578154,-0.454999,-0.355325,-0.8133739999999999
1629456578163,-0.454877,-0.354471,-0.812581
1629456578173,-0.454206,-0.35465399999999997,-0.813191
1629456578182,-0.452681,-0.353556,-0.812886
1629456578192,-0.451583,-0.35434899999999997,-0.811483
1629456578202,-0.45139999999999997,-0.354471,-0.811178
1629456578211,-0.451461,-0.355508,-0.8103239999999999
1629456578221,-0.45078999999999997,-0.353678,-0.810568
1629456578230,-0.452132,-0.35343399999999997,-0.810385
1629456578240,-0.45231499999999997,-0.353678,-0.811727
1629456578250,-0.452864,-0.354837,-0.812276
1629456578259,-0.452864,-0.356545,-0.8115439999999999
1629456578269,-0.452437,-0.357155,-0.811361
1629456578278,-0.452803,-0.356606,-0.8115439999999999
1629456578288,-0.452742,-0.35770399999999997,-0.813008
1629456578298,-0.453352,-0.357887,-0.814472
1629456578307,-0.452193,-0.358192,-0.8121539999999999
1629456578317,-0.453108,-0.357338,-0.8072739999999999
1629456578326,-0.453474,-0.35502,-0.808982
1629456578336,-0.453718,-0.355935,-0.809836
1629456578346,-0.45261999999999997,-0.35502,-0.811056
1629456578355,-0.453657,-0.356301,-0.811605
1629456578365,-0.454084,-0.356118,-0.811422
1629456578374,-0.454328,-0.357033,-0.810751
1629456578384,-0.45383999999999997,-0.35868,-0.811971
1629456578394,-0.45475499999999996,-0.358802,-0.812642
1629456578403,-0.454572,-0.358558,-0.81313
1629456578413,-0.45383999999999997,-0.359168,-0.813557
1629456578422,-0.453352,-0.359046,-0.8139839999999999
1629456578432,-0.453291,-0.360388,-0.815143
1629456578442,-0.452132,-0.359656,-0.8145939999999999
1629456578451,-0.451461,-0.3599,-0.81313
1629456578461,-0.451522,-0.359168,-0.813618
1629456578470,-0.451278,-0.358558,-0.813252
1629456578480,-0.451583,-0.357826,-0.813435
1629456578490,-0.451217,-0.35800899999999997,-0.812947
1629456578499,-0.45017999999999997,-0.35770399999999997,-0.811605
1629456578509,-0.450912,-0.35800899999999997,-0.81252
1629456578518,-0.450729,-0.359351,-0.812337
1629456578528,-0.450241,-0.358863,-0.8127639999999999
1629456578538,-0.450241,-0.357826,-0.81313
1629456578547,-0.450729,-0.357826,-0.812703
1629456578557,-0.450546,-0.357338,-0.812032
1629456578566,-0.451156,-0.35648399999999997,-0.8118489999999999
1629456578576,-0.450729,-0.35624,-0.811178
1629456578586,-0.450912,-0.355935,-0.8103239999999999
1629456578595,-0.451644,-0.356606,-0.8109339999999999
1629456578605,-0.45139999999999997,-0.35617899999999997,-0.811971
1629456578614,-0.451949,-0.356972,-0.811666
1629456578624,-0.45139999999999997,-0.356728,-0.8113
1629456578634,-0.452132,-0.35807,-0.81191
1629456578643,-0.451644,-0.357948,-0.8113
1629456578653,-0.452498,-0.357948,-0.813008
1629456578662,-0.453108,-0.357216,-0.812581
1629456578672,-0.453413,-0.355935,-0.813252
1629456578682,-0.45322999999999997,-0.356301,-0.81252
1629456578691,-0.453108,-0.355935,-0.812276
1629456578701,-0.453474,-0.35685,-0.8124589999999999
1629456578710,-0.45292499999999997,-0.357521,-0.811666
1629456578720,-0.451339,-0.357948,-0.811422
1629456578730,-0.451461,-0.357521,-0.81191
1629456578739,-0.45170499999999997,-0.356728,-0.812581
1629456578749,-0.451949,-0.35678899999999997,-0.8115439999999999
1629456578758,-0.453352,-0.35648399999999997,-0.812825
1629456578768,-0.453291,-0.35526399999999997,-0.814411
1629456578778,-0.453657,-0.355081,-0.813252
1629456578787,-0.454084,-0.354532,-0.812337
1629456578797,-0.453962,-0.354715,-0.810812
1629456578806,-0.454084,-0.355142,-0.809958
1629456578816,-0.454328,-0.355386,-0.81008
1629456578826,-0.45475499999999996,-0.35624,-0.812398
1629456578835,-0.454084,-0.356972,-0.8127639999999999
1629456578845,-0.455426,-0.356606,-0.814228
1629456578854,-0.455426,-0.357338,-0.814106
1629456578864,-0.454267,-0.356911,-0.811666
1629456578874,-0.454389,-0.355996,-0.810385
1629456578883,-0.454389,-0.35563,-0.8091039999999999
1629456578893,-0.454816,-0.354715,-0.808433
1629456578902,-0.454633,-0.353617,-0.808433
1629456578912,-0.455426,-0.354471,-0.808677
1629456578922,-0.455548,-0.354776,-0.810995
1629456578931,-0.45627999999999996,-0.355386,-0.8109339999999999
1629456578941,-0.4575,-0.355203,-0.810812
1629456578950,-0.456524,-0.355081,-0.809775
1629456578960,-0.456463,-0.35587399999999997,-0.808738
1629456578970,-0.457439,-0.354776,-0.806847
1629456578979,-0.458232,-0.355447,-0.809226
1629456578989,-0.45884199999999997,-0.354837,-0.8130689999999999
1629456578998,-0.459269,-0.354776,-0.815021
1629456579008,-0.457622,-0.355935,-0.813313
1629456579018,-0.456341,-0.35617899999999997,-0.810751
1629456579027,-0.455853,-0.354837,-0.809531
1629456579037,-0.45627999999999996,-0.355508,-0.809836
1629456579046,-0.454816,-0.357155,-0.81069
1629456579056,-0.454938,-0.35587399999999997,-0.812703
1629456579066,-0.455243,-0.35587399999999997,-0.812337
1629456579075,-0.455792,-0.356667,-0.813252
1629456579085,-0.45566999999999996,-0.357826,-0.81313
1629456579094,-0.455121,-0.358985,-0.811422
1629456579104,-0.453352,-0.360266,-0.809775
1629456579114,-0.452498,-0.360754,-0.80886
1629456579123,-0.452071,-0.361242,-0.80886
1629456579133,-0.452864,-0.359473,-0.809592
1629456579142,-0.451522,-0.359656,-0.809836
1629456579152,-0.452803,-0.359046,-0.809592
1629456579162,-0.45200999999999997,-0.357826,-0.808067
1629456579171,-0.452864,-0.358375,-0.808311
1629456579181,-0.454572,-0.357277,-0.809226
1629456579190,-0.455731,-0.35678899999999997,-0.8091039999999999
1629456579200,-0.455426,-0.35831399999999997,-0.811178
1629456579210,-0.454816,-0.358253,-0.809043
1629456579219,-0.45627999999999996,-0.359351,-0.805627
1629456579229,-0.456524,-0.35709399999999997,-0.807396
1629456579238,-0.456768,-0.35868,-0.8103239999999999
1629456579248,-0.456219,-0.359168,-0.810507
1629456579258,-0.45658499999999996,-0.35861899999999997,-0.8118489999999999
1629456579267,-0.4575,-0.357155,-0.81252
1629456579277,-0.455243,-0.358436,-0.8121539999999999
1629456579286,-0.45505999999999996,-0.357338,-0.810873
1629456579296,-0.45475499999999996,-0.35770399999999997,-0.81008
1629456579306,-0.45505999999999996,-0.357887,-0.809348
1629456579315,-0.454267,-0.358863,-0.809897
1629456579325,-0.453291,-0.35892399999999997,-0.8113
1629456579334,-0.453169,-0.360205,-0.811422
1629456579344,-0.452376,-0.360937,-0.811178
1629456579354,-0.452498,-0.361852,-0.811971
1629456579363,-0.452864,-0.362157,-0.812947
1629456579373,-0.453291,-0.360937,-0.814655
1629456579382,-0.452437,-0.359656,-0.81496
1629456579392,-0.451644,-0.358192,-0.812093
1629456579402,-0.451766,-0.35770399999999997,-0.8106289999999999
1629456579411,-0.45200999999999997,-0.357277,-0.80886
1629456579421,-0.45078999999999997,-0.355935,-0.809226
1629456579430,-0.449814,-0.355996,-0.808982
1629456579440,-0.447557,-0.351116,-0.8087989999999999
1629456579450,-0.44743499999999997,-0.34477199999999997,-0.804712
1629456579459,-0.447496,-0.341905,-0.8026989999999999
1629456579469,-0.446703,-0.334036,-0.8054439999999999
1629456579478,-0.453901,-0.335439,-0.812642
1629456579488,-0.465979,-0.353556,-0.844606
1629456579498,-0.470432,-0.385886,-0.875533
1629456579507,-0.46036699999999997,-0.411933,-0.891576
1629456579517,-0.463478,-0.441091,-0.943365
1629456579526,-0.46616199999999997,-0.458781,-1.00223
1629456579536,-0.458293,-0.465186,-1.0355969999999999
1629456579546,-0.446581,-0.463478,-1.029924
1629456579555,-0.435784,-0.45109499999999997,-1.002169
1629456579565,-0.419131,-0.43724799999999997,-0.988749
1629456579574,-0.392474,-0.433832,-1.001376
1629456579584,-0.372527,-0.43072099999999997,-1.009428
1629456579594,-0.351787,-0.43041599999999997,-1.001132
1629456579603,-0.330864,-0.42706099999999997,-0.98637
1629456579613,-0.31768799999999997,-0.418338,-0.9444629999999999
1629456579622,-0.307074,-0.407236,-0.9073749999999999
1629456579632,-0.300486,-0.394243,-0.881084
1629456579642,-0.298412,-0.382409,-0.86437
1629456579651,-0.300303,-0.371978,-0.834907
1629456579661,-0.297131,-0.363682,-0.805505
1629456579670,-0.30622,-0.35526399999999997,-0.776286
1629456579680,-0.310368,-0.342698,-0.744566
1629456579690,-0.315309,-0.329766,-0.72346
1629456579699,-0.329278,-0.314882,-0.705282
1629456579709,-0.340441,-0.302987,-0.695034
1629456579718,-0.353922,-0.29768,-0.695156
1629456579728,-0.359656,-0.291458,-0.705526
1629456579738,-0.377529,-0.286151,-0.719922
1629456579747,-0.388753,-0.285358,-0.743773
1629456579757,-0.39711,-0.291031,-0.767868
1629456579766,-0.409249,-0.291946,-0.7832399999999999
1629456579776,-0.41900899999999996,-0.286761,-0.7884249999999999
1629456579786,-0.423523,-0.280051,-0.779641
1629456579795,-0.426085,-0.2806,-0.771589
1629456579805,-0.421144,-0.28072199999999997,-0.766892
1629456579814,-0.408151,-0.275293,-0.750056
1629456579824,-0.400404,-0.268888,-0.742736
1629456579834,-0.388631,-0.269681,-0.744993
1629456579843,-0.37332,-0.275659,-0.7506659999999999
1629456579853,-0.360754,-0.283284,-0.759145
1629456579862,-0.34599199999999997,-0.292678,-0.762439
1629456579872,-0.333304,-0.311222,-0.753289
1629456579882,-0.322812,-0.335622,-0.739503
1629456579891,-0.30811099999999997,-0.359595,-0.731756
1629456579901,-0.299327,-0.374662,-0.735294
1629456579910,-0.291763,-0.382226,-0.744505
1629456579920,-0.283711,-0.390583,-0.7589009999999999
1629456579930,-0.276086,-0.40180699999999997,-0.778421
1629456579939,-0.263459,-0.41138399999999997,-0.796843
1629456579949,-0.25071,-0.41961899999999996,-0.80886
1629456579958,-0.24766,-0.431758,-0.8094089999999999
1629456579968,-0.246379,-0.446276,-0.8127639999999999
1629456579978,-0.248331,-0.46280699999999997,-0.8142889999999999
1629456579987,-0.25986,-0.489037,-0.814472
1629456579997,-0.271328,-0.511973,-0.818681
1629456580006,-0.286395,-0.527101,-0.8319179999999999
1629456580016,-0.300608,-0.535824,-0.828624
1629456580026,-0.32269,-0.542534,-0.801906
1629456580035,-0.338611,-0.541741,-0.785314
1629456580045,-0.348981,-0.531859,-0.8023939999999999
1629456580054,-0.3782,-0.5167309999999999,-0.825696
1629456580064,-0.406748,-0.527528,-0.8164239999999999
1629456580074,-0.433344,-0.535153,-0.85644
1629456580083,-0.44286,-0.541192,-0.893528
1629456580093,-0.458537,-0.533872,-0.909571
1629456580102,-0.46726,-0.526979,-0.925065
1629456580112,-0.467626,-0.512339,-0.930128
1629456580122,-0.47207899999999997,-0.493124,-0.923235
1629456580131,-0.477813,-0.466223,-0.911279
1629456580141,-0.478667,-0.442677,-0.8988349999999999
1629456580150,-0.480253,-0.427915,-0.8821209999999999
1629456580160,-0.48470599999999997,-0.419192,-0.8638819999999999
1629456580170,-0.481717,-0.422242,-0.833565
1629456580179,-0.48531599999999997,-0.43041599999999997,-0.807457
1629456580189,-0.49111099999999996,-0.428098,-0.80215
1629456580198,-0.500139,-0.418582,-0.812276
1629456580208,-0.509289,-0.405589,-0.82899
1629456580218,-0.513193,-0.392291,-0.844301
1629456580227,-0.510997,-0.379054,-0.847778
1629456580237,-0.509533,-0.363072,-0.84485
1629456580246,-0.504958,-0.347151,-0.838872
1629456580256,-0.503372,-0.332511,-0.838567
1629456580266,-0.50386,-0.326045,-0.831796
1629456580275,-0.5124609999999999,-0.323849,-0.819596
1629456580285,-0.521672,-0.322446,-0.812581
1629456580294,-0.531005,-0.319884,-0.80581
1629456580304,-0.543327,-0.31537,-0.793671
1629456580314,-0.559614,-0.30567099999999997,-0.783484
1629456580323,-0.5721189999999999,-0.296216,-0.783423
1629456580333,-0.583404,-0.283284,-0.7862899999999999
1629456580342,-0.5885279999999999,-0.271328,-0.790682
1629456580352,-0.58865,-0.26108,-0.794281
1629456580362,-0.587125,-0.252418,-0.8017839999999999
1629456580371,-0.582733,-0.243512,-0.810873
1629456580381,-0.578463,-0.237168,-0.818986
1629456580390,-0.576328,-0.22972599999999999,-0.818925
1629456580400,-0.570411,-0.225151,-0.8075789999999999
1629456580410,-0.5669339999999999,-0.223382,-0.790316
1629456580419,-0.559858,-0.23369099999999998,-0.75091
1629456580429,-0.5614439999999999,-0.24570799999999998,-0.7281569999999999
1629456580438,-0.5669339999999999,-0.260714,-0.734379
1629456580448,-0.5678489999999999,-0.269986,-0.752374
1629456580458,-0.5644939999999999,-0.27419499999999997,-0.779519
1629456580467,-0.552172,-0.26992499999999997,-0.803065
1629456580477,-0.536434,-0.259982,-0.81496
1629456580486,-0.527467,-0.247538,-0.817583
1629456580496,-0.5161209999999999,-0.237961,-0.810202
1629456580506,-0.505629,-0.23302,-0.803736
1629456580515,-0.500932,-0.232654,-0.800686
1629456580525,-0.498675,-0.231617,-0.787449
1629456580534,-0.496357,-0.232654,-0.777689
1629456580544,-0.492697,-0.241194,-0.768112
1629456580554,-0.490318,-0.252723,-0.754997
1629456580563,-0.487085,-0.261812,-0.742858
1629456580573,-0.48287599999999997,-0.26596,-0.736331
1629456580582,-0.47641,-0.265289,-0.7360869999999999
1629456580592,-0.474458,-0.265228,-0.737978
1629456580602,-0.47543399999999997,-0.264374,-0.750422
1629456580611,-0.479643,-0.266448,-0.773358
1629456580621,-0.485072,-0.273097,-0.794525
1629456580630,-0.489037,-0.28548,-0.80825
1629456580640,-0.489708,-0.301523,-0.81191
1629456580650,-0.489769,-0.317444,-0.814533
1629456580659,-0.489708,-0.329217,-0.816607
1629456580669,-0.487512,-0.34343,-0.809836
1629456580678,-0.487085,-0.353983,-0.8030039999999999
1629456580688,-0.487268,-0.362645,-0.795318
1629456580698,-0.490562,-0.366549,-0.7887299999999999
1629456580707,-0.49471,-0.371002,-0.784094
1629456580717,-0.497455,-0.375882,-0.791292
1629456580726,-0.500078,-0.37777299999999997,-0.803187
1629456580736,-0.503555,-0.378566,-0.81069
1629456580746,-0.505385,-0.379725,-0.814533
1629456580755,-0.504592,-0.381921,-0.817766
1629456580765,-0.50264,-0.383751,-0.815326
1629456580774,-0.502518,-0.389424,-0.811361
1629456580784,-0.500688,-0.39772,-0.8087989999999999
1629456580794,-0.500749,-0.401929,-0.8115439999999999
1629456580803,-0.49959,-0.405101,-0.81252
1629456580813,-0.49776,-0.404186,-0.817705
1629456580822,-0.495259,-0.398696,-0.818742
1629456580832,-0.492758,-0.392657,-0.818376
1629456580842,-0.490867,-0.387594,-0.818986
1629456580851,-0.486414,-0.386435,-0.8130689999999999
1629456580861,-0.47946,-0.388692,-0.803431
1629456580870,-0.472567,-0.394609,-0.79483
1629456580880,-0.469334,-0.402539,-0.7887299999999999
1629456580890,-0.464698,-0.407175,-0.782081
1629456580899,-0.461648,-0.410225,-0.775737
1629456580909,-0.458598,-0.410103,-0.769332
1629456580918,-0.457195,-0.406626,-0.763964
1629456580928,-0.456829,-0.403576,-0.758718
1629456580938,-0.455792,-0.401258,-0.7549359999999999
1629456580947,-0.455487,-0.396256,-0.753045
1629456580957,-0.454694,-0.39375499999999997,-0.755485
1629456580966,-0.455304,-0.391559,-0.7546309999999999
1629456580976,-0.457866,-0.384422,-0.7570709999999999
1629456580986,-0.46848,-0.377102,-0.767258
1629456580995,-0.479826,-0.371734,-0.7817149999999999
1629456581005,-0.48379099999999997,-0.362645,-0.799222
1629456581014,-0.487939,-0.350933,-0.818071
1629456581024,-0.490379,-0.338062,-0.81862
1629456581034,-0.496479,-0.31598,-0.824964
1629456581043,-0.502091,-0.304695,-0.823866
1629456581053,-0.508557,-0.300608,-0.814411
1629456581062,-0.51728,-0.304268,-0.820206
1629456581072,-0.5225259999999999,-0.308355,-0.829844
1629456581082,-0.523563,-0.312198,-0.832284
1629456581091,-0.521184,-0.314638,-0.836554
1629456581101,-0.514474,-0.314089,-0.845216
1629456581110,-0.501176,-0.31171,-0.838567
1629456581120,-0.489098,-0.312503,-0.823317
1629456581130,-0.48745099999999997,-0.313113,-0.807762
1629456581139,-0.495259,-0.317627,-0.793671
1629456581149,-0.507947,-0.325008,-0.783911
1629456581158,-0.5213059999999999,-0.336232,-0.780007
1629456581168,-0.530822,-0.35197,-0.779214
1629456581178,-0.539362,-0.367769,-0.775798
1629456581187,-0.544547,-0.374723,-0.787693
1629456581197,-0.534848,-0.380579,-0.782752
1629456581206,-0.538447,-0.376614,-0.800198
1629456581216,-0.53375,-0.378139,-0.810507
1629456581226,-0.535885,-0.374418,-0.816729
1629456581235,-0.533689,-0.37454,-0.803736
1629456581245,-0.525393,-0.374052,-0.780678
1629456581254,-0.516609,-0.373015,-0.76738
1629456581264,-0.510814,-0.375272,-0.761707
1629456581274,-0.499224,-0.384849,-0.757864
1629456581283,-0.48531599999999997,-0.397232,-0.762439
1629456581293,-0.471225,-0.406504,-0.765733
1629456581302,-0.46177,-0.409493,-0.7674409999999999
1629456581312,-0.453352,-0.410042,-0.764757
1629456581322,-0.445849,-0.410042,-0.7640859999999999
1629456581331,-0.437065,-0.40809,-0.766892
1629456581341,-0.434991,-0.410774,-0.763232
1629456581350,-0.43066,-0.416813,-0.753228
1629456581360,-0.425963,-0.422547,-0.749568
1629456581370,-0.41473899999999997,-0.430782,-0.743346
1629456581379,-0.407541,-0.435967,-0.746213
1629456581389,-0.39161999999999997,-0.443714,-0.746457
1629456581398,-0.381616,-0.450912,-0.752313
1629456581408,-0.36941599999999997,-0.46726,-0.751032
1629456581418,-0.36514599999999997,-0.48318099999999997,-0.744261
1629456581427,-0.362706,-0.503555,-0.742248
1629456581437,-0.358192,-0.520513,-0.733403
1629456581446,-0.353983,-0.529358,-0.725412
1629456581456,-0.35624,-0.533994,-0.724009
1629456581466,-0.363316,-0.537776,-0.742675
1629456581475,-0.362218,-0.5435099999999999,-0.753838
1629456581485,-0.360571,-0.5444249999999999,-0.77104
1629456581494,-0.362218,-0.546194,-0.791963
1629456581504,-0.356667,-0.549427,-0.801418
1629456581514,-0.352946,-0.5465599999999999,-0.8072739999999999
1629456581523,-0.352763,-0.539911,-0.804102
1629456581533,-0.347456,-0.531493,-0.790133
1629456581542,-0.34477199999999997,-0.525393,-0.778543
1629456581552,-0.34294199999999997,-0.519842,-0.766892
1629456581562,-0.34294199999999997,-0.524417,-0.771406
1629456581571,-0.343796,-0.541802,-0.7872049999999999
1629456581581,-0.348127,-0.552172,-0.7893399999999999
1629456581590,-0.35746,-0.556808,-0.781044
1629456581600,-0.36728099999999997,-0.554795,-0.7656109999999999
1629456581610,-0.371917,-0.543144,-0.762195
1629456581619,-0.37576,-0.523014,-0.770247
1629456581629,-0.377285,-0.496784,-0.779702
1629456581638,-0.373564,-0.473116,-0.779397
1629456581648,-0.375028,-0.461404,-0.781959
1629456581658,-0.377285,-0.46921199999999996,-0.802821
1629456581667,-0.37637,-0.484584,-0.807152
1629456581677,-0.378871,-0.491233,-0.801723
1629456581686,-0.37746799999999997,-0.49166,-0.7844599999999999
1629456581696,-0.378322,-0.48922,-0.759877
1629456581706,-0.382104,-0.483547,-0.746091
1629456581715,-0.387167,-0.473726,-0.744932
1629456581725,-0.389729,-0.458964,-0.741394
1629456581734,-0.389729,-0.444934,-0.734928
1629456581744,-0.396317,-0.434808,-0.745359
1629456581754,-0.399062,-0.435174,-0.751215
1629456581763,-0.406748,-0.439932,-0.762744
1629456581773,-0.41778899999999997,-0.450546,-0.785741
1629456581782,-0.42340099999999997,-0.459574,-0.7902549999999999
1629456581792,-0.430965,-0.4636,-0.7893399999999999
1629456581802,-0.437736,-0.465735,-0.7771399999999999
1629456581811,-0.443897,-0.46433199999999997,-0.760914
1629456581821,-0.450363,-0.46311199999999997,-0.749202
1629456581830,-0.455243,-0.460855,-0.74725
1629456581840,-0.456951,-0.454328,-0.756522
1629456581850,-0.452681,-0.44926499999999997,-0.7607309999999999
1629456581859,-0.449448,-0.447008,-0.762622
1629456581869,-0.443104,-0.446276,-0.7677459999999999
1629456581878,-0.441579,-0.447374,-0.776286
1629456581888,-0.440969,-0.451278,-0.783911
1629456581898,-0.441701,-0.455487,-0.780373
1629456581907,-0.44456799999999996,-0.457561,-0.774456
1629456581917,-0.446642,-0.460794,-0.768478
1629456581926,-0.44865499999999997,-0.461709,-0.7598159999999999
1629456581936,-0.447374,-0.460794,-0.760853
1629456581946,-0.440359,-0.458354,-0.766282
1629456581955,-0.434747,-0.455914,-0.773114
1629456581965,-0.437187,-0.460733,-0.784582
1629456581974,-0.442372,-0.472018,-0.794708
1629456581984,-0.44365299999999996,-0.48562099999999997,-0.798124
1629456581994,-0.44804499999999997,-0.493429,-0.797148
1629456582003,-0.45139999999999997,-0.498187,-0.793793
1629456582013,-0.450424,-0.506544,-0.7878149999999999
1629456582022,-0.445788,-0.514962,-0.775066
1629456582032,-0.440054,-0.522282,-0.7686
1629456582042,-0.433405,-0.527162,-0.763537
1629456582051,-0.43072099999999997,-0.531188,-0.75701
1629456582061,-0.427793,-0.535397,-0.748592
1629456582070,-0.426268,-0.535031,-0.74481
1629456582080,-0.427244,-0.532347,-0.743773
1629456582090,-0.427427,-0.527955,-0.7388319999999999
1629456582099,-0.42761,-0.522953,-0.739564
1629456582109,-0.425292,-0.5188659999999999,-0.739808
1629456582118,-0.42456,-0.511302,-0.743712
1629456582128,-0.420961,-0.501969,-0.748165
1629456582138,-0.419192,-0.491538,-0.752008
1629456582147,-0.416142,-0.481351,-0.7592059999999999
1629456582157,-0.413092,-0.47268899999999997,-0.759694
1629456582166,-0.40931,-0.46616199999999997,-0.760914
1629456582176,-0.407846,-0.46219699999999997,-0.761219
1629456582186,-0.406809,-0.458537,-0.762988
1629456582195,-0.405528,-0.45383999999999997,-0.766648
1629456582205,-0.40516199999999997,-0.449143,-0.776286
1629456582214,-0.406748,-0.445971,-0.787876
1629456582224,-0.40504,-0.443592,-0.798917
1629456582234,-0.40485699999999997,-0.444446,-0.808067
1629456582243,-0.401685,-0.44456799999999996,-0.812886
1629456582253,-0.396195,-0.447557,-0.811788
1629456582262,-0.39039999999999997,-0.45383999999999997,-0.804102
1629456582272,-0.384544,-0.462319,-0.798246
1629456582282,-0.37868799999999997,-0.47299399999999997,-0.790499
1629456582291,-0.377407,-0.48129,-0.7878149999999999
1629456582301,-0.376065,-0.48556,-0.785619
1629456582310,-0.376004,-0.489464,-0.783667
1629456582320,-0.375089,-0.489159,-0.781471
1629456582330,-0.37624799999999997,-0.487634,-0.781166
1629456582339,-0.37576,-0.484462,-0.780617
1629456582349,-0.376065,-0.48129,-0.776713
1629456582358,-0.37594299999999997,-0.479338,-0.775188
1629456582368,-0.375882,-0.477691,-0.772809
1629456582378,-0.374052,-0.477081,-0.772016
1629456582387,-0.373747,-0.477386,-0.771528
1629456582397,-0.373747,-0.479643,-0.7746999999999999
1629456582406,-0.373625,-0.482266,-0.775188
1629456582416,-0.374906,-0.48470599999999997,-0.7765299999999999
1629456582426,-0.376126,-0.486292,-0.777079
1629456582435,-0.379664,-0.488244,-0.776347
1629456582445,-0.382836,-0.48922,-0.775432
1629456582454,-0.388997,-0.48922,-0.777506
1629456582464,-0.39192499999999997,-0.489708,-0.780739
1629456582474,-0.396439,-0.487695,-0.782081
1629456582483,-0.398696,-0.48556,-0.782874
1629456582493,-0.401014,-0.484218,-0.786229
1629456582502,-0.404003,-0.480558,-0.787998
1629456582512,-0.404979,-0.47695899999999997,-0.7896449999999999
1629456582522,-0.406016,-0.47177399999999997,-0.787266
1629456582531,-0.407541,-0.470127,-0.784338
1629456582541,-0.407846,-0.469273,-0.784033
1629456582550,-0.40790699999999996,-0.470798,-0.7853749999999999
1629456582560,-0.4087,-0.470371,-0.785558
1629456582570,-0.408273,-0.468419,-0.783667
1629456582579,-0.40821199999999996,-0.470127,-0.779824
1629456582589,-0.406748,-0.470615,-0.776286
1629456582598,-0.405284,-0.470432,-0.775066
1629456582608,-0.404674,-0.46848,-0.775371
1629456582618,-0.403454,-0.466894,-0.775432
1629456582627,-0.402966,-0.464881,-0.775737
1629456582637,-0.40180699999999997,-0.465308,-0.777018
1629456582646,-0.401746,-0.465918,-0.776652
1629456582656,-0.402783,-0.46799199999999996,-0.777323
1629456582666,-0.401258,-0.47214,-0.778848
1629456582675,-0.402295,-0.47604399999999997,-0.780922
1629456582685,-0.401746,-0.479338,-0.783972
1629456582694,-0.40180699999999997,-0.480131,-0.784399
1629456582704,-0.401319,-0.479948,-0.784338
1629456582714,-0.400526,-0.479277,-0.781593
1629456582723,-0.398696,-0.47726399999999997,-0.777079
1629456582733,-0.397232,-0.476288,-0.774761
1629456582742,-0.396927,-0.47641,-0.772992
1629456582752,-0.39833,-0.47878899999999996,-0.775798
1629456582762,-0.398696,-0.481351,-0.780861
1629456582771,-0.39955,-0.481717,-0.7865949999999999
1629456582781,-0.401258,-0.477996,-0.785863
1629456582790,-0.401258,-0.473116,-0.781654
1629456582800,-0.399733,-0.470066,-0.780007
1629456582810,-0.397781,-0.467016,-0.777994
1629456582819,-0.395646,-0.46677199999999996,-0.777689
1629456582829,-0.393816,-0.468785,-0.777079
1629456582838,-0.39192499999999997,-0.471286,-0.775249
1629456582848,-0.390156,-0.474336,-0.7759199999999999
1629456582858,-0.389546,-0.477752,-0.776347
1629456582867,-0.388204,-0.479948,-0.777018
1629456582877,-0.388082,-0.478423,-0.775859
1629456582886,-0.38734999999999997,-0.477447,-0.7753099999999999
1629456582896,-0.386984,-0.47695899999999997,-0.776164
1629456582906,-0.385886,-0.477935,-0.777201
1629456582915,-0.383934,-0.477996,-0.776591
1629456582925,-0.383934,-0.478545,-0.778482
1629456582934,-0.383995,-0.481839,-0.781532
1629456582944,-0.385947,-0.484767,-0.783179
1629456582954,-0.387899,-0.48745099999999997,-0.783972
1629456582963,-0.388936,-0.48556,-0.785802
1629456582973,-0.390888,-0.48501099999999997,-0.7841549999999999
1629456582982,-0.392413,-0.48287599999999997,-0.783606
1629456582992,-0.391986,-0.481778,-0.780129
1629456583002,-0.39100999999999997,-0.47885,-0.7762249999999999
1629456583011,-0.390156,-0.477691,-0.769881
1629456583021,-0.389241,-0.477935,-0.7643909999999999
1629456583030,-0.38765499999999997,-0.47946,-0.7607309999999999
1629456583040,-0.389607,-0.480131,-0.763049
1629456583050,-0.391498,-0.480802,-0.76433
1629456583059,-0.391742,-0.479216,-0.764025
1629456583069,-0.393633,-0.476105,-0.76128
1629456583078,-0.395158,-0.474458,-0.762073
1629456583088,-0.395463,-0.473543,-0.760914
1629456583098,-0.397232,-0.477142,-0.760182
1629456583107,-0.39967199999999997,-0.480802,-0.759084
1629456583117,-0.40150199999999997,-0.485804,-0.7628659999999999
1629456583126,-0.403088,-0.489098,-0.765977
1629456583136,-0.40577199999999997,-0.489098,-0.769393
1629456583146,-0.40821199999999996,-0.493368,-0.772199
1629456583155,-0.41114,-0.495381,-0.772077
1629456583165,-0.412848,-0.495442,-0.77226
1629456583174,-0.41504399999999997,-0.494527,-0.771406
1629456583184,-0.417667,-0.497882,-0.771284
1629456583194,-0.420412,-0.501115,-0.769393
1629456583203,-0.423035,-0.502884,-0.76799
1629456583213,-0.425292,-0.504775,-0.765428
1629456583222,-0.42517,-0.504165,-0.7674409999999999
1629456583232,-0.42517,-0.504775,-0.769637
1629456583242,-0.42578,-0.504348,-0.769393
1629456583251,-0.42492599999999997,-0.504531,-0.765489
1629456583261,-0.426634,-0.503921,-0.759145
1629456583270,-0.42736599999999997,-0.501908,-0.753777
1629456583280,-0.42706099999999997,-0.501176,-0.751398
1629456583290,-0.42675599999999997,-0.499224,-0.749751
1629456583299,-0.42462099999999997,-0.496357,-0.749446
1629456583309,-0.426024,-0.492514,-0.747128
1629456583318,-0.423584,-0.49349,-0.745359
1629456583328,-0.422547,-0.494283,-0.745115
1629456583338,-0.420839,-0.49550299999999997,-0.748775
1629456583347,-0.422486,-0.495686,-0.747311
1629456583357,-0.423462,-0.49580799999999997,-0.747433
1629456583366,-0.42151,-0.497089,-0.751215
1629456583376,-0.419497,-0.500139,-0.750178
1629456583386,-0.418033,-0.501542,-0.748653
1629456583395,-0.4148,-0.503189,-0.749629
1629456583405,-0.413092,-0.505324,-0.749019
1629456583414,-0.411262,-0.508252,-0.745664
1629456583424,-0.407053,-0.510814,-0.743041
1629456583434,-0.405833,-0.512583,-0.740418
1629456583443,-0.40687,-0.5149009999999999,-0.744017
1629456583453,-0.40668699999999997,-0.5164259999999999,-0.750544
1629456583462,-0.407541,-0.517524,-0.7534109999999999
1629456583472,-0.40516199999999997,-0.516487,-0.755668
1629456583482,-0.40565,-0.5145959999999999,-0.75518
1629456583491,-0.40546699999999997,-0.513925,-0.755424
1629456583501,-0.40394199999999997,-0.515389,-0.754387
1629456583510,-0.403393,-0.5158159999999999,-0.753777
1629456583520,-0.40211199999999997,-0.518195,-0.75396
1629456583530,-0.40241699999999997,-0.51911,-0.753167
1629456583539,-0.40211199999999997,-0.521184,-0.752435
1629456583549,-0.40443,-0.520025,-0.754143
1629456583558,-0.404796,-0.5206959999999999,-0.754692
1629456583568,-0.405345,-0.519232,-0.755607
1629456583578,-0.405589,-0.517463,-0.754387
1629456583587,-0.405833,-0.51789,-0.75518
1629456583597,-0.404613,-0.515755,-0.7546309999999999
1629456583606,-0.404186,-0.51606,-0.754265
1629456583616,-0.40455199999999997,-0.51484,-0.753899
1629456583626,-0.40504,-0.515267,-0.753289
1629456583635,-0.407236,-0.513925,-0.756217
1629456583645,-0.408456,-0.5145959999999999,-0.757803
1629456583654,-0.40931,-0.513864,-0.757498
1629456583664,-0.408822,-0.5124,-0.756217
1629456583674,-0.409737,-0.510448,-0.755973
1629456583683,-0.41053,-0.509594,-0.754509
1629456583693,-0.40992,-0.508008,-0.754082
1629456583702,-0.40931,-0.506544,-0.754997
1629456583712,-0.409127,-0.504653,-0.756339
1629456583722,-0.407846,-0.50325,-0.758352
1629456583731,-0.408639,-0.503433,-0.759389
1629456583741,-0.40687,-0.503616,-0.759938
1629456583750,-0.40546699999999997,-0.502213,-0.7582909999999999
1629456583760,-0.404369,-0.501725,-0.7555459999999999
1629456583770,-0.40321,-0.501908,-0.7537159999999999
1629456583779,-0.4026,-0.503555,-0.75335
1629456583789,-0.400709,-0.504653,-0.7509709999999999
1629456583798,-0.399184,-0.50569,-0.749995
1629456583808,-0.397964,-0.507215,-0.750056
1629456583818,-0.399062,-0.507642,-0.750544
1629456583827,-0.397781,-0.510448,-0.7524959999999999
1629456583837,-0.398696,-0.510936,-0.751642
1629456583846,-0.400099,-0.509838,-0.750056
1629456583856,-0.40028199999999997,-0.510326,-0.750788
1629456583866,-0.400831,-0.51057,-0.751398
1629456583875,-0.40028199999999997,-0.511424,-0.753045
1629456583885,-0.401014,-0.512583,-0.754448
1629456583894,-0.400953,-0.512522,-0.7515809999999999
1629456583904,-0.401441,-0.514657,-0.750788
1629456583914,-0.402356,-0.51667,-0.7506659999999999
1629456583923,-0.400709,-0.515999,-0.750422
1629456583933,-0.400709,-0.516365,-0.75152
1629456583942,-0.4026,-0.518134,-0.748592
1629456583952,-0.40211199999999997,-0.519232,-0.748409
1629456583962,-0.401685,-0.521123,-0.750483
1629456583971,-0.400404,-0.523868,-0.7537159999999999
1629456583981,-0.39955,-0.525576,-0.753533
1629456583990,-0.398818,-0.525332,-0.751825
1629456584000,-0.399611,-0.526491,-0.749995
1629456584010,-0.397842,-0.525698,-0.750178
1629456584019,-0.398757,-0.526247,-0.75152
1629456584029,-0.397598,-0.523502,-0.751825
1629456584038,-0.397171,-0.523868,-0.751215
1629456584048,-0.396195,-0.524661,-0.749324
1629456584058,-0.394914,-0.524295,-0.747372
1629456584067,-0.39314499999999997,-0.521733,-0.746152
1629456584077,-0.39375499999999997,-0.522648,-0.745115
1629456584086,-0.39344999999999997,-0.523563,-0.746091
1629456584096,-0.393633,-0.525027,-0.747067
1629456584106,-0.394792,-0.524722,-0.749568
1629456584115,-0.397354,-0.525088,-0.750056
1629456584125,-0.397659,-0.524844,-0.751642
1629456584134,-0.397293,-0.527284,-0.7515809999999999
1629456584144,-0.398208,-0.526735,-0.749751
1629456584154,-0.397659,-0.527101,-0.748226
1629456584163,-0.3965,-0.528748,-0.74725
1629456584173,-0.395768,-0.529846,-0.746579
1629456584182,-0.394853,-0.529602,-0.746579
1629456584192,-0.395829,-0.529785,-0.74725
1629456584202,-0.397232,-0.530334,-0.746152
1629456584211,-0.397354,-0.530578,-0.74786
1629456584221,-0.398208,-0.529114,-0.749507
1629456584230,-0.398391,-0.527711,-0.750239
1629456584240,-0.397842,-0.527467,-0.750056
1629456584250,-0.397659,-0.52704,-0.747738
1629456584259,-0.398574,-0.524966,-0.746152
1629456584269,-0.39772,-0.526003,-0.744871
1629456584278,-0.396256,-0.526186,-0.744932
1629456584288,-0.395097,-0.526674,-0.745664
1629456584298,-0.395707,-0.527772,-0.744993
1629456584307,-0.395219,-0.528138,-0.744261
1629456584317,-0.397354,-0.528382,-0.744932
1629456584326,-0.396561,-0.529236,-0.745298
1629456584336,-0.397354,-0.528016,-0.74603
1629456584346,-0.398452,-0.52643,-0.746091
1629456584355,-0.397842,-0.526369,-0.747372
1629456584365,-0.396744,-0.526064,-0.74725
1629456584374,-0.396073,-0.526369,-0.746884
1629456584384,-0.396622,-0.524356,-0.745237
1629456584394,-0.39527999999999996,-0.525881,-0.744505
1629456584403,-0.392901,-0.526064,-0.743956
1629456584413,-0.39283999999999997,-0.526247,-0.74481
1629456584422,-0.393023,-0.525942,-0.74481
1629456584432,-0.39314499999999997,-0.52765,-0.745359
1629456584442,-0.392657,-0.527467,-0.745908
1629456584451,-0.393328,-0.527528,-0.74542
1629456584461,-0.393877,-0.526979,-0.743834
1629456584470,-0.39344999999999997,-0.528016,-0.744566
1629456584480,-0.39314499999999997,-0.528748,-0.745298
1629456584490,-0.394121,-0.528748,-0.745908
1629456584499,-0.395036,-0.527711,-0.74603
1629456584509,-0.395219,-0.527589,-0.745054
1629456584518,-0.395158,-0.526918,-0.744078
1629456584528,-0.394548,-0.527833,-0.743529
1629456584538,-0.396744,-0.52826,-0.745054
1629456584547,-0.396866,-0.528138,-0.746152
1629456584557,-0.397415,-0.528504,-0.746579
1629456584566,-0.39967199999999997,-0.527833,-0.746823
1629456584576,-0.400038,-0.527833,-0.747006
1629456584586,-0.40199,-0.528626,-0.748836
1629456584595,-0.403698,-0.529297,-0.749934
1629456584605,-0.404613,-0.527833,-0.752374
1629456584614,-0.404918,-0.52765,-0.752618
1629456584624,-0.40443,-0.526186,-0.752435
1629456584634,-0.40321,-0.525027,-0.752557
1629456584643,-0.403576,-0.524661,-0.753289
1629456584653,-0.402905,-0.523563,-0.7531059999999999
1629456584662,-0.40241699999999997,-0.5234409999999999,-0.75274
1629456584672,-0.402905,-0.5213059999999999,-0.750361
1629456584682,-0.403454,-0.519293,-0.749141
1629456584691,-0.40272199999999997,-0.5182559999999999,-0.750483
1629456584701,-0.401746,-0.516365,-0.7512759999999999
1629456584710,-0.40089199999999997,-0.516365,-0.753472
1629456584720,-0.399733,-0.517219,-0.751032
1629456584730,-0.397598,-0.517768,-0.748226
1629456584739,-0.397354,-0.518683,-0.748165
1629456584749,-0.397598,-0.519842,-0.747677
1629456584758,-0.397537,-0.5203909999999999,-0.748958
1629456584768,-0.398574,-0.519903,-0.749995
1629456584778,-0.397842,-0.517707,-0.75152
1629456584787,-0.397659,-0.516548,-0.749934
1629456584797,-0.398147,-0.515633,-0.749629
1629456584806,-0.398574,-0.516182,-0.748714
1629456584816,-0.398391,-0.517524,-0.748409
1629456584826,-0.398513,-0.518927,-0.746701
1629456584835,-0.399794,-0.52033,-0.746823
1629456584845,-0.39967199999999997,-0.520879,-0.747555
1629456584854,-0.400221,-0.5206959999999999,-0.74664
1629456584864,-0.400526,-0.520635,-0.74725
1629456584874,-0.40028199999999997,-0.521428,-0.747128
1629456584883,-0.399794,-0.522892,-0.746762
1629456584893,-0.400526,-0.521062,-0.746152
1629456584902,-0.40028199999999997,-0.523014,-0.746945
1629456584912,-0.399611,-0.525393,-0.747311
1629456584922,-0.39936699999999997,-0.526857,-0.749324
1629456584931,-0.40119699999999997,-0.526796,-0.750178
1629456584941,-0.401319,-0.526674,-0.747982
1629456584950,-0.40089199999999997,-0.525698,-0.746518
1629456584960,-0.400343,-0.525149,-0.746335
1629456584970,-0.399489,-0.526918,-0.745542
1629456584979,-0.398269,-0.528626,-0.744688
1629456584989,-0.397476,-0.529236,-0.744078
1629456584998,-0.396317,-0.52887,-0.743712
1629456585008,-0.39588999999999996,-0.528992,-0.743773
1629456585018,-0.395951,-0.528077,-0.745481
1629456585027,-0.394182,-0.52765,-0.745542
1629456585037,-0.394609,-0.529419,-0.744688
1629456585046,-0.393328,-0.530395,-0.745115
1629456585056,-0.394243,-0.5307,-0.745237
1629456585066,-0.393328,-0.531554,-0.74725
1629456585075,-0.393267,-0.532652,-0.746945
1629456585085,-0.394487,-0.531859,-0.747799
1629456585094,-0.393816,-0.530822,-0.746579
1629456585104,-0.39466999999999997,-0.530029,-0.74664
1629456585114,-0.39497499999999997,-0.529053,-0.74603
1629456585123,-0.39558499999999996,-0.52765,-0.746213
1629456585133,-0.394914,-0.528443,-0.74664
1629456585142,-0.394914,-0.528992,-0.745908
1629456585152,-0.394243,-0.529602,-0.74481
1629456585162,-0.395463,-0.528199,-0.746213
1629456585171,-0.395402,-0.527894,-0.747616
1629456585181,-0.39497499999999997,-0.527162,-0.747494
1629456585190,-0.39497499999999997,-0.527833,-0.746823
1629456585200,-0.395646,-0.52643,-0.747006
1629456585210,-0.39588999999999996,-0.527772,-0.747067
1629456585219,-0.395768,-0.528504,-0.747921
1629456585229,-0.396683,-0.52826,-0.74786
1629456585238,-0.398147,-0.52826,-0.748043
1629456585248,-0.399001,-0.528382,-0.748897
1629456585258,-0.398513,-0.527406,-0.748836
1629456585267,-0.398452,-0.526613,-0.748531
1629456585277,-0.397842,-0.52643,-0.746945
1629456585286,-0.396378,-0.525149,-0.747067
1629456585296,-0.397598,-0.524722,-0.747494
1629456585306,-0.397232,-0.525088,-0.747128
1629456585315,-0.396134,-0.524539,-0.747677
1629456585325,-0.396317,-0.5237459999999999,-0.747372
1629456585334,-0.397171,-0.523807,-0.747616
1629456585344,-0.3965,-0.522953,-0.746091
1629456585354,-0.396012,-0.52338,-0.748836
1629456585363,-0.396805,-0.524356,-0.749812
1629456585373,-0.395341,-0.524661,-0.749446
1629456585382,-0.394487,-0.523685,-0.749934
1629456585392,-0.395036,-0.522404,-0.747738
1629456585402,-0.394304,-0.522709,-0.748653
1629456585411,-0.394487,-0.5234409999999999,-0.749812
1629456585421,-0.394426,-0.523319,-0.749812
1629456585430,-0.392474,-0.524356,-0.747311
1629456585440,-0.393572,-0.5240509999999999,-0.746884
1629456585450,-0.39405999999999997,-0.52582,-0.748531
1629456585459,-0.39497499999999997,-0.52826,-0.748958
1629456585469,-0.396012,-0.528565,-0.748653
1629456585478,-0.396561,-0.527528,-0.74725
1629456585488,-0.397232,-0.528077,-0.745176
1629456585498,-0.396866,-0.528321,-0.746396
1629456585507,-0.396988,-0.528992,-0.7506659999999999
1629456585517,-0.395463,-0.529236,-0.750605
1629456585526,-0.39558499999999996,-0.530029,-0.748104
1629456585536,-0.396378,-0.530517,-0.744566
1629456585546,-0.396378,-0.53192,-0.745115
1629456585555,-0.395646,-0.53253,-0.74603
1629456585565,-0.395402,-0.531432,-0.748531
1629456585574,-0.395158,-0.53009,-0.748348
1629456585584,-0.395158,-0.528565,-0.749324
1629456585594,-0.394731,-0.527345,-0.748226
1629456585603,-0.393938,-0.525393,-0.74664
1629456585613,-0.394426,-0.525149,-0.747433
1629456585622,-0.394487,-0.526308,-0.746884
1629456585632,-0.394121,-0.527345,-0.747311
1629456585642,-0.394304,-0.526857,-0.747311
1629456585651,-0.393328,-0.525759,-0.746945
1629456585661,-0.394914,-0.525637,-0.747006
1629456585670,-0.394121,-0.524966,-0.748043
1629456585680,-0.394487,-0.524356,-0.748775
1629456585690,-0.393267,-0.523258,-0.747738
1629456585699,-0.393511,-0.523075,-0.747128
1629456585709,-0.393999,-0.523075,-0.744322
1629456585718,-0.392901,-0.5246,-0.744566
1629456585728,-0.392108,-0.525576,-0.74664
1629456585738,-0.393816,-0.527345,-0.748653
1629456585747,-0.395402,-0.52643,-0.746884
1629456585757,-0.394548,-0.526735,-0.748348
1629456585766,-0.395341,-0.525698,-0.748592
1629456585776,-0.395402,-0.524417,-0.748714
1629456585786,-0.393938,-0.526064,-0.748165
1629456585795,-0.393938,-0.526613,-0.746396
1629456585805,-0.39283999999999997,-0.52826,-0.74603
1629456585814,-0.392657,-0.529053,-0.746335
1629456585824,-0.392962,-0.530578,-0.745481
1629456585834,-0.392108,-0.528931,-0.744322
1629456585843,-0.391742,-0.527772,-0.743468
1629456585853,-0.391681,-0.527467,-0.744322
1629456585862,-0.39222999999999997,-0.52643,-0.745542
1629456585872,-0.39161999999999997,-0.525759,-0.745786
1629456585882,-0.390888,-0.525027,-0.746823
1629456585891,-0.39222999999999997,-0.524112,-0.747921
1629456585901,-0.391254,-0.52338,-0.747128
1629456585910,-0.391254,-0.524356,-0.746762
1629456585920,-0.390888,-0.526125,-0.745542
1629456585930,-0.390156,-0.526247,-0.745969
1629456585939,-0.390034,-0.52582,-0.744993
1629456585949,-0.390583,-0.527162,-0.746335
1629456585958,-0.38978999999999997,-0.527101,-0.746396
1629456585968,-0.39009499999999997,-0.527772,-0.746701
1629456585978,-0.390034,-0.527406,-0.746701
1629456585987,-0.39070499999999997,-0.527162,-0.746579
1629456585997,-0.39039999999999997,-0.528626,-0.748836
1629456586006,-0.390644,-0.528504,-0.750422
1629456586016,-0.389912,-0.529724,-0.748348
1629456586026,-0.39039999999999997,-0.53009,-0.747799
1629456586035,-0.390034,-0.531737,-0.747738
1629456586045,-0.389546,-0.532469,-0.74603
1629456586054,-0.390217,-0.53375,-0.74664
1629456586064,-0.389058,-0.533872,-0.745481
1629456586074,-0.390888,-0.533262,-0.74725
1629456586083,-0.390949,-0.531249,-0.750117
1629456586093,-0.390827,-0.530273,-0.749629
1629456586102,-0.39161999999999997,-0.527772,-0.747616
1629456586112,-0.390888,-0.527345,-0.745481
1629456586122,-0.391681,-0.526308,-0.746213
1629456586131,-0.392474,-0.525576,-0.74603
1629456586141,-0.392047,-0.525881,-0.746701
1629456586150,-0.393023,-0.524844,-0.747494
1629456586160,-0.394182,-0.525454,-0.747189
1629456586170,-0.394853,-0.524661,-0.747921
1629456586179,-0.394853,-0.525027,-0.74725
1629456586189,-0.396012,-0.52216,-0.747189
1629456586198,-0.395707,-0.5213059999999999,-0.746823
1629456586208,-0.396073,-0.52155,-0.748775
1629456586218,-0.395707,-0.521672,-0.750849
1629456586227,-0.396378,-0.520147,-0.749141
1629456586237,-0.396805,-0.5203909999999999,-0.749202
1629456586246,-0.398025,-0.5219159999999999,-0.750483
1629456586256,-0.399611,-0.522404,-0.75396
1629456586266,-0.399794,-0.52399,-0.75518
1629456586275,-0.400709,-0.523807,-0.752252
1629456586285,-0.40321,-0.523319,-0.7537159999999999
1629456586294,-0.402173,-0.524722,-0.757498
1629456586304,-0.40199,-0.527101,-0.760609
1629456586314,-0.401929,-0.529114,-0.761707
1629456586323,-0.401258,-0.529907,-0.75823
1629456586333,-0.402539,-0.530334,-0.7567659999999999
1629456586342,-0.40272199999999997,-0.529602,-0.757742
1629456586352,-0.40333199999999997,-0.52948,-0.76006
1629456586362,-0.403088,-0.52826,-0.761402
1629456586371,-0.402478,-0.52643,-0.759999
1629456586381,-0.400526,-0.524661,-0.756583
1629456586390,-0.400343,-0.5231359999999999,-0.7528009999999999
1629456586400,-0.399428,-0.5225259999999999,-0.7518859999999999
1629456586410,-0.398818,-0.521245,-0.75213
1629456586419,-0.39772,-0.520269,-0.750483
1629456586429,-0.397598,-0.519049,-0.749507
1629456586438,-0.396317,-0.518683,-0.748897
1629456586448,-0.396134,-0.5188659999999999,-0.748897
1629456586458,-0.395768,-0.51972,-0.749324
1629456586467,-0.395158,-0.5194759999999999,-0.748897
1629456586477,-0.394121,-0.520208,-0.749934
1629456586486,-0.394121,-0.521062,-0.749446
1629456586496,-0.392352,-0.518988,-0.748592
1629456586506,-0.391803,-0.519232,-0.748775
1629456586515,-0.390522,-0.520513,-0.751093
1629456586525,-0.390644,-0.5216109999999999,-0.751154
1629456586534,-0.390644,-0.521123,-0.748775
1629456586544,-0.388387,-0.520757,-0.750178
1629456586554,-0.388448,-0.520818,-0.751642
1629456586563,-0.388326,-0.520574,-0.751825
1629456586573,-0.386557,-0.520818,-0.753533
1629456586582,-0.38674,-0.520452,-0.75152
1629456586592,-0.385764,-0.521062,-0.749324
1629456586602,-0.385276,-0.521794,-0.748348
1629456586611,-0.384117,-0.523075,-0.748348
1629456586621,-0.383507,-0.523868,-0.750239
1629456586630,-0.384788,-0.523502,-0.749995
1629456586640,-0.385276,-0.524905,-0.751764
1629456586650,-0.387411,-0.524905,-0.752069
1629456586659,-0.388021,-0.524417,-0.75335
1629456586669,-0.389607,-0.524417,-0.75518
1629456586678,-0.390461,-0.525149,-0.755607
1629456586688,-0.391437,-0.526735,-0.7549359999999999
1629456586698,-0.39222999999999997,-0.527406,-0.754204
1629456586707,-0.392047,-0.526613,-0.752862
1629456586717,-0.393328,-0.524112,-0.753472
1629456586726,-0.39466999999999997,-0.524112,-0.751764
1629456586736,-0.393816,-0.5228309999999999,-0.751703
1629456586746,-0.39436499999999997,-0.52216,-0.753289
1629456586755,-0.395646,-0.522953,-0.753899
1629456586765,-0.396622,-0.521062,-0.752557
1629456586774,-0.397232,-0.5213059999999999,-0.753045
1629456586784,-0.396927,-0.5200859999999999,-0.75274
1629456586794,-0.397842,-0.520452,-0.75335
1629456586803,-0.39711,-0.52094,-0.7531059999999999
1629456586813,-0.398086,-0.520574,-0.7509709999999999
1629456586822,-0.39711,-0.518439,-0.749934
1629456586832,-0.396805,-0.518622,-0.748287
1629456586842,-0.395646,-0.519232,-0.74786
1629456586851,-0.394487,-0.52033,-0.750178
1629456586861,-0.395768,-0.52094,-0.752069
1629456586870,-0.395768,-0.521672,-0.75335
1629456586880,-0.396256,-0.521062,-0.75396
1629456586890,-0.39711,-0.520208,-0.75335
1629456586899,-0.397171,-0.520025,-0.752862
1629456586909,-0.396622,-0.520452,-0.752862
1629456586918,-0.396927,-0.5200859999999999,-0.752679
1629456586928,-0.395463,-0.518805,-0.7512759999999999
1629456586938,-0.395219,-0.518744,-0.751398
1629456586947,-0.39497499999999997,-0.519354,-0.752618
1629456586957,-0.394182,-0.519842,-0.7528009999999999
1629456586966,-0.39497499999999997,-0.5188659999999999,-0.754204
1629456586976,-0.39527999999999996,-0.515877,-0.753838
1629456586986,-0.395341,-0.516487,-0.750056
1629456586995,-0.395524,-0.517219,-0.7512759999999999
1629456587005,-0.39558499999999996,-0.5179509999999999,-0.752557
1629456587014,-0.394609,-0.518683,-0.75518
1629456587024,-0.39344999999999997,-0.519964,-0.754509
1629456587034,-0.39314499999999997,-0.520025,-0.752313
1629456587043,-0.39344999999999997,-0.52094,-0.749629
1629456587053,-0.393084,-0.5213059999999999,-0.74969
1629456587062,-0.393572,-0.521428,-0.750788
1629456587072,-0.393206,-0.520757,-0.752862
1629456587082,-0.392108,-0.519964,-0.7524959999999999
1629456587091,-0.392779,-0.519293,-0.752252
1629456587101,-0.393206,-0.5194759999999999,-0.750422
1629456587110,-0.393328,-0.519537,-0.751947
1629456587120,-0.393023,-0.519903,-0.751764
1629456587130,-0.392962,-0.521184,-0.75091
1629456587139,-0.393267,-0.5222209999999999,-0.751032
1629456587149,-0.393023,-0.522465,-0.751154
1629456587158,-0.39436499999999997,-0.522038,-0.750178
1629456587168,-0.39466999999999997,-0.521672,-0.753289
1629456587178,-0.394853,-0.520757,-0.753655
1629456587187,-0.39588999999999996,-0.5206959999999999,-0.752679
1629456587197,-0.396134,-0.5200859999999999,-0.7531059999999999
1629456587206,-0.396744,-0.52033,-0.752862
1629456587216,-0.396622,-0.520147,-0.7528009999999999
1629456587226,-0.396988,-0.51972,-0.755363
1629456587235,-0.398757,-0.51972,-0.7549359999999999
1629456587245,-0.39997699999999997,-0.518134,-0.752557
1629456587254,-0.399855,-0.51728,-0.753472
1629456587264,-0.400465,-0.5167309999999999,-0.754265
1629456587274,-0.40077,-0.516304,-0.754387
1629456587283,-0.400648,-0.516792,-0.755485
1629456587293,-0.39955,-0.515999,-0.7540209999999999
1629456587302,-0.399001,-0.51606,-0.752984
1629456587312,-0.399611,-0.516914,-0.752252
1629456587322,-0.397171,-0.516365,-0.75152
1629456587331,-0.397232,-0.51667,-0.751093
1629456587341,-0.397232,-0.516853,-0.7506659999999999
1629456587350,-0.39711,-0.517524,-0.7509709999999999
1629456587360,-0.397598,-0.5176459999999999,-0.7512759999999999
1629456587370,-0.397537,-0.517463,-0.752984
1629456587379,-0.398635,-0.517402,-0.7540209999999999
1629456587389,-0.398879,-0.517097,-0.754509
1629456587398,-0.398757,-0.516975,-0.753472
1629456587408,-0.39772,-0.51667,-0.752984
1629456587418,-0.398757,-0.516609,-0.7521909999999999
1629456587427,-0.397537,-0.516548,-0.75152
1629456587437,-0.395951,-0.51667,-0.750056
1629456587446,-0.396683,-0.51667,-0.749934
1629456587456,-0.398086,-0.517768,-0.750483
1629456587466,-0.397354,-0.51789,-0.7515809999999999
1629456587475,-0.397598,-0.516975,-0.7521909999999999
1629456587485,-0.398696,-0.516792,-0.7506659999999999
1629456587494,-0.397659,-0.517402,-0.750239
1629456587504,-0.398513,-0.516914,-0.7512759999999999
1629456587514,-0.398696,-0.5176459999999999,-0.752313
1629456587523,-0.396561,-0.51789,-0.752069
1629456587533,-0.397415,-0.517097,-0.751398
1629456587542,-0.397171,-0.519049,-0.750239
1629456587552,-0.396622,-0.520025,-0.7509709999999999
1629456587562,-0.396561,-0.520513,-0.750544
1629456587571,-0.39711,-0.520574,-0.750788
1629456587581,-0.398025,-0.52094,-0.751154
1629456587590,-0.397964,-0.52033,-0.752984
1629456587600,-0.39894,-0.520269,-0.75335
1629456587610,-0.400038,-0.51972,-0.753472
1629456587619,-0.40138,-0.519232,-0.7537159999999999
1629456587629,-0.402295,-0.518073,-0.75335
1629456587638,-0.40089199999999997,-0.5173409999999999,-0.753228
1629456587648,-0.400221,-0.516792,-0.75274
1629456587658,-0.400648,-0.516548,-0.753045
1629456587667,-0.40028199999999997,-0.517463,-0.753533
1629456587677,-0.400404,-0.518378,-0.753228
1629456587686,-0.399489,-0.5164259999999999,-0.7537159999999999
1629456587696,-0.400343,-0.5149009999999999,-0.751093
1629456587706,-0.400526,-0.5152059999999999,-0.751459
1629456587715,-0.401319,-0.514474,-0.75152
1629456587725,-0.401319,-0.5152059999999999,-0.753655
1629456587734,-0.400831,-0.515023,-0.755485
1629456587744,-0.400465,-0.5158159999999999,-0.754204
1629456587754,-0.400465,-0.516365,-0.751947
1629456587763,-0.399733,-0.517158,-0.750178
1629456587773,-0.400038,-0.517829,-0.750056
1629456587782,-0.399245,-0.517097,-0.751459
1629456587792,-0.399184,-0.516487,-0.752679
1629456587802,-0.398757,-0.5170359999999999,-0.754082
1629456587811,-0.398208,-0.516853,-0.753472
1629456587821,-0.396561,-0.5152059999999999,-0.752374
1629456587830,-0.398086,-0.515938,-0.752923
1629456587840,-0.397232,-0.516487,-0.753167
1629456587850,-0.397537,-0.515389,-0.752435
1629456587859,-0.396378,-0.5152059999999999,-0.7518859999999999
1629456587869,-0.396744,-0.515694,-0.751947
1629456587878,-0.395951,-0.516609,-0.75335
1629456587888,-0.396256,-0.5170359999999999,-0.752923
1629456587898,-0.397842,-0.5176459999999999,-0.754692
1629456587907,-0.396012,-0.5173409999999999,-0.7537159999999999
1629456587917,-0.397415,-0.5170359999999999,-0.752984
1629456587926,-0.39711,-0.517402,-0.753045
1629456587936,-0.397293,-0.518195,-0.753045
1629456587946,-0.396683,-0.5194759999999999,-0.754814
1629456587955,-0.396927,-0.519964,-0.755302
1629456587965,-0.398818,-0.517707,-0.751703
1629456587974,-0.397659,-0.51606,-0.753655
1629456587984,-0.398025,-0.516609,-0.75396
1629456587994,-0.397476,-0.516365,-0.754753
1629456588003,-0.397476,-0.5158159999999999,-0.754997
1629456588013,-0.397232,-0.51606,-0.753228
1629456588022,-0.396988,-0.51545,-0.752374
1629456588032,-0.396134,-0.5164259999999999,-0.751459
1629456588042,-0.39527999999999996,-0.516243,-0.7506659999999999
1629456588051,-0.396378,-0.516304,-0.751337
1629456588061,-0.395768,-0.517402,-0.751032
1629456588070,-0.395463,-0.518744,-0.752374
1629456588080,-0.39558499999999996,-0.5200859999999999,-0.752984
1629456588090,-0.396439,-0.520147,-0.752862
1629456588099,-0.396317,-0.5197809999999999,-0.753472
1629456588109,-0.395951,-0.519232,-0.75335
1629456588118,-0.3965,-0.518134,-0.753533
1629456588128,-0.397049,-0.5185,-0.752862
1629456588138,-0.395402,-0.519903,-0.750727
1629456588147,-0.396073,-0.517707,-0.749934
1629456588157,-0.396317,-0.5167309999999999,-0.750117
1629456588166,-0.396927,-0.516365,-0.749324
1629456588176,-0.397171,-0.516792,-0.750361
1629456588186,-0.398269,-0.5182559999999999,-0.751764
1629456588195,-0.399062,-0.519232,-0.75335
1629456588205,-0.398696,-0.520513,-0.752679
1629456588214,-0.399062,-0.522099,-0.752069
1629456588224,-0.399611,-0.521733,-0.752374
1629456588234,-0.39955,-0.521062,-0.752069
1629456588243,-0.399184,-0.521672,-0.7518859999999999
1629456588253,-0.39936699999999997,-0.521367,-0.752252
1629456588262,-0.39894,-0.521123,-0.75152
1629456588272,-0.39894,-0.521062,-0.751825
1629456588282,-0.399428,-0.5200859999999999,-0.7509709999999999
1629456588291,-0.399489,-0.520452,-0.7503
1629456588301,-0.397659,-0.5188659999999999,-0.749568
1629456588310,-0.397842,-0.519537,-0.749934
1629456588320,-0.397354,-0.5197809999999999,-0.751154
1629456588330,-0.397537,-0.520025,-0.7506659999999999
1629456588339,-0.397598,-0.519598,-0.75152
1629456588349,-0.398208,-0.5197809999999999,-0.750361
1629456588358,-0.398696,-0.519598,-0.75152
1629456588368,-0.399062,-0.519293,-0.751459
1629456588378,-0.398452,-0.519293,-0.7524959999999999
1629456588387,-0.398879,-0.51972,-0.7531059999999999
1629456588397,-0.397964,-0.519842,-0.750788
1629456588406,-0.398269,-0.5206959999999999,-0.7512759999999999
1629456588416,-0.398086,-0.52094,-0.752069
1629456588426,-0.397415,-0.52094,-0.751825
1629456588435,-0.398025,-0.519232,-0.7528009999999999
1629456588445,-0.39772,-0.517707,-0.752008
1629456588454,-0.398025,-0.517463,-0.75091
1629456588464,-0.398513,-0.5161209999999999,-0.752069
1629456588474,-0.397049,-0.517463,-0.754143
1629456588483,-0.397842,-0.518988,-0.7552409999999999
1629456588493,-0.396561,-0.5185609999999999,-0.7537159999999999
1629456588502,-0.397354,-0.518988,-0.750178
1629456588512,-0.396744,-0.520025,-0.749934
1629456588522,-0.396683,-0.520208,-0.750056
1629456588531,-0.396561,-0.519537,-0.751032
1629456588541,-0.395524,-0.519354,-0.753167
1629456588550,-0.396256,-0.5179509999999999,-0.7524959999999999
1629456588560,-0.397354,-0.515938,-0.752069
1629456588570,-0.397232,-0.5155109999999999,-0.751703
1629456588579,-0.397476,-0.5170359999999999,-0.7515809999999999
1629456588589,-0.396622,-0.518378,-0.752313
1629456588598,-0.397476,-0.5194759999999999,-0.75091
1629456588608,-0.396805,-0.520208,-0.750544
1629456588618,-0.397659,-0.520574,-0.7512759999999999
1629456588627,-0.398025,-0.52033,-0.75091
1629456588637,-0.398208,-0.520513,-0.7524959999999999
1629456588646,-0.39833,-0.520635,-0.75213
1629456588656,-0.398452,-0.519964,-0.751459
1629456588666,-0.398025,-0.521123,-0.752374
1629456588675,-0.398696,-0.5203909999999999,-0.752435
1629456588685,-0.39894,-0.51972,-0.75274
1629456588694,-0.398635,-0.5197809999999999,-0.75518
1629456588704,-0.399733,-0.519415,-0.752618
1629456588714,-0.39894,-0.5167309999999999,-0.750483
1629456588723,-0.396805,-0.5167309999999999,-0.7524959999999999
1629456588733,-0.398696,-0.516792,-0.75152
1629456588742,-0.397476,-0.516853,-0.752374
1629456588752,-0.398208,-0.5167309999999999,-0.752252
1629456588762,-0.397964,-0.5173409999999999,-0.751154
1629456588771,-0.397842,-0.516975,-0.751703
1629456588781,-0.397537,-0.516914,-0.7515809999999999
1629456588790,-0.396805,-0.5185,-0.752008
1629456588800,-0.396256,-0.518378,-0.7518859999999999
1629456588810,-0.397354,-0.5188659999999999,-0.75213
1629456588819,-0.397354,-0.519842,-0.751215
1629456588829,-0.397354,-0.520574,-0.752252
1629456588838,-0.397598,-0.520025,-0.753655
1629456588848,-0.396683,-0.519842,-0.753899
1629456588858,-0.396134,-0.519354,-0.7521909999999999
1629456588867,-0.396744,-0.518988,-0.75152
1629456588877,-0.395707,-0.518378,-0.750605
1629456588886,-0.396317,-0.5185,-0.750361
1629456588896,-0.396378,-0.519354,-0.750483
1629456588906,-0.395951,-0.51911,-0.751398
1629456588915,-0.395829,-0.520452,-0.7506659999999999
1629456588925,-0.395158,-0.51972,-0.750727
1629456588934,-0.3965,-0.520818,-0.750361
1629456588944,-0.396561,-0.518744,-0.750422
1629456588954,-0.396073,-0.519049,-0.749751
1629456588963,-0.396622,-0.519354,-0.750117
1629456588973,-0.396805,-0.5206959999999999,-0.750605
1629456588982,-0.397171,-0.51972,-0.752008
1629456588992,-0.39772,-0.520513,-0.750788
1629456589002,-0.398147,-0.520818,-0.749568
1629456589011,-0.397293,-0.519659,-0.748043
1629456589021,-0.396927,-0.521123,-0.748714
1629456589030,-0.396805,-0.522709,-0.750605
1629456589040,-0.396439,-0.522038,-0.751398
1629456589050,-0.396378,-0.5225259999999999,-0.75274
1629456589059,-0.396378,-0.522038,-0.75274
1629456589069,-0.397171,-0.522038,-0.7515809999999999
1629456589078,-0.397354,-0.521428,-0.75274
1629456589088,-0.396683,-0.5210009999999999,-0.753167
1629456589098,-0.396012,-0.5210009999999999,-0.753167
1629456589107,-0.395097,-0.520574,-0.751398
1629456589117,-0.39527999999999996,-0.520452,-0.752252
1629456589126,-0.393877,-0.521733,-0.754875
1629456589136,-0.392718,-0.523075,-0.754143
1629456589146,-0.392291,-0.5219159999999999,-0.75457
1629456589155,-0.39222999999999997,-0.520879,-0.753838
1629456589165,-0.392596,-0.519842,-0.752313
1629456589174,-0.393511,-0.5188659999999999,-0.752984
1629456589184,-0.39253499999999997,-0.51911,-0.754753
1629456589194,-0.391803,-0.520513,-0.756278
1629456589203,-0.39161999999999997,-0.5216109999999999,-0.7564
1629456589213,-0.391132,-0.523014,-0.754814
1629456589222,-0.390522,-0.523014,-0.752435
1629456589232,-0.39131499999999997,-0.5231359999999999,-0.753594
1629456589242,-0.391986,-0.52216,-0.7537159999999999
1629456589251,-0.390034,-0.522099,-0.75335
1629456589261,-0.39070499999999997,-0.521672,-0.753533
1629456589270,-0.390766,-0.521367,-0.751703
1629456589280,-0.390278,-0.520208,-0.751825
1629456589290,-0.389851,-0.520269,-0.750849
1629456589299,-0.390888,-0.520757,-0.750727
1629456589309,-0.390522,-0.520818,-0.750788
1629456589318,-0.39100999999999997,-0.5206959999999999,-0.750361
1629456589328,-0.390583,-0.520025,-0.750544
1629456589338,-0.391193,-0.520147,-0.749202
1629456589347,-0.391254,-0.518988,-0.750239
1629456589357,-0.392291,-0.520818,-0.75152
1629456589366,-0.393023,-0.522404,-0.753533
1629456589376,-0.393816,-0.522282,-0.752069
1629456589386,-0.393999,-0.52216,-0.751947
1629456589395,-0.394731,-0.521855,-0.7518859999999999
1629456589405,-0.395402,-0.521977,-0.7552409999999999
1629456589414,-0.396317,-0.521794,-0.7534109999999999
1629456589424,-0.396988,-0.52033,-0.751459
1629456589434,-0.395951,-0.519598,-0.751459
1629456589443,-0.396927,-0.520757,-0.75335
1629456589453,-0.396073,-0.521184,-0.75457
1629456589462,-0.396195,-0.52094,-0.7546309999999999
1629456589472,-0.395158,-0.52155,-0.753289
1629456589482,-0.39405999999999997,-0.520879,-0.75152
1629456589491,-0.395341,-0.520025,-0.751032
1629456589501,-0.393816,-0.5200859999999999,-0.751093
1629456589510,-0.394426,-0.519842,-0.750483
1629456589520,-0.394304,-0.519659,-0.75091
1629456589530,-0.394121,-0.522038,-0.751764
1629456589539,-0.393999,-0.521123,-0.751825
1629456589549,-0.39344999999999997,-0.521672,-0.7543259999999999
1629456589558,-0.393511,-0.5213059999999999,-0.754265
1629456589568,-0.394121,-0.522099,-0.754753
1629456589578,-0.393816,-0.5219159999999999,-0.754204
1629456589587,-0.393084,-0.521672,-0.7540209999999999
1629456589597,-0.392413,-0.521367,-0.75213
1629456589606,-0.392352,-0.5203909999999999,-0.7515809999999999
1629456589616,-0.392962,-0.519598,-0.751093
1629456589626,-0.39314499999999997,-0.5194759999999999,-0.751642
1629456589635,-0.393023,-0.519903,-0.753045
1629456589645,-0.392779,-0.520269,-0.753899
1629456589654,-0.393267,-0.5206959999999999,-0.7543259999999999
1629456589664,-0.393816,-0.52094,-0.75457
1629456589674,-0.394792,-0.520635,-0.75518
1629456589683,-0.394792,-0.520513,-0.754143
1629456589693,-0.394853,-0.52033,-0.752862
1629456589702,-0.394609,-0.520025,-0.752435
1629456589712,-0.39497499999999997,-0.5206959999999999,-0.7531059999999999
1629456589722,-0.394304,-0.521733,-0.753045
1629456589731,-0.393938,-0.521245,-0.754692
1629456589741,-0.393816,-0.519598,-0.753472
1629456589750,-0.393938,-0.519537,-0.75152
1629456589760,-0.394426,-0.5194759999999999,-0.751215
1629456589770,-0.394243,-0.5206959999999999,-0.750605
1629456589779,-0.393328,-0.51972,-0.750056
1629456589789,-0.393023,-0.5191709999999999,-0.750239
1629456589798,-0.393267,-0.519964,-0.749568
1629456589808,-0.39405999999999997,-0.520147,-0.748409
1629456589818,-0.394182,-0.521184,-0.750727
1629456589827,-0.393572,-0.523502,-0.749995
1629456589837,-0.393389,-0.523075,-0.75213
1629456589846,-0.39405999999999997,-0.522099,-0.75274
1629456589856,-0.394548,-0.521367,-0.751825
1629456589866,-0.395097,-0.521855,-0.750422
1629456589875,-0.395524,-0.521672,-0.752862
1629456589885,-0.395951,-0.5216109999999999,-0.755363
1629456589894,-0.394487,-0.5234409999999999,-0.756339
1629456589904,-0.394426,-0.523868,-0.754997
1629456589914,-0.394182,-0.523685,-0.751947
1629456589923,-0.393633,-0.52338,-0.750361
1629456589933,-0.393999,-0.523685,-0.752008
1629456589942,-0.392657,-0.522892,-0.752008
1629456589952,-0.393877,-0.522953,-0.753777
1629456589962,-0.393877,-0.522587,-0.754753
1629456589971,-0.393694,-0.522038,-0.754509
1629456589981,-0.393267,-0.523197,-0.7543259999999999
1629456589990,-0.395219,-0.522709,-0.752008
1629456590000,-0.394243,-0.522282,-0.751459
1629456590010,-0.393877,-0.5222209999999999,-0.750239
1629456590019,-0.39344999999999997,-0.520818,-0.749385
1629456590029,-0.393633,-0.520818,-0.749324
1629456590038,-0.393877,-0.519598,-0.749202
1629456590048,-0.393328,-0.518805,-0.7503
1629456590058,-0.394792,-0.520025,-0.75091
1629456590067,-0.395402,-0.520147,-0.75152
1629456590077,-0.394853,-0.520757,-0.751825
1629456590086,-0.395036,-0.5219159999999999,-0.750361
1629456590096,-0.395646,-0.522892,-0.753594
1629456590106,-0.395341,-0.521733,-0.752984
1629456590115,-0.39711,-0.5197809999999999,-0.751764
1629456590125,-0.396073,-0.519964,-0.752313
1629456590134,-0.395036,-0.519964,-0.753777
1629456590144,-0.39558499999999996,-0.520513,-0.752984
1629456590154,-0.395036,-0.5206959999999999,-0.753289
1629456590163,-0.395768,-0.522465,-0.753228
1629456590173,-0.394731,-0.5228309999999999,-0.752862
1629456590182,-0.395463,-0.522038,-0.7524959999999999
1629456590192,-0.394182,-0.522099,-0.752008
1629456590202,-0.393511,-0.522343,-0.750178
1629456590211,-0.393023,-0.522892,-0.750422
1629456590221,-0.392413,-0.522343,-0.7506659999999999
1629456590230,-0.391376,-0.5225259999999999,-0.751642
1629456590240,-0.392352,-0.521977,-0.752252
1629456590250,-0.391559,-0.522404,-0.75335
1629456590259,-0.391498,-0.5225259999999999,-0.7534109999999999
1629456590269,-0.392657,-0.521123,-0.7537159999999999
1629456590278,-0.39222999999999997,-0.520757,-0.7531059999999999
1629456590288,-0.391498,-0.520208,-0.752069
1629456590298,-0.390827,-0.519842,-0.7515809999999999
1629456590307,-0.392108,-0.519354,-0.751398
1629456590317,-0.391193,-0.5185609999999999,-0.7512759999999999
1629456590326,-0.391681,-0.5182559999999999,-0.75274
1629456590336,-0.392962,-0.519049,-0.752862
1629456590346,-0.392718,-0.518622,-0.75396
1629456590355,-0.39466999999999997,-0.518927,-0.7540209999999999
1629456590365,-0.395036,-0.518439,-0.754692
1629456590374,-0.395524,-0.518683,-0.754448
1629456590384,-0.396073,-0.517402,-0.75457
1629456590394,-0.394548,-0.517829,-0.754143
1629456590403,-0.394792,-0.518805,-0.755058
1629456590413,-0.394182,-0.519232,-0.754448
1629456590422,-0.39497499999999997,-0.518622,-0.753533
1629456590432,-0.393572,-0.5179509999999999,-0.7546309999999999
1629456590442,-0.394914,-0.518622,-0.752923
1629456590451,-0.396622,-0.51728,-0.75396
1629456590461,-0.397354,-0.516304,-0.7555459999999999
1629456590470,-0.397232,-0.515633,-0.756095
1629456590480,-0.398208,-0.5164259999999999,-0.755363
1629456590490,-0.397537,-0.514962,-0.754875
1629456590499,-0.397354,-0.515572,-0.754448
1629456590509,-0.398391,-0.515145,-0.754875
1629456590518,-0.39833,-0.513437,-0.7558509999999999
1629456590528,-0.398452,-0.512339,-0.754814
1629456590538,-0.39833,-0.513498,-0.753045
1629456590547,-0.399794,-0.513437,-0.753777
1629456590557,-0.399001,-0.5139859999999999,-0.755912
1629456590566,-0.39833,-0.515633,-0.7579859999999999
1629456590576,-0.397781,-0.515267,-0.757742
1629456590586,-0.397354,-0.515328,-0.754692
1629456590595,-0.398147,-0.516182,-0.753594
1629456590605,-0.397049,-0.5170359999999999,-0.7546309999999999
1629456590614,-0.397293,-0.515694,-0.7549359999999999
1629456590624,-0.396256,-0.514413,-0.755729
1629456590634,-0.394426,-0.512217,-0.754448
1629456590643,-0.393206,-0.513742,-0.7537159999999999
1629456590653,-0.393206,-0.513437,-0.753594
1629456590662,-0.393084,-0.513742,-0.752679
1629456590672,-0.392901,-0.514047,-0.7531059999999999
1629456590682,-0.393694,-0.513315,-0.754204
1629456590691,-0.394487,-0.514352,-0.753594
1629456590701,-0.394121,-0.513803,-0.754082
1629456590710,-0.39527999999999996,-0.514535,-0.7549359999999999
1629456590720,-0.394914,-0.5164259999999999,-0.754997
1629456590730,-0.39405999999999997,-0.517463,-0.757132
1629456590739,-0.395829,-0.516975,-0.75701
1629456590749,-0.396439,-0.517402,-0.757132
1629456590758,-0.39497499999999997,-0.5170359999999999,-0.755302
1629456590768,-0.39588999999999996,-0.517097,-0.754448
1629456590778,-0.395646,-0.5176459999999999,-0.75579
1629456590787,-0.398086,-0.517707,-0.7540209999999999
1629456590797,-0.397842,-0.516609,-0.754448
1629456590806,-0.397781,-0.5155109999999999,-0.7543259999999999
1629456590816,-0.397476,-0.515023,-0.755119
1629456590826,-0.3965,-0.5158159999999999,-0.755302
1629456590835,-0.397293,-0.51606,-0.754814
1629456590845,-0.397415,-0.516548,-0.7521909999999999
1629456590854,-0.395463,-0.518134,-0.752069
1629456590864,-0.395036,-0.517158,-0.7537159999999999
1629456590874,-0.394792,-0.518012,-0.75335
1629456590883,-0.395402,-0.517158,-0.753045
1629456590893,-0.39497499999999997,-0.5173409999999999,-0.753228
1629456590902,-0.395036,-0.517158,-0.753533
1629456590912,-0.394853,-0.517219,-0.754753
1629456590922,-0.396317,-0.517463,-0.756095
1629456590931,-0.396134,-0.518317,-0.756339
1629456590941,-0.394853,-0.5170359999999999,-0.7564609999999999
1629456590950,-0.395646,-0.516975,-0.755668
1629456590960,-0.395951,-0.517585,-0.7546309999999999
1629456590970,-0.39558499999999996,-0.516609,-0.754265
1629456590979,-0.394914,-0.517097,-0.753472
1629456590989,-0.394548,-0.517463,-0.752374
1629456590998,-0.395951,-0.517097,-0.752252
1629456591008,-0.39588999999999996,-0.516975,-0.75396
1629456591018,-0.396317,-0.516487,-0.754692
1629456591027,-0.396988,-0.515633,-0.754814
1629456591037,-0.397903,-0.514047,-0.752313
1629456591046,-0.395951,-0.515389,-0.7515809999999999
1629456591056,-0.396195,-0.514779,-0.7512759999999999
1629456591066,-0.397415,-0.51545,-0.752618
1629456591075,-0.396134,-0.515999,-0.7524959999999999
1629456591085,-0.396561,-0.51606,-0.7543259999999999
1629456591094,-0.396927,-0.516487,-0.753472
1629456591104,-0.397537,-0.516365,-0.752618
1629456591114,-0.397964,-0.517097,-0.75518
1629456591123,-0.39833,-0.516975,-0.756339
1629456591133,-0.399062,-0.516304,-0.755912
1629456591142,-0.398696,-0.515328,-0.754692
1629456591152,-0.39833,-0.5161209999999999,-0.7555459999999999
1629456591162,-0.398391,-0.518012,-0.755119
1629456591171,-0.398879,-0.516182,-0.7555459999999999
1629456591181,-0.39772,-0.515694,-0.755973
1629456591190,-0.397354,-0.5142909999999999,-0.75396
1629456591200,-0.396988,-0.512827,-0.752435
1629456591210,-0.39772,-0.514047,-0.753777
1629456591219,-0.398086,-0.514535,-0.757193
1629456591229,-0.39711,-0.515694,-0.758169
1629456591238,-0.395829,-0.516853,-0.756705
1629456591248,-0.395768,-0.518134,-0.753777
1629456591258,-0.39527999999999996,-0.516304,-0.75152
1629456591267,-0.395524,-0.516365,-0.7528009999999999
1629456591277,-0.396073,-0.51545,-0.755363
1629456591286,-0.395097,-0.515572,-0.755302
1629456591296,-0.39466999999999997,-0.514779,-0.7564609999999999
1629456591306,-0.394121,-0.515633,-0.755424
1629456591315,-0.394487,-0.515694,-0.755912
1629456591325,-0.392901,-0.515877,-0.753838
1629456591334,-0.393633,-0.5158159999999999,-0.754692
1629456591344,-0.393938,-0.51545,-0.753228
1629456591354,-0.39344999999999997,-0.5142909999999999,-0.75213
1629456591363,-0.394243,-0.513925,-0.752984
1629456591373,-0.393877,-0.514413,-0.753533
1629456591382,-0.396073,-0.5145959999999999,-0.7543259999999999
1629456591392,-0.396012,-0.515694,-0.755973
1629456591402,-0.396622,-0.515694,-0.755607
1629456591411,-0.396439,-0.515694,-0.754082
1629456591421,-0.396134,-0.5170359999999999,-0.75396
1629456591430,-0.395524,-0.517402,-0.755485
1629456591440,-0.396683,-0.518622,-0.7564
1629456591450,-0.397476,-0.5188659999999999,-0.754265
1629456591459,-0.39833,-0.516487,-0.7555459999999999
1629456591469,-0.398818,-0.515694,-0.755912
1629456591478,-0.398757,-0.515572,-0.75579
1629456591488,-0.397415,-0.51606,-0.756217
1629456591498,-0.39833,-0.515938,-0.755729
1629456591507,-0.397964,-0.515694,-0.753899
1629456591517,-0.398269,-0.5152059999999999,-0.75457
1629456591526,-0.397598,-0.5152059999999999,-0.75335
1629456591536,-0.39558499999999996,-0.515023,-0.753594
1629456591546,-0.39497499999999997,-0.515633,-0.7531059999999999
1629456591555,-0.394426,-0.515389,-0.7540209999999999
1629456591565,-0.392413,-0.5158159999999999,-0.753045
1629456591574,-0.389851,-0.517402,-0.753533
1629456591584,-0.388204,-0.5173409999999999,-0.75457
1629456591594,-0.388082,-0.517219,-0.75457
1629456591603,-0.387045,-0.5176459999999999,-0.75457
1629456591613,-0.387838,-0.518683,-0.75396
1629456591622,-0.388082,-0.517524,-0.754204
1629456591632,-0.389241,-0.51728,-0.752923
1629456591642,-0.388997,-0.518378,-0.752435
1629456591651,-0.390888,-0.517829,-0.7518859999999999
1629456591661,-0.39375499999999997,-0.517463,-0.751642
1629456591670,-0.39466999999999997,-0.517463,-0.752008
1629456591680,-0.3965,-0.517219,-0.753594
1629456591690,-0.398818,-0.518195,-0.754204
1629456591699,-0.400526,-0.518195,-0.755302
1629456591709,-0.401929,-0.518195,-0.755302
1629456591718,-0.404125,-0.5173409999999999,-0.754814
1629456591728,-0.403149,-0.51667,-0.7540209999999999
1629456591738,-0.404369,-0.516914,-0.752313
1629456591747,-0.403698,-0.5176459999999999,-0.750849
1629456591757,-0.402783,-0.518134,-0.75091
1629456591766,-0.40394199999999997,-0.519537,-0.751337
1629456591776,-0.404796,-0.5188659999999999,-0.751825
1629456591786,-0.40455199999999997,-0.518622,-0.7512759999999999
1629456591795,-0.405101,-0.5185609999999999,-0.750605
1629456591805,-0.405711,-0.517158,-0.750483
1629456591814,-0.404491,-0.516243,-0.749812
1629456591824,-0.404125,-0.516243,-0.748714
1629456591834,-0.404186,-0.51606,-0.74786
1629456591843,-0.404674,-0.517158,-0.748897
1629456591853,-0.40504,-0.517402,-0.751093
1629456591862,-0.404491,-0.517585,-0.752008
1629456591872,-0.406443,-0.516792,-0.753228
1629456591882,-0.407419,-0.514413,-0.75152
1629456591891,-0.407968,-0.5142909999999999,-0.75091
1629456591901,-0.408273,-0.513864,-0.751642
1629456591910,-0.407175,-0.513925,-0.752435
1629456591920,-0.40626,-0.515023,-0.7540209999999999
1629456591930,-0.40638199999999997,-0.514962,-0.75335
1629456591939,-0.406321,-0.515267,-0.752252
1629456591949,-0.406626,-0.516304,-0.750727
1629456591958,-0.40699199999999996,-0.515633,-0.7503
1629456591968,-0.406748,-0.514779,-0.7518859999999999
1629456591978,-0.40699199999999996,-0.513498,-0.75213
1629456591987,-0.406626,-0.51179,-0.752679
1629456591997,-0.406931,-0.510875,-0.752252
1629456592006,-0.407785,-0.508862,-0.750483
1629456592016,-0.407846,-0.507642,-0.749751
1629456592026,-0.40931,-0.506422,-0.750422
1629456592035,-0.408334,-0.507886,-0.7503
1629456592045,-0.40790699999999996,-0.508069,-0.750056
1629456592054,-0.40790699999999996,-0.507642,-0.749751
1629456592064,-0.407663,-0.508191,-0.749568
1629456592074,-0.407724,-0.508862,-0.750544
1629456592083,-0.407968,-0.509045,-0.75152
1629456592093,-0.407663,-0.509655,-0.7518859999999999
1629456592102,-0.407236,-0.510204,-0.7518859999999999
1629456592112,-0.40821199999999996,-0.511363,-0.7521909999999999
1629456592122,-0.406443,-0.512705,-0.754143
1629456592131,-0.407846,-0.513803,-0.757254
1629456592141,-0.409676,-0.51301,-0.755912
1629456592150,-0.409493,-0.511119,-0.753838
1629456592160,-0.40790699999999996,-0.511058,-0.754204
1629456592170,-0.40729699999999996,-0.510875,-0.7546309999999999
1629456592179,-0.405345,-0.511363,-0.754387
1629456592189,-0.406504,-0.510997,-0.754204
1629456592198,-0.40638199999999997,-0.510387,-0.753533
1629456592208,-0.40516199999999997,-0.50996,-0.753533
1629456592218,-0.40424699999999997,-0.510387,-0.7537159999999999
1629456592227,-0.403393,-0.509716,-0.7540209999999999
1629456592237,-0.402966,-0.508252,-0.7528009999999999
1629456592246,-0.40241699999999997,-0.508435,-0.751703
1629456592256,-0.402905,-0.509716,-0.753045
1629456592266,-0.402966,-0.511424,-0.753777
1629456592275,-0.40321,-0.511668,-0.753472
1629456592285,-0.403698,-0.512095,-0.754509
1629456592294,-0.402966,-0.512339,-0.75518
1629456592304,-0.402966,-0.510753,-0.756034
1629456592314,-0.402478,-0.509777,-0.75518
1629456592323,-0.402783,-0.509289,-0.753533
1629456592333,-0.40211199999999997,-0.509716,-0.7534109999999999
1629456592342,-0.401441,-0.510265,-0.7531059999999999
1629456592352,-0.400404,-0.510997,-0.7518859999999999
1629456592362,-0.399733,-0.51118,-0.751703
1629456592371,-0.40016,-0.511424,-0.7524959999999999
1629456592381,-0.399306,-0.511668,-0.75335
1629456592390,-0.400953,-0.511607,-0.752679
1629456592400,-0.401075,-0.512522,-0.752252
1629456592410,-0.401929,-0.513254,-0.753045
1629456592419,-0.402173,-0.5136809999999999,-0.753838
1629456592429,-0.402356,-0.513315,-0.754143
1629456592438,-0.402844,-0.513254,-0.752618
1629456592448,-0.40333199999999997,-0.5124,-0.751459
1629456592458,-0.40443,-0.512156,-0.751154
1629456592467,-0.40443,-0.5133759999999999,-0.751642
1629456592477,-0.404064,-0.514718,-0.752008
1629456592486,-0.403698,-0.515694,-0.751398
1629456592496,-0.40394199999999997,-0.516304,-0.751032
1629456592506,-0.40424699999999997,-0.517768,-0.752252
1629456592515,-0.402783,-0.518378,-0.751703
1629456592525,-0.40424699999999997,-0.516914,-0.749812
1629456592534,-0.406321,-0.51606,-0.748043
1629456592544,-0.407114,-0.5173409999999999,-0.749507
1629456592554,-0.406809,-0.516975,-0.7534109999999999
1629456592563,-0.40577199999999997,-0.517402,-0.753655
1629456592573,-0.405528,-0.51606,-0.754814
1629456592582,-0.404003,-0.5164259999999999,-0.754814
1629456592592,-0.403454,-0.51728,-0.755058
1629456592602,-0.40321,-0.515999,-0.75457
1629456592611,-0.40302699999999997,-0.514779,-0.754509
1629456592621,-0.402234,-0.513437,-0.752618
1629456592630,-0.401624,-0.5127659999999999,-0.7509709999999999
1629456592640,-0.401258,-0.511729,-0.752557
1629456592650,-0.40211199999999997,-0.511729,-0.75457
1629456592659,-0.400648,-0.5136809999999999,-0.754814
1629456592669,-0.39967199999999997,-0.518073,-0.754265
1629456592678,-0.399306,-0.519659,-0.754082
1629456592688,-0.400465,-0.5200859999999999,-0.7521909999999999
1629456592698,-0.401319,-0.519598,-0.752862
1629456592707,-0.399123,-0.52033,-0.753472
1629456592717,-0.398208,-0.518927,-0.753289
1629456592726,-0.397842,-0.517585,-0.752679
1629456592736,-0.398574,-0.516548,-0.752862
1629456592746,-0.398513,-0.5145959999999999,-0.7512759999999999
1629456592755,-0.398086,-0.514474,-0.750422
1629456592765,-0.398025,-0.513498,-0.751093
1629456592774,-0.397842,-0.513742,-0.750422
1629456592784,-0.39772,-0.513559,-0.750178
1629456592794,-0.398513,-0.514413,-0.7503
1629456592803,-0.399794,-0.513925,-0.750483
1629456592813,-0.400038,-0.514535,-0.75091
1629456592822,-0.40028199999999997,-0.51423,-0.751093
1629456592832,-0.401929,-0.51484,-0.75213
1629456592842,-0.40211199999999997,-0.516243,-0.75213
1629456592851,-0.402356,-0.517402,-0.752557
1629456592861,-0.401868,-0.518134,-0.753594
1629456592870,-0.402844,-0.51728,-0.7549359999999999
1629456592880,-0.40363699999999997,-0.515267,-0.752618
1629456592890,-0.40321,-0.512827,-0.751947
1629456592899,-0.40363699999999997,-0.51179,-0.752984
1629456592909,-0.401746,-0.511119,-0.752435
1629456592918,-0.40180699999999997,-0.509716,-0.753167
1629456592928,-0.40089199999999997,-0.509838,-0.752862
1629456592938,-0.40150199999999997,-0.511058,-0.752069
1629456592947,-0.40199,-0.51301,-0.7549359999999999
1629456592957,-0.402356,-0.512827,-0.757498
1629456592966,-0.402966,-0.51423,-0.757559
1629456592976,-0.4026,-0.515145,-0.757559
1629456592986,-0.403698,-0.512583,-0.756583
1629456592995,-0.40077,-0.511119,-0.755729
1629456593005,-0.40150199999999997,-0.510326,-0.755302
1629456593014,-0.40119699999999997,-0.508435,-0.756522
1629456593024,-0.401319,-0.508618,-0.756217
1629456593034,-0.401075,-0.508008,-0.755973
1629456593043,-0.401563,-0.507886,-0.75762
1629456593053,-0.403088,-0.507459,-0.757132
1629456593062,-0.40321,-0.507764,-0.7570709999999999
1629456593072,-0.402966,-0.507032,-0.758108
1629456593082,-0.403271,-0.506178,-0.75579
1629456593091,-0.404125,-0.505507,-0.756217
1629456593101,-0.402173,-0.506422,-0.755668
1629456593110,-0.402905,-0.506544,-0.756217
1629456593120,-0.402478,-0.507276,-0.7552409999999999
1629456593130,-0.4026,-0.506239,-0.756217
1629456593139,-0.40363699999999997,-0.505446,-0.755302
1629456593149,-0.403149,-0.505446,-0.755302
1629456593158,-0.403454,-0.503494,-0.754448
1629456593168,-0.403454,-0.504531,-0.754265
1629456593178,-0.40455199999999997,-0.503677,-0.753167
1629456593187,-0.404613,-0.505507,-0.755363
1629456593197,-0.405711,-0.506788,-0.757254
1629456593206,-0.40626,-0.508435,-0.7573759999999999
1629456593216,-0.404186,-0.510326,-0.7579859999999999
1629456593226,-0.401746,-0.512095,-0.756339
1629456593235,-0.402539,-0.509228,-0.754265
1629456593245,-0.401746,-0.508252,-0.75457
1629456593254,-0.40321,-0.508252,-0.75518
1629456593264,-0.403454,-0.508801,-0.757315
1629456593274,-0.403088,-0.50996,-0.757132
1629456593283,-0.402966,-0.508923,-0.755729
1629456593293,-0.403454,-0.50996,-0.754509
1629456593302,-0.403759,-0.510631,-0.7555459999999999
1629456593312,-0.404796,-0.508984,-0.756034
1629456593322,-0.404064,-0.509106,-0.757925
1629456593331,-0.40241699999999997,-0.509228,-0.755668
1629456593341,-0.401868,-0.508496,-0.755424
1629456593350,-0.401868,-0.509472,-0.757315
1629456593360,-0.402051,-0.508862,-0.753655
1629456593370,-0.401746,-0.508801,-0.75457
1629456593379,-0.401136,-0.508191,-0.75518
1629456593389,-0.402356,-0.507337,-0.753045
1629456593398,-0.40382,-0.506788,-0.753228
1629456593408,-0.403515,-0.508557,-0.757132
1629456593418,-0.402539,-0.509655,-0.759328
1629456593427,-0.40138,-0.511973,-0.760304
1629456593437,-0.40211199999999997,-0.511668,-0.757254
1629456593446,-0.402234,-0.511973,-0.7558509999999999
1629456593456,-0.402173,-0.511912,-0.755729
1629456593466,-0.401929,-0.510448,-0.75701
1629456593475,-0.401014,-0.510204,-0.758718
1629456593485,-0.40119699999999997,-0.509838,-0.76067
1629456593494,-0.400099,-0.509106,-0.758779
1629456593504,-0.398452,-0.508313,-0.7567659999999999
1629456593514,-0.398391,-0.507398,-0.7573759999999999
1629456593523,-0.398452,-0.508862,-0.754997
1629456593533,-0.397903,-0.508679,-0.754875
1629456593542,-0.398269,-0.50752,-0.755363
1629456593552,-0.398452,-0.506544,-0.755485
1629456593562,-0.39955,-0.5063,-0.756034
1629456593571,-0.399733,-0.507093,-0.758108
1629456593581,-0.40016,-0.50691,-0.759328
1629456593590,-0.400709,-0.508191,-0.76006
1629456593600,-0.40199,-0.509289,-0.759328
1629456593610,-0.402051,-0.509472,-0.7585959999999999
1629456593619,-0.40211199999999997,-0.509838,-0.75762
1629456593629,-0.402051,-0.510082,-0.758657
1629456593638,-0.40272199999999997,-0.511729,-0.7598159999999999
1629456593648,-0.40272199999999997,-0.511119,-0.7555459999999999
1629456593658,-0.403271,-0.509289,-0.757132
1629456593667,-0.403759,-0.508923,-0.7564609999999999
1629456593677,-0.402844,-0.508008,-0.757254
1629456593686,-0.401624,-0.506361,-0.757193
1629456593696,-0.402234,-0.505629,-0.755668
1629456593706,-0.402356,-0.504104,-0.754997
1629456593715,-0.403454,-0.503738,-0.756034
1629456593725,-0.402478,-0.505324,-0.756339
1629456593734,-0.401563,-0.506666,-0.757925
1629456593744,-0.40150199999999997,-0.506971,-0.759023
1629456593754,-0.40150199999999997,-0.507947,-0.7592059999999999
1629456593763,-0.401746,-0.508008,-0.759145
1629456593773,-0.401685,-0.507825,-0.758474
1629456593782,-0.40199,-0.507337,-0.758413
1629456593792,-0.402173,-0.507154,-0.758962
1629456593802,-0.401075,-0.507642,-0.759267
1629456593811,-0.401014,-0.507398,-0.7579859999999999
1629456593821,-0.400404,-0.507764,-0.757559
1629456593830,-0.40150199999999997,-0.506422,-0.757498
1629456593840,-0.401868,-0.506666,-0.757864
1629456593850,-0.401624,-0.506056,-0.7573759999999999
1629456593859,-0.40199,-0.505263,-0.75762
1629456593869,-0.404308,-0.50447,-0.757864
1629456593878,-0.404491,-0.505141,-0.75762
1629456593888,-0.404003,-0.504348,-0.7579859999999999
1629456593898,-0.405223,-0.50325,-0.757132
1629456593907,-0.40638199999999997,-0.502884,-0.756583
1629456593917,-0.406443,-0.50264,-0.7561559999999999
1629456593926,-0.405589,-0.503433,-0.756705
1629456593936,-0.40638199999999997,-0.503006,-0.758718
1629456593946,-0.407663,-0.502213,-0.758718
1629456593955,-0.407968,-0.501115,-0.7592059999999999
1629456593965,-0.40809,-0.501542,-0.759084
1629456593974,-0.407846,-0.501481,-0.759267
1629456593984,-0.40699199999999996,-0.499712,-0.7592059999999999
1629456593994,-0.406626,-0.501298,-0.758108
1629456594003,-0.405345,-0.501542,-0.7592059999999999
1629456594013,-0.40504,-0.502213,-0.759938
1629456594022,-0.404918,-0.502396,-0.7579859999999999
1629456594032,-0.404003,-0.502762,-0.756339
1629456594042,-0.40565,-0.502945,-0.75579
1629456594051,-0.405894,-0.502091,-0.756217
1629456594061,-0.404979,-0.501664,-0.757559
1629456594070,-0.404918,-0.501664,-0.75884
1629456594080,-0.404125,-0.501298,-0.757864
1629456594090,-0.40321,-0.501298,-0.7573759999999999
1629456594099,-0.402905,-0.501725,-0.756827
1629456594109,-0.402905,-0.501298,-0.757437
1629456594118,-0.40272199999999997,-0.501664,-0.75884
1629456594128,-0.401929,-0.501969,-0.75945
1629456594138,-0.40241699999999997,-0.502396,-0.758657
1629456594147,-0.402966,-0.504104,-0.75884
1629456594157,-0.40272199999999997,-0.506727,-0.760243
1629456594166,-0.40150199999999997,-0.510082,-0.762622
1629456594176,-0.400038,-0.510631,-0.762378
1629456594186,-0.399794,-0.51301,-0.761524
1629456594195,-0.398086,-0.513315,-0.756888
1629456594205,-0.397598,-0.514352,-0.755424
1629456594214,-0.397903,-0.5136809999999999,-0.755607
1629456594224,-0.398147,-0.512034,-0.756705
1629456594234,-0.397598,-0.510692,-0.757315
1629456594243,-0.398269,-0.510326,-0.757498
1629456594253,-0.397781,-0.509594,-0.756949
1629456594262,-0.397476,-0.50813,-0.756278
1629456594272,-0.397354,-0.508008,-0.756339
1629456594282,-0.39833,-0.506544,-0.756522
1629456594291,-0.397659,-0.508252,-0.75701
1629456594301,-0.398696,-0.507581,-0.756522
1629456594310,-0.399733,-0.507825,-0.756278
1629456594320,-0.399916,-0.508008,-0.755607
1629456594330,-0.399794,-0.508313,-0.755424
1629456594339,-0.40138,-0.510143,-0.7555459999999999
1629456594349,-0.40089199999999997,-0.511912,-0.7552409999999999
1629456594358,-0.401258,-0.513803,-0.754814
1629456594368,-0.40119699999999997,-0.513925,-0.755973
1629456594378,-0.400404,-0.514413,-0.755668
1629456594387,-0.402234,-0.515023,-0.7579859999999999
1629456594397,-0.402661,-0.513864,-0.75518
1629456594406,-0.402051,-0.51301,-0.755302
1629456594416,-0.402539,-0.512034,-0.755912
1629456594426,-0.40211199999999997,-0.511302,-0.757315
1629456594435,-0.402356,-0.511241,-0.758352
1629456594445,-0.402295,-0.510387,-0.756095
1629456594454,-0.402051,-0.508679,-0.755912
1629456594464,-0.40150199999999997,-0.509289,-0.7552409999999999
1629456594474,-0.401258,-0.508862,-0.7564609999999999
1629456594483,-0.40089199999999997,-0.509777,-0.757315
1629456594493,-0.399123,-0.510448,-0.756888
1629456594502,-0.399306,-0.510326,-0.755607
1629456594512,-0.398696,-0.510082,-0.756949
1629456594522,-0.399062,-0.510448,-0.757193
1629456594531,-0.399062,-0.510753,-0.757803
1629456594541,-0.399123,-0.510326,-0.7585959999999999
1629456594550,-0.399001,-0.509838,-0.758779
1629456594560,-0.39894,-0.509594,-0.7589009999999999
1629456594570,-0.399001,-0.508862,-0.7579859999999999
1629456594579,-0.398574,-0.50935,-0.757742
1629456594589,-0.397598,-0.508801,-0.7564
1629456594598,-0.39772,-0.508313,-0.756278
1629456594608,-0.398574,-0.505934,-0.755668
1629456594618,-0.399001,-0.506971,-0.756644
1629456594627,-0.398452,-0.507093,-0.757864
1629456594637,-0.399184,-0.507276,-0.758535
1629456594646,-0.39967199999999997,-0.506483,-0.757864
1629456594656,-0.400709,-0.506544,-0.7570709999999999
1629456594666,-0.399916,-0.506788,-0.755668
1629456594675,-0.40077,-0.507276,-0.756644
1629456594685,-0.400709,-0.508984,-0.755363
1629456594694,-0.40028199999999997,-0.509716,-0.7561559999999999
1629456594704,-0.40077,-0.511912,-0.7570709999999999
1629456594714,-0.40138,-0.512949,-0.757193
1629456594723,-0.401929,-0.510326,-0.756827
1629456594733,-0.401929,-0.509533,-0.7576809999999999
1629456594742,-0.40199,-0.509289,-0.758108
1629456594752,-0.40333199999999997,-0.508679,-0.758352
1629456594762,-0.4026,-0.508496,-0.7579859999999999
1629456594771,-0.40150199999999997,-0.50874,-0.758169
1629456594781,-0.40272199999999997,-0.509045,-0.75762
1629456594790,-0.40211199999999997,-0.508984,-0.757742
1629456594800,-0.40150199999999997,-0.50813,-0.758047
1629456594810,-0.40138,-0.507642,-0.756888
1629456594819,-0.401319,-0.506422,-0.756583
1629456594829,-0.40119699999999997,-0.507032,-0.7570709999999999
1629456594838,-0.40150199999999997,-0.507154,-0.757925
1629456594848,-0.401014,-0.507215,-0.757803
1629456594858,-0.401319,-0.507215,-0.7582909999999999
1629456594867,-0.40180699999999997,-0.508496,-0.758352
1629456594877,-0.40150199999999997,-0.508374,-0.75945
1629456594886,-0.399916,-0.508191,-0.758657
1629456594896,-0.399855,-0.50813,-0.756888
1629456594906,-0.39936699999999997,-0.507032,-0.756339
1629456594915,-0.399733,-0.507886,-0.75701
1629456594925,-0.399306,-0.508008,-0.7582909999999999
1629456594934,-0.398879,-0.508008,-0.758779
1629456594944,-0.398818,-0.508862,-0.7589009999999999
1629456594954,-0.399855,-0.508862,-0.758108
1629456594963,-0.399916,-0.507154,-0.7579859999999999
1629456594973,-0.40077,-0.506422,-0.757498
1629456594982,-0.401258,-0.506666,-0.75823
1629456594992,-0.400038,-0.506178,-0.756339
1629456595002,-0.400526,-0.50752,-0.7576809999999999
1629456595011,-0.40199,-0.507886,-0.7595109999999999
1629456595021,-0.402661,-0.50752,-0.759999
1629456595030,-0.402844,-0.506483,-0.760548
1629456595040,-0.402051,-0.506544,-0.75945
1629456595050,-0.402478,-0.506605,-0.757498
1629456595059,-0.402295,-0.506727,-0.758108
1629456595069,-0.401868,-0.50691,-0.759328
1629456595078,-0.40150199999999997,-0.505812,-0.760487
1629456595088,-0.400343,-0.506727,-0.76067
1629456595098,-0.401136,-0.506483,-0.758352
1629456595107,-0.401746,-0.505385,-0.757864
1629456595117,-0.402234,-0.507032,-0.759023
1629456595126,-0.401868,-0.507886,-0.759877
1629456595136,-0.40138,-0.507825,-0.760304
1629456595146,-0.40028199999999997,-0.50874,-0.759694
1629456595155,-0.39967199999999997,-0.509228,-0.758352
1629456595165,-0.399611,-0.507825,-0.759267
1629456595174,-0.398879,-0.507276,-0.75823
1629456595184,-0.398635,-0.506239,-0.757925
1629456595194,-0.398818,-0.506178,-0.757803
1629456595203,-0.39936699999999997,-0.5063,-0.757559
1629456595213,-0.399001,-0.506483,-0.7582909999999999
1629456595222,-0.40028199999999997,-0.505812,-0.757742
1629456595232,-0.40119699999999997,-0.504104,-0.760914
1629456595242,-0.400953,-0.503128,-0.760975
1629456595251,-0.40211199999999997,-0.501664,-0.76128
1629456595261,-0.402234,-0.500444,-0.764208
1629456595270,-0.401563,-0.502213,-0.763598
1629456595280,-0.401136,-0.506971,-0.759572
1629456595290,-0.400404,-0.50874,-0.7601209999999999
1629456595299,-0.401014,-0.505446,-0.761158
1629456595309,-0.403576,-0.501237,-0.762378
1629456595318,-0.405406,-0.495869,-0.7607309999999999
1629456595328,-0.404979,-0.493063,-0.760548
1629456595338,-0.404491,-0.493734,-0.760975
1629456595347,-0.404613,-0.494832,-0.762073
1629456595357,-0.403088,-0.495442,-0.762317
1629456595366,-0.403454,-0.497577,-0.763049
1629456595376,-0.403088,-0.496845,-0.7625
1629456595386,-0.40321,-0.496906,-0.762744
1629456595395,-0.403393,-0.497516,-0.7640859999999999
1629456595405,-0.403759,-0.49794299999999997,-0.763964
1629456595414,-0.403881,-0.498187,-0.762195
1629456595424,-0.404674,-0.49593,-0.7622559999999999
1629456595434,-0.405406,-0.494466,-0.762317
1629456595443,-0.405589,-0.493673,-0.7634759999999999
1629456595453,-0.406199,-0.494344,-0.7634759999999999
1629456595462,-0.405589,-0.493978,-0.763659
1629456595472,-0.404491,-0.493124,-0.763537
1629456595482,-0.404674,-0.49349,-0.766465
1629456595491,-0.403759,-0.493978,-0.766465
1629456595501,-0.404735,-0.495137,-0.765672
1629456595510,-0.40443,-0.494832,-0.763598
1629456595520,-0.404308,-0.495259,-0.7622559999999999
1629456595530,-0.404308,-0.494954,-0.761158
1629456595539,-0.40565,-0.493612,-0.761097
1629456595549,-0.40565,-0.494527,-0.76128
1629456595558,-0.404674,-0.494527,-0.762073
1629456595568,-0.404918,-0.493856,-0.7628659999999999
1629456595578,-0.406504,-0.495442,-0.7625
1629456595587,-0.40626,-0.497089,-0.76311
1629456595597,-0.40668699999999997,-0.496967,-0.7625
1629456595606,-0.407968,-0.496296,-0.762439
1629456595616,-0.408822,-0.495442,-0.762195
1629456595626,-0.408334,-0.497455,-0.762317
1629456595635,-0.408029,-0.497211,-0.761768
1629456595645,-0.40760199999999996,-0.49641799999999997,-0.76067
1629456595654,-0.407724,-0.49593,-0.759572
1629456595664,-0.40638199999999997,-0.49733299999999997,-0.758657
1629456595674,-0.405528,-0.498919,-0.759572
1629456595683,-0.405833,-0.499224,-0.759877
1629456595693,-0.406321,-0.498431,-0.759572
1629456595702,-0.408334,-0.49580799999999997,-0.759694
1629456595712,-0.409188,-0.49532,-0.7592059999999999
1629456595722,-0.409737,-0.496967,-0.76006
1629456595731,-0.40992,-0.49885799999999997,-0.76006
1629456595741,-0.408578,-0.501237,-0.7604259999999999
1629456595750,-0.408578,-0.49977299999999997,-0.759084
1629456595760,-0.407419,-0.50081,-0.759999
1629456595770,-0.406931,-0.50264,-0.761097
1629456595779,-0.40790699999999996,-0.50142,-0.759328
1629456595789,-0.408151,-0.500139,-0.759328
1629456595798,-0.4087,-0.49763799999999997,-0.759145
1629456595808,-0.40809,-0.498126,-0.7598159999999999
1629456595818,-0.40809,-0.497821,-0.759877
1629456595827,-0.408883,-0.498797,-0.756888
1629456595837,-0.409066,-0.500017,-0.757498
1629456595846,-0.408944,-0.501847,-0.759267
1629456595856,-0.410225,-0.500566,-0.7601209999999999
1629456595866,-0.410835,-0.498614,-0.7622559999999999
1629456595875,-0.41229899999999997,-0.49672299999999997,-0.761585
1629456595885,-0.411445,-0.499102,-0.7592059999999999
1629456595894,-0.412055,-0.498614,-0.7585959999999999
1629456595904,-0.41236,-0.49672299999999997,-0.759999
1629456595914,-0.41114,-0.496479,-0.7625609999999999
1629456595923,-0.410835,-0.498187,-0.762683
1629456595933,-0.410042,-0.498126,-0.76189
1629456595942,-0.41107899999999997,-0.498004,-0.76006
1629456595952,-0.41114,-0.498004,-0.760487
1629456595962,-0.410957,-0.499224,-0.761524
1629456595971,-0.41138399999999997,-0.498126,-0.760792
1629456595981,-0.41107899999999997,-0.49654,-0.761707
1629456595990,-0.411445,-0.49593,-0.761585
1629456596000,-0.409859,-0.494466,-0.761585
1629456596010,-0.410042,-0.494649,-0.75945
1629456596019,-0.410408,-0.496235,-0.760853
1629456596029,-0.408761,-0.494832,-0.759572
1629456596038,-0.409066,-0.493673,-0.759877
1629456596048,-0.408395,-0.493124,-0.76189
1629456596058,-0.410103,-0.493185,-0.7622559999999999
1629456596067,-0.40931,-0.493978,-0.762134
1629456596077,-0.409493,-0.49172099999999996,-0.761585
1629456596086,-0.410652,-0.489708,-0.762317
1629456596096,-0.411018,-0.487695,-0.763598
1629456596106,-0.411506,-0.489159,-0.764513
1629456596115,-0.411201,-0.49019599999999997,-0.765245
1629456596125,-0.41114,-0.491965,-0.766404
1629456596134,-0.41175,-0.493795,-0.7677459999999999
1629456596144,-0.410774,-0.493185,-0.769637
1629456596154,-0.411323,-0.49044,-0.767502
1629456596163,-0.411018,-0.485072,-0.765733
1629456596173,-0.410286,-0.48440099999999997,-0.7646959999999999
1629456596182,-0.40931,-0.48312,-0.763232
1629456596192,-0.409615,-0.483669,-0.765428
1629456596202,-0.41138399999999997,-0.484523,-0.767624
1629456596211,-0.41114,-0.48495,-0.768356
1629456596221,-0.41236,-0.484035,-0.769942
1629456596230,-0.412421,-0.480497,-0.771589
1629456596240,-0.41297,-0.476166,-0.770796
1629456596250,-0.415288,-0.476227,-0.770979
1629456596259,-0.415288,-0.48000899999999996,-0.771284
1629456596269,-0.41443399999999997,-0.480497,-0.770064
1629456596278,-0.415166,-0.477447,-0.773236
1629456596288,-0.419131,-0.466406,-0.775554
1629456596298,-0.426024,-0.454572,-0.782996
1629456596307,-0.428708,-0.461404,-0.7817149999999999
1629456596317,-0.421022,-0.481412,-0.780556
1629456596326,-0.41785,-0.489037,-0.7780549999999999
1629456596336,-0.417423,-0.491172,-0.776896
1629456596346,-0.417911,-0.48861,-0.7759199999999999
1629456596355,-0.41961899999999996,-0.483364,-0.772626
1629456596365,-0.424194,-0.481534,-0.779519
1629456596374,-0.428464,-0.473238,-0.785558
1629456596384,-0.431453,-0.470493,-0.789889
1629456596394,-0.434503,-0.465918,-0.786656
1629456596403,-0.438651,-0.461099,-0.7875099999999999
1629456596413,-0.439566,-0.45994,-0.782142
1629456596422,-0.442067,-0.454328,-0.782081
1629456596432,-0.443592,-0.448289,-0.787632
1629456596442,-0.445361,-0.436821,-0.790926
1629456596451,-0.450546,-0.424499,-0.791719
1629456596461,-0.456768,-0.416996,-0.793122
1629456596470,-0.460123,-0.417118,-0.792695
1629456596480,-0.46006199999999997,-0.415837,-0.795196
1629456596490,-0.458964,-0.412848,-0.799466
1629456596499,-0.457622,-0.406626,-0.802821
1629456596509,-0.4575,-0.403454,-0.800625
1629456596518,-0.4575,-0.398635,-0.798246
1629456596528,-0.455304,-0.392352,-0.797453
1629456596538,-0.453352,-0.386618,-0.797819
1629456596547,-0.45170499999999997,-0.38003,-0.799466
1629456596557,-0.452254,-0.373564,-0.798185
1629456596566,-0.455609,-0.365695,-0.798978
1629456596576,-0.457927,-0.358497,-0.805688
1629456596586,-0.459208,-0.35197,-0.813923
1629456596595,-0.456219,-0.350384,-0.809836
1629456596605,-0.452254,-0.347334,-0.798063
1629456596614,-0.446886,-0.34050199999999997,-0.80337
1629456596624,-0.442677,-0.339099,-0.80886
1629456596634,-0.437004,-0.339282,-0.812947
1629456596643,-0.432002,-0.334646,-0.812581
1629456596653,-0.42950099999999997,-0.325008,-0.808982
1629456596662,-0.429623,-0.318115,-0.804102
1629456596672,-0.430172,-0.30927,-0.802211
1629456596682,-0.433283,-0.301157,-0.801357
1629456596691,-0.439932,-0.29792399999999997,-0.809226
1629456596701,-0.44042,-0.299632,-0.816058
1629456596710,-0.446154,-0.302926,-0.821548
1629456596720,-0.446276,-0.30689099999999997,-0.827282
1629456596730,-0.445239,-0.293837,-0.840336
1629456596739,-0.451034,-0.28243,-0.847534
1629456596749,-0.455731,-0.279136,-0.8522919999999999
1629456596758,-0.458171,-0.27633,-0.854061
1629456596768,-0.458171,-0.276452,-0.853085
1629456596778,-0.461831,-0.275781,-0.850218
1629456596787,-0.461648,-0.275842,-0.843691
1629456596797,-0.462441,-0.273768,-0.839604
1629456596806,-0.461953,-0.269803,-0.839604
1629456596816,-0.46158699999999997,-0.264801,-0.838567
1629456596826,-0.461648,-0.262666,-0.840702
1629456596835,-0.460733,-0.25803,-0.843142
1629456596845,-0.464271,-0.252906,-0.848449
1629456596854,-0.46543,-0.248758,-0.8489369999999999
1629456596864,-0.46665,-0.250344,-0.850706
1629456596874,-0.46646699999999996,-0.25498,-0.850096
1629456596883,-0.461465,-0.262239,-0.843996
1629456596893,-0.461526,-0.274988,-0.85522
1629456596902,-0.455548,-0.279929,-0.8556469999999999
1629456596912,-0.455548,-0.278587,-0.8574769999999999
1629456596922,-0.454511,-0.273951,-0.851926
1629456596931,-0.453169,-0.270596,-0.85217
1629456596941,-0.451644,-0.267668,-0.848693
1629456596950,-0.45109499999999997,-0.25925,-0.84668
1629456596960,-0.454023,-0.250161,-0.853024
1629456596970,-0.453962,-0.25132,-0.858514
1629456596979,-0.452132,-0.252601,-0.863089
1629456596989,-0.44987499999999997,-0.251259,-0.861808
1629456596998,-0.45505999999999996,-0.24509799999999998,-0.841251
1629456597008,-0.455243,-0.244854,-0.8349679999999999
1629456597018,-0.450302,-0.245586,-0.831735
1629456597027,-0.446093,-0.250405,-0.83387
1629456597037,-0.442982,-0.253516,-0.837042
1629456597046,-0.444019,-0.253211,-0.833321
1629456597056,-0.44652,-0.246135,-0.832406
1629456597066,-0.448472,-0.244732,-0.831064
1629456597075,-0.452376,-0.244366,-0.8322229999999999
1629456597085,-0.453291,-0.24448799999999998,-0.8383229999999999
1629456597094,-0.45444999999999997,-0.238388,-0.838994
1629456597104,-0.456768,-0.231983,-0.841068
1629456597114,-0.453718,-0.220332,-0.84241
1629456597123,-0.458659,-0.221796,-0.845765
1629456597133,-0.463844,-0.23369099999999998,-0.844911
1629456597142,-0.463051,-0.240645,-0.8355779999999999
1629456597152,-0.467565,-0.222528,-0.832101
1629456597162,-0.47336,-0.20569199999999999,-0.8346629999999999
1629456597171,-0.481778,-0.19550499999999998,-0.843813
1629456597181,-0.479948,-0.201483,-0.850706
1629456597190,-0.47543399999999997,-0.218685,-0.851194
1629456597200,-0.467809,-0.248636,-0.856196
1629456597210,-0.46421,-0.265777,-0.865224
1629456597219,-0.45933,-0.273951,-0.869006
1629456597229,-0.458049,-0.272731,-0.869555
1629456597238,-0.45975699999999997,-0.26931499999999997,-0.868091
1629456597248,-0.46055,-0.261629,-0.860893
1629456597258,-0.460428,-0.250344,-0.8574769999999999
1629456597267,-0.462319,-0.229055,-0.8632719999999999
1629456597277,-0.46463699999999997,-0.21106,-0.863821
1629456597286,-0.465308,-0.19032,-0.857965
1629456597296,-0.465796,-0.178059,-0.85583
1629456597306,-0.465369,-0.17360599999999998,-0.85461
1629456597315,-0.46665,-0.174094,-0.852231
1629456597325,-0.46829699999999996,-0.176839,-0.853146
1629456597334,-0.47275,-0.17885199999999998,-0.858026
1629456597344,-0.47848399999999996,-0.17793699999999998,-0.869067
1629456597354,-0.482998,-0.17751,-0.871934
1629456597363,-0.481168,-0.18226799999999999,-0.867725
1629456597373,-0.47824,-0.177571,-0.869494
1629456597382,-0.479277,-0.167323,-0.870592
1629456597392,-0.479826,-0.159942,-0.866566
1629456597402,-0.476471,-0.15799,-0.869616
1629456597411,-0.474275,-0.157014,-0.868335
1629456597421,-0.470432,-0.16561499999999998,-0.865834
1629456597430,-0.465918,-0.168299,-0.86559
1629456597440,-0.463783,-0.165798,-0.867176
1629456597450,-0.460733,-0.165066,-0.862723
1629456597459,-0.460123,-0.16128399999999998,-0.8590019999999999
1629456597469,-0.46036699999999997,-0.160613,-0.8605269999999999
1629456597478,-0.458537,-0.160796,-0.8617469999999999
1629456597488,-0.455731,-0.161955,-0.860344
1629456597498,-0.454877,-0.165981,-0.856135
1629456597507,-0.452742,-0.159698,-0.862235
1629456597517,-0.450058,-0.160552,-0.866688
1629456597526,-0.449692,-0.161223,-0.8614419999999999
1629456597536,-0.450851,-0.160796,-0.860039
1629456597546,-0.44956999999999997,-0.164578,-0.8614419999999999
1629456597555,-0.44773999999999997,-0.167384,-0.863516
1629456597565,-0.447252,-0.166408,-0.861625
1629456597574,-0.458415,-0.149084,-0.867054
1629456597584,-0.460001,-0.144936,-0.863455
1629456597594,-0.449021,-0.187636,-0.850584
1629456597603,-0.43615,-0.21655,-0.8644919999999999
1629456597613,-0.43999299999999997,-0.20569199999999999,-0.8644919999999999
1629456597622,-0.453413,-0.184586,-0.8620519999999999
1629456597632,-0.459025,-0.177388,-0.8638819999999999
1629456597642,-0.46128199999999997,-0.173423,-0.864431
1629456597651,-0.46311199999999997,-0.166774,-0.862174
1629456597661,-0.463234,-0.159576,-0.861808
1629456597670,-0.468541,-0.165066,-0.874252
1629456597680,-0.46421,-0.17885199999999998,-0.875777
1629456597690,-0.462563,-0.183366,-0.8729709999999999
1629456597699,-0.46726,-0.182146,-0.8717509999999999
1629456597709,-0.461526,-0.175192,-0.871202
1629456597718,-0.46463699999999997,-0.161162,-0.863638
1629456597728,-0.457195,-0.164456,-0.856989
1629456597738,-0.459391,-0.165493,-0.859063
1629456597747,-0.459025,-0.168116,-0.859368
1629456597757,-0.46006199999999997,-0.169702,-0.857721
1629456597766,-0.463844,-0.166774,-0.851438
1629456597776,-0.465186,-0.17763199999999998,-0.8599169999999999
1629456597786,-0.466223,-0.180987,-0.865956
1629456597795,-0.46311199999999997,-0.178669,-0.866993
1629456597805,-0.46616199999999997,-0.17177599999999998,-0.868945
1629456597814,-0.465125,-0.167689,-0.869616
1629456597824,-0.4636,-0.163846,-0.871263
1629456597834,-0.46848,-0.161589,-0.867359
1629456597843,-0.468236,-0.161894,-0.860039
1629456597853,-0.468541,-0.157319,-0.857599
1629456597862,-0.471835,-0.157075,-0.8553419999999999
1629456597872,-0.474092,-0.15945399999999998,-0.859734
1629456597882,-0.47451899999999997,-0.165737,-0.86315
1629456597891,-0.473421,-0.167262,-0.866444
1629456597901,-0.472323,-0.167323,-0.868457
1629456597910,-0.470737,-0.166286,-0.872422
1629456597920,-0.468053,-0.166042,-0.871629
1629456597930,-0.466589,-0.16530999999999998,-0.868823
1629456597939,-0.46158699999999997,-0.169336,-0.877668
1629456597949,-0.459879,-0.171105,-0.872239
1629456597958,-0.461465,-0.170068,-0.868335
1629456597968,-0.463966,-0.169092,-0.865468
1629456597978,-0.463539,-0.17025099999999999,-0.8626619999999999
1629456597987,-0.46219699999999997,-0.172752,-0.8641869999999999
1629456597997,-0.460794,-0.170495,-0.865895
1629456598006,-0.465491,-0.162504,-0.861808
1629456598016,-0.469029,-0.15311,-0.85827
1629456598026,-0.470188,-0.14762,-0.8601
1629456598035,-0.473421,-0.144387,-0.858636
1629456598045,-0.47085899999999997,-0.145912,-0.862174
1629456598054,-0.46604,-0.15329299999999998,-0.8617469999999999
1629456598064,-0.46189199999999997,-0.158112,-0.86498
1629456598074,-0.456524,-0.15494,-0.866139
1629456598083,-0.463905,-0.14310599999999998,-0.861259
1629456598093,-0.465674,-0.138714,-0.8632719999999999
1629456598102,-0.468541,-0.132919,-0.864004
1629456598112,-0.475007,-0.124745,-0.862784
1629456598122,-0.469883,-0.137067,-0.8599169999999999
1629456598131,-0.465308,-0.15359799999999998,-0.859978
1629456598141,-0.460794,-0.148169,-0.871385
1629456598150,-0.45505999999999996,-0.18226799999999999,-0.864309
1629456598160,-0.450668,-0.190808,-0.8772409999999999
1629456598170,-0.45597499999999996,-0.18544,-0.875838
1629456598179,-0.459208,-0.179218,-0.871629
1629456598189,-0.458964,-0.175863,-0.869677
1629456598198,-0.457134,-0.171837,-0.869494
1629456598208,-0.45872,-0.169153,-0.866871
1629456598218,-0.459391,-0.170007,-0.8651019999999999
1629456598227,-0.459025,-0.17086099999999999,-0.864431
1629456598237,-0.458476,-0.174277,-0.866017
1629456598246,-0.45688999999999996,-0.172447,-0.8644919999999999
1629456598256,-0.457866,-0.178181,-0.865773
1629456598266,-0.454572,-0.184464,-0.86742
1629456598275,-0.452437,-0.183549,-0.867664
1629456598285,-0.454023,-0.177998,-0.8647969999999999
1629456598294,-0.45475499999999996,-0.17330099999999998,-0.8617469999999999
1629456598304,-0.454023,-0.166591,-0.858575
1629456598314,-0.457866,-0.169885,-0.8601
1629456598323,-0.453718,-0.181353,-0.8599169999999999
1629456598333,-0.455182,-0.187087,-0.8632719999999999
1629456598342,-0.457073,-0.18178,-0.862906
1629456598352,-0.461343,-0.177754,-0.86193
1629456598362,-0.462441,-0.174399,-0.8647969999999999
1629456598371,-0.463844,-0.17116599999999998,-0.866078
1629456598381,-0.467626,-0.169153,-0.865346
1629456598390,-0.465796,-0.16836,-0.865834
1629456598400,-0.462563,-0.1708,-0.861625
1629456598410,-0.46177,-0.17263,-0.863028
1629456598419,-0.460428,-0.173484,-0.8586969999999999
1629456598429,-0.46665,-0.178608,-0.871202
1629456598438,-0.45994,-0.187148,-0.87352
1629456598448,-0.460611,-0.181902,-0.869677
1629456598458,-0.463478,-0.17854699999999998,-0.862723
1629456598467,-0.46341699999999997,-0.175924,-0.861381
1629456598477,-0.46189199999999997,-0.177754,-0.865468
1629456598486,-0.463051,-0.177083,-0.866444
1629456598496,-0.462258,-0.176778,-0.869189
1629456598506,-0.461404,-0.177205,-0.869555
1629456598515,-0.458659,-0.176473,-0.870409
1629456598525,-0.4575,-0.177388,-0.86864
1629456598534,-0.457439,-0.175985,-0.869433
1629456598544,-0.456646,-0.176168,-0.868213
1629456598554,-0.453657,-0.17629,-0.869799
1629456598563,-0.453718,-0.176229,-0.870043
1629456598573,-0.455853,-0.175741,-0.868762
1629456598582,-0.453352,-0.174277,-0.86803
1629456598592,-0.453596,-0.174277,-0.868274
1629456598602,-0.454023,-0.17446,-0.867359
1629456598611,-0.451278,-0.173484,-0.866932
1629456598621,-0.451034,-0.171959,-0.866993
1629456598630,-0.450973,-0.172752,-0.867603
1629456598640,-0.449143,-0.174521,-0.868091
1629456598650,-0.45231499999999997,-0.173545,-0.865529
1629456598659,-0.453718,-0.174826,-0.865712
1629456598669,-0.453352,-0.174277,-0.866505
1629456598678,-0.455304,-0.174704,-0.86681
1629456598688,-0.454206,-0.17580199999999999,-0.867603
1629456598698,-0.453657,-0.1769,-0.864614
1629456598707,-0.457012,-0.174948,-0.865468
1629456598717,-0.454328,-0.175131,-0.865773
1629456598726,-0.456341,-0.17507,-0.86559
1629456598736,-0.456097,-0.176168,-0.866139
1629456598746,-0.454938,-0.176046,-0.8651019999999999
1629456598755,-0.458354,-0.175131,-0.864736
1629456598765,-0.457988,-0.176534,-0.865651
1629456598774,-0.458903,-0.176595,-0.867664
1629456598784,-0.457988,-0.17568,-0.86803
1629456598794,-0.459086,-0.177754,-0.868457
1629456598803,-0.457744,-0.180865,-0.867542
1629456598813,-0.457622,-0.181658,-0.866444
1629456598822,-0.457866,-0.183671,-0.864614
1629456598832,-0.457988,-0.185379,-0.861564
1629456598842,-0.457805,-0.18470799999999998,-0.864553
1629456598851,-0.458049,-0.181048,-0.864126
1629456598861,-0.456768,-0.179889,-0.86132
1629456598870,-0.45627999999999996,-0.18117,-0.86254
1629456598880,-0.45627999999999996,-0.181902,-0.863516
1629456598890,-0.456524,-0.183549,-0.864431
1629456598899,-0.456646,-0.185135,-0.864736
1629456598909,-0.457256,-0.184891,-0.8638819999999999
1629456598918,-0.456402,-0.184647,-0.863333
1629456598928,-0.458537,-0.182939,-0.86193
1629456598938,-0.457744,-0.183061,-0.861076
1629456598947,-0.457744,-0.18226799999999999,-0.861625
1629456598957,-0.4575,-0.182634,-0.863028
1629456598966,-0.457866,-0.181719,-0.8617469999999999
1629456598976,-0.458964,-0.180926,-0.861015
1629456598986,-0.45872,-0.181536,-0.86437
1629456598995,-0.45945199999999997,-0.181414,-0.865529
1629456599005,-0.461404,-0.182451,-0.867176
1629456599014,-0.462685,-0.181841,-0.8662
1629456599024,-0.462746,-0.181109,-0.865041
1629456599034,-0.461465,-0.182756,-0.863455
1629456599043,-0.45945199999999997,-0.184281,-0.862601
1629456599053,-0.458598,-0.185379,-0.861564
1629456599062,-0.458903,-0.187209,-0.862845
1629456599072,-0.46006199999999997,-0.189161,-0.863089
1629456599082,-0.461709,-0.190015,-0.861686
1629456599091,-0.46177,-0.188917,-0.861198
1629456599101,-0.462868,-0.18964899999999998,-0.864126
1629456599110,-0.461648,-0.192516,-0.864004
1629456599120,-0.460733,-0.193858,-0.863699
1629456599130,-0.460794,-0.194651,-0.863455
1629456599139,-0.460733,-0.19178399999999998,-0.863638
1629456599149,-0.460428,-0.190747,-0.862723
1629456599158,-0.460794,-0.189405,-0.86437
1629456599168,-0.461038,-0.18727,-0.864065
1629456599178,-0.463051,-0.184952,-0.86559
1629456599187,-0.464759,-0.183122,-0.864919
1629456599197,-0.462929,-0.183244,-0.864431
1629456599206,-0.461526,-0.184159,-0.862296
1629456599216,-0.46189199999999997,-0.185806,-0.8608319999999999
1629456599226,-0.460855,-0.186965,-0.859551
1629456599235,-0.461038,-0.185928,-0.859856
1629456599245,-0.461831,-0.18812399999999999,-0.859795
1629456599254,-0.461343,-0.18849,-0.859551
1629456599264,-0.461709,-0.189832,-0.859978
1629456599274,-0.462258,-0.189832,-0.860466
1629456599283,-0.462258,-0.188612,-0.8596119999999999
1629456599293,-0.462746,-0.188185,-0.859185
1629456599302,-0.46341699999999997,-0.18849,-0.862845
1629456599312,-0.46189199999999997,-0.190442,-0.863516
1629456599322,-0.46158699999999997,-0.190076,-0.861198
1629456599331,-0.463051,-0.190503,-0.861808
1629456599341,-0.46189199999999997,-0.195322,-0.861198
1629456599350,-0.459696,-0.195749,-0.857843
1629456599360,-0.460184,-0.191296,-0.858209
1629456599370,-0.46219699999999997,-0.19056399999999998,-0.859185
1629456599379,-0.460794,-0.19215,-0.859063
1629456599389,-0.46299,-0.1891,-0.858331
1629456599398,-0.46665,-0.188063,-0.8617469999999999
1629456599408,-0.465918,-0.188673,-0.865163
1629456599418,-0.46738199999999996,-0.187331,-0.8641869999999999
1629456599427,-0.468968,-0.189283,-0.864248
1629456599437,-0.469822,-0.190076,-0.864065
1629456599446,-0.46909,-0.18812399999999999,-0.862418
1629456599456,-0.469273,-0.18849,-0.859124
1629456599466,-0.468846,-0.188856,-0.860771
1629456599475,-0.469761,-0.190808,-0.862113
1629456599485,-0.46787,-0.191906,-0.8605269999999999
1629456599494,-0.46677199999999996,-0.190625,-0.859185
1629456599504,-0.46665,-0.19032,-0.859124
1629456599514,-0.466894,-0.19056399999999998,-0.859124
1629456599523,-0.464088,-0.19093,-0.856623
1629456599533,-0.464454,-0.190137,-0.856379
1629456599542,-0.464271,-0.19093,-0.860405
1629456599552,-0.461648,-0.196603,-0.862296
1629456599562,-0.461404,-0.196542,-0.8620519999999999
1629456599571,-0.458598,-0.192821,-0.854488
1629456599581,-0.457622,-0.19458999999999999,-0.8504619999999999
1629456599590,-0.457073,-0.200934,-0.856135
1629456599600,-0.456036,-0.204472,-0.862784
1629456599610,-0.451461,-0.204533,-0.8580869999999999
1629456599619,-0.46421,-0.198006,-0.874374
1629456599629,-0.452376,-0.205814,-0.8620519999999999
1629456599638,-0.449448,-0.192272,-0.848449
1629456599648,-0.453962,-0.183976,-0.847961
1629456599658,-0.45566999999999996,-0.183915,-0.85156
1629456599667,-0.452742,-0.192333,-0.8556469999999999
1629456599677,-0.453413,-0.199714,-0.859063
1629456599686,-0.450851,-0.208803,-0.860954
1629456599696,-0.449082,-0.210694,-0.860405
1629456599706,-0.453108,-0.20630199999999999,-0.856623
1629456599715,-0.453108,-0.205753,-0.8556469999999999
1629456599725,-0.456707,-0.20069,-0.858575
1629456599734,-0.459635,-0.19947,-0.864736
1629456599744,-0.461221,-0.19947,-0.870348
1629456599754,-0.471103,-0.20044599999999999,-0.8809009999999999
1629456599763,-0.45444999999999997,-0.212036,-0.857416
1629456599773,-0.458537,-0.20435,-0.8556469999999999
1629456599782,-0.454633,-0.218441,-0.8507669999999999
1629456599792,-0.456524,-0.22197899999999998,-0.858819
1629456599802,-0.456951,-0.21892899999999998,-0.863211
1629456599811,-0.461526,-0.20874199999999998,-0.8626619999999999
1629456599821,-0.461404,-0.201483,-0.854061
1629456599830,-0.470554,-0.201544,-0.868152
1629456599840,-0.458049,-0.212524,-0.85766
1629456599850,-0.46219699999999997,-0.21215799999999999,-0.856928
1629456599859,-0.463051,-0.216428,-0.852719
1629456599869,-0.46219699999999997,-0.219112,-0.856318
1629456599878,-0.461709,-0.22045399999999998,-0.857355
1629456599888,-0.46482,-0.21923399999999998,-0.862784
1629456599898,-0.465674,-0.21655,-0.8614419999999999
1629456599907,-0.464088,-0.21520799999999998,-0.862784
1629456599917,-0.466223,-0.210999,-0.860039
1629456599926,-0.46433199999999997,-0.208315,-0.857294
1629456599936,-0.463234,-0.210694,-0.855403
1629456599946,-0.46341699999999997,-0.215574,-0.857599
1629456599955,-0.46311199999999997,-0.217282,-0.85888
1629456599965,-0.462746,-0.214415,-0.859246
1629456599974,-0.46189199999999997,-0.212219,-0.855464
1629456599984,-0.459513,-0.207888,-0.853146
1629456599994,-0.457988,-0.208803,-0.848998
1629456600003,-0.46158699999999997,-0.20410599999999998,-0.852719
1629456600013,-0.46158699999999997,-0.20349599999999998,-0.851255
1629456600022,-0.462563,-0.201788,-0.8507669999999999
1629456600032,-0.46604,-0.197152,-0.854366
1629456600042,-0.46646699999999996,-0.194346,-0.854549
1629456600051,-0.467748,-0.193614,-0.855464
1629456600061,-0.46829699999999996,-0.191235,-0.856501
1629456600070,-0.46787,-0.192699,-0.854061
1629456600080,-0.465186,-0.19489499999999998,-0.851255
1629456600090,-0.465003,-0.200202,-0.85217
1629456600099,-0.465918,-0.203862,-0.855403
1629456600109,-0.463966,-0.203557,-0.855586
1629456600118,-0.46238,-0.203008,-0.851926
1629456600128,-0.46726,-0.20008,-0.865712
1629456600138,-0.461709,-0.203069,-0.8580869999999999
1629456600147,-0.4636,-0.200507,-0.859673
1629456600157,-0.46372199999999997,-0.19886,-0.856074
1629456600166,-0.465613,-0.197396,-0.8565619999999999
1629456600176,-0.46707699999999996,-0.196664,-0.860649
1629456600186,-0.466223,-0.195627,-0.8647969999999999
1629456600195,-0.466528,-0.19428499999999999,-0.8614419999999999
1629456600205,-0.467443,-0.193309,-0.8596119999999999
1629456600214,-0.46604,-0.190808,-0.859429
1629456600224,-0.465491,-0.193309,-0.857721
1629456600234,-0.465125,-0.193492,-0.85827
1629456600243,-0.463356,-0.193431,-0.857721
1629456600253,-0.462563,-0.195566,-0.856135
1629456600262,-0.46402699999999997,-0.196176,-0.85522
1629456600272,-0.465369,-0.195993,-0.857599
1629456600282,-0.467626,-0.195871,-0.859856
1629456600291,-0.467016,-0.19489499999999998,-0.860344
1629456600301,-0.467443,-0.196969,-0.858941
1629456600310,-0.468846,-0.195444,-0.860588
1629456600320,-0.468175,-0.197457,-0.857416
1629456600330,-0.4697,-0.198799,-0.860283
1629456600339,-0.4697,-0.198372,-0.859185
1629456600349,-0.468785,-0.19580999999999998,-0.859429
1629456600358,-0.470005,-0.198067,-0.858575
1629456600368,-0.470432,-0.199043,-0.86376
1629456600378,-0.467138,-0.194773,-0.853329
1629456600387,-0.465369,-0.19458999999999999,-0.846436
1629456600397,-0.465003,-0.199592,-0.849608
1629456600406,-0.46402699999999997,-0.20618,-0.8550369999999999
1629456600416,-0.462441,-0.20935199999999998,-0.856074
1629456600426,-0.462746,-0.209108,-0.853756
1629456600435,-0.4636,-0.208559,-0.851438
1629456600445,-0.463539,-0.206424,-0.852719
1629456600454,-0.46494199999999997,-0.205448,-0.852658
1629456600464,-0.46543,-0.20435,-0.853268
1629456600474,-0.466223,-0.203008,-0.853756
1629456600483,-0.466406,-0.20288599999999998,-0.8547319999999999
1629456600493,-0.46604,-0.204655,-0.857904
1629456600502,-0.465979,-0.20313,-0.858514
1629456600512,-0.468053,-0.200995,-0.856074
1629456600522,-0.466528,-0.201239,-0.856623
1629456600531,-0.46604,-0.20380099999999998,-0.855586
1629456600541,-0.464271,-0.206485,-0.85705
1629456600550,-0.462319,-0.20965699999999998,-0.859673
1629456600560,-0.46006199999999997,-0.20923,-0.8568669999999999
1629456600570,-0.45914699999999997,-0.208254,-0.8553419999999999
1629456600579,-0.45933,-0.20782699999999998,-0.856013
1629456600589,-0.459391,-0.20679,-0.855891
1629456600598,-0.460001,-0.20569199999999999,-0.857416
