timestamp,ax,ay,az
1629457671630,-0.245952,-0.025376,0.953735
1629457671639,-0.246684,-0.025254,0.955321
1629457671649,-0.246806,-0.024888,0.956785
1629457671659,-0.246257,-0.025803,0.9566629999999999
1629457671668,-0.247355,-0.026352,0.956785
1629457671678,-0.246867,-0.027084,0.9566629999999999
1629457671687,-0.246501,-0.026108,0.957639
1629457671697,-0.246135,-0.026595999999999998,0.957761
1629457671707,-0.246379,-0.027755,0.956907
1629457671716,-0.24601299999999998,-0.026474,0.957334
1629457671726,-0.246867,-0.026291,0.957334
1629457671735,-0.245342,-0.026900999999999998,0.954894
1629457671745,-0.24583,-0.026474,0.952515
1629457671755,-0.246501,-0.025436999999999998,0.953125
1629457671764,-0.24601299999999998,-0.024339,0.953064
1629457671774,-0.247965,-0.022753,0.952637
1629457671783,-0.248331,-0.021899,0.9505629999999999
1629457671793,-0.248941,-0.01952,0.9496479999999999
1629457671803,-0.249917,-0.018422,0.95221
1629457671812,-0.251137,-0.019337,0.952454
1629457671822,-0.251137,-0.020191,0.95221
1629457671831,-0.25132,-0.019886,0.952027
1629457671841,-0.251015,-0.020191,0.951844
1629457671851,-0.24973399999999998,-0.020618,0.953247
1629457671860,-0.249978,-0.020618,0.95343
1629457671870,-0.249002,-0.021716,0.952881
1629457671879,-0.249368,-0.022143,0.9523929999999999
1629457671889,-0.248392,-0.02318,0.952576
1629457671899,-0.248636,-0.02501,0.953186
1629457671908,-0.24820899999999999,-0.026718,0.952881
1629457671918,-0.247721,-0.026657,0.9539179999999999
1629457671927,-0.246928,-0.025986,0.954162
1629456577005,-0.364597,0.284931,0.874435
1629456577015,-0.36417,0.28365,0.873825
1629456577024,-0.364963,0.284565,0.872849
1629456577034,-0.364902,0.287249,0.871385
1629456577044,-0.366488,0.28914,0.871812
1629456577053,-0.365512,0.289384,0.871568
1629456577063,-0.366,0.290299,0.8705309999999999
1629456577072,-0.36514599999999997,0.288408,0.870653
1629456577082,-0.364902,0.287554,0.87169
1629456577092,-0.36356,0.286273,0.8729709999999999
1629456577101,-0.36295,0.286578,0.872544
1629456577111,-0.362401,0.287371,0.872727
1629456577120,-0.361242,0.287249,0.8726659999999999
1629456577130,-0.361486,0.287859,0.8723
1629456577140,-0.362157,0.286334,0.8726659999999999
1629456577149,-0.361852,0.28621199999999997,0.871385
1629456577159,-0.361181,0.290421,0.870897
1629456577168,-0.36234,0.290848,0.871324
1629456577178,-0.361791,0.289872,0.870714
1629456577188,-0.361791,0.288652,0.869189
1629456577197,-0.36112,0.287859,0.86864
1629456577207,-0.360083,0.288164,0.868518
1629456577216,-0.360754,0.288591,0.869311
1629456577226,-0.360388,0.289872,0.868762
1629456577236,-0.360693,0.290604,0.868091
1629456577245,-0.361242,0.290726,0.870409
1629456577255,-0.363072,0.290177,0.872849
1629456577264,-0.363499,0.289567,0.8751059999999999
1629456577274,-0.363743,0.287493,0.876082
1629456577284,-0.363743,0.285968,0.876448
1629456577293,-0.363194,0.286822,0.8763259999999999
1629456577303,-0.36356,0.286822,0.8760209999999999
1629456577312,-0.36392599999999997,0.288164,0.875167
1629456577322,-0.36423099999999997,0.288591,0.874374
1629456577332,-0.365268,0.288774,0.872605
1629456577341,-0.364658,0.28914,0.871873
1629456577351,-0.365207,0.287737,0.8711409999999999
1629456577360,-0.364414,0.288469,0.871263
1629456577370,-0.36453599999999997,0.288835,0.873032
1629456577380,-0.363255,0.289018,0.872239
1629456577389,-0.363987,0.288652,0.872117
1629456577399,-0.363987,0.290238,0.871324
1629456577408,-0.36453599999999997,0.290726,0.870104
1629456577418,-0.36362099999999997,0.290665,0.868884
1629456577428,-0.363255,0.291336,0.86803
1629456577437,-0.363377,0.291336,0.866932
1629456577447,-0.363316,0.291336,0.866627
1629456577456,-0.363194,0.290726,0.867237
1629456577466,-0.363072,0.290482,0.868335
1629456577476,-0.36234,0.289994,0.868945
1629456577485,-0.362462,0.289506,0.870409
1629456577495,-0.363865,0.289018,0.871202
1629456577504,-0.362889,0.288347,0.8726659999999999
1629456577514,-0.362279,0.288347,0.873398
1629456577524,-0.362584,0.28914,0.8714459999999999
1629456577533,-0.362889,0.289872,0.869372
1629456577543,-0.364902,0.290482,0.870165
1629456577552,-0.36484099999999997,0.289628,0.87047
1629456577562,-0.364658,0.289933,0.868884
1629456577572,-0.364048,0.288957,0.868518
1629456577581,-0.364719,0.28975,0.866932
1629456577591,-0.364658,0.290116,0.869677
1629456577600,-0.363316,0.288835,0.870714
1629456577610,-0.36356,0.289079,0.872117
1629456577620,-0.364292,0.288591,0.872605
1629456577629,-0.36478,0.287676,0.872239
1629456577639,-0.363987,0.286822,0.8723609999999999
1629456577648,-0.364719,0.286273,0.8720559999999999
1629456577658,-0.364597,0.286639,0.87169
1629456577668,-0.365207,0.287554,0.871324
1629456577677,-0.363987,0.287493,0.871202
1629456577687,-0.364048,0.287859,0.871507
1629456577696,-0.364658,0.288408,0.871812
1629456577706,-0.365085,0.288774,0.8717509999999999
1629456577716,-0.366488,0.289079,0.872544
1629456577725,-0.367647,0.28853,0.871873
1629456577735,-0.367647,0.28914,0.87047
1629456577744,-0.36758599999999997,0.287249,0.871324
1629456577754,-0.36758599999999997,0.287249,0.871873
1629456577764,-0.367037,0.285785,0.8732759999999999
1629456577773,-0.36728099999999997,0.285236,0.873398
1629456577783,-0.366732,0.28499199999999997,0.874313
1629456577792,-0.364963,0.285175,0.874374
1629456577802,-0.36417,0.28487,0.874618
1629456577812,-0.364109,0.28499199999999997,0.874862
1629456577821,-0.363377,0.286578,0.875289
1629456577831,-0.362889,0.287371,0.8751059999999999
1629456577840,-0.362767,0.287493,0.8732759999999999
1629456577850,-0.362035,0.287432,0.8723
1629456577860,-0.363072,0.288042,0.8711409999999999
1629456577869,-0.361181,0.288469,0.8711409999999999
1629456577879,-0.360449,0.28914,0.870287
1629456577888,-0.35831399999999997,0.288164,0.868701
1629456577898,-0.357948,0.290177,0.868579
1629456577908,-0.358131,0.291336,0.868823
1629456577917,-0.357765,0.292251,0.870958
1629456577927,-0.359168,0.290238,0.87291
1629456577936,-0.358436,0.288408,0.874008
1629456577946,-0.35922899999999997,0.28914,0.8751059999999999
1629456577956,-0.35831399999999997,0.288652,0.875594
1629456577965,-0.35861899999999997,0.288774,0.875594
1629456577975,-0.35922899999999997,0.288225,0.875045
1629456577984,-0.358558,0.287798,0.8738859999999999
1629456577994,-0.358375,0.287066,0.873032
1629456578004,-0.357765,0.285968,0.873032
1629456578013,-0.358558,0.28468699999999997,0.87291
1629456578023,-0.358741,0.285358,0.872849
1629456578032,-0.359046,0.286151,0.874008
1629456578042,-0.358802,0.28590699999999997,0.875289
1629456578052,-0.35868,0.285846,0.874923
1629456578061,-0.358192,0.284565,0.874313
1629456578071,-0.358802,0.284748,0.873825
1629456578080,-0.358802,0.284504,0.874557
1629456578090,-0.358741,0.285968,0.873764
1629456578100,-0.359107,0.28621199999999997,0.873703
1629456578109,-0.35892399999999997,0.285846,0.874008
1629456578119,-0.35892399999999997,0.286456,0.8735809999999999
1629456578128,-0.358253,0.28590699999999997,0.87352
1629456578138,-0.358497,0.283894,0.8744959999999999
1629456578148,-0.359351,0.284748,0.876265
1629456578157,-0.35624,0.286334,0.87535
1629456578167,-0.357338,0.287554,0.8766309999999999
1629456578176,-0.357216,0.285968,0.874557
1629456578186,-0.356728,0.286334,0.873337
1629456578196,-0.35685,0.284565,0.87352
1629456578205,-0.356911,0.28438199999999997,0.872117
1629456578215,-0.355996,0.283589,0.8723
1629456578224,-0.356423,0.283223,0.8729709999999999
1629456578234,-0.35648399999999997,0.285053,0.874984
1629456578244,-0.357582,0.285419,0.876448
1629456578253,-0.357643,0.285785,0.876509
1629456578263,-0.357887,0.283955,0.8781559999999999
1629456578272,-0.358558,0.28346699999999997,0.878339
1629456578282,-0.358985,0.282735,0.8793759999999999
1629456578292,-0.358192,0.28243,0.878949
1629456578301,-0.35922899999999997,0.282308,0.877607
1629456578311,-0.359412,0.282735,0.877302
1629456578320,-0.35929,0.28224699999999997,0.8775459999999999
1629456578330,-0.359168,0.282064,0.877119
1629456578340,-0.359595,0.28255199999999997,0.87718
1629456578349,-0.359656,0.282674,0.876875
1629456578359,-0.359046,0.282796,0.877363
1629456578368,-0.359839,0.282369,0.8766309999999999
1629456578378,-0.360815,0.281759,0.876509
1629456578388,-0.360327,0.281576,0.875228
1629456578397,-0.3599,0.28255199999999997,0.874252
1629456578407,-0.359656,0.282186,0.874374
1629456578416,-0.359778,0.284321,0.874069
1629456578426,-0.359412,0.284199,0.87352
1629456578436,-0.359656,0.284016,0.873337
1629456578445,-0.359717,0.28426,0.873398
1629456578455,-0.35929,0.28426,0.873642
1629456578464,-0.359412,0.28468699999999997,0.873459
1629456578474,-0.35892399999999997,0.284504,0.87291
1629456578484,-0.359107,0.28590699999999997,0.8726659999999999
1629456578493,-0.359351,0.285968,0.873032
1629456578503,-0.359046,0.28487,0.8735809999999999
1629456578512,-0.35953399999999996,0.28377199999999997,0.8726659999999999
1629456578522,-0.35929,0.283406,0.873703
1629456578532,-0.35868,0.28438199999999997,0.875167
1629456578541,-0.359412,0.284748,0.875533
1629456578551,-0.359595,0.284199,0.8766309999999999
1629456578560,-0.360144,0.28346699999999997,0.876997
1629456578570,-0.360388,0.28377199999999997,0.8775459999999999
1629456578580,-0.361181,0.283894,0.8772409999999999
1629456578589,-0.360205,0.283528,0.875777
1629456578599,-0.359351,0.284138,0.8744959999999999
1629456578608,-0.359595,0.284748,0.874435
1629456578618,-0.359656,0.28499199999999997,0.873642
1629456578628,-0.358497,0.28529699999999997,0.8723
1629456578637,-0.35807,0.28590699999999997,0.8729709999999999
1629456578647,-0.358497,0.28621199999999997,0.873459
1629456578656,-0.359046,0.287066,0.874862
1629456578666,-0.359107,0.286273,0.875777
1629456578676,-0.359046,0.285236,0.876265
1629456578685,-0.3599,0.285968,0.875472
1629456578695,-0.359961,0.285785,0.875228
1629456578704,-0.359778,0.286578,0.873459
1629456578714,-0.35800899999999997,0.2867,0.872483
1629456578724,-0.35770399999999997,0.288164,0.872117
1629456578733,-0.35868,0.288408,0.872117
1629456578743,-0.357948,0.289384,0.8717509999999999
1629456578752,-0.356911,0.288164,0.87047
1629456578762,-0.35807,0.288225,0.871812
1629456578772,-0.356606,0.287981,0.873642
1629456578781,-0.35648399999999997,0.287981,0.8735809999999999
1629456578791,-0.35587399999999997,0.287432,0.873093
1629456578800,-0.35526399999999997,0.287432,0.8717509999999999
1629456578810,-0.35434899999999997,0.288774,0.872117
1629456578820,-0.355386,0.289384,0.874252
1629456578829,-0.35624,0.289323,0.874252
1629456578839,-0.357948,0.289079,0.87291
1629456578848,-0.35739899999999997,0.288896,0.873093
1629456578858,-0.356423,0.288225,0.8744959999999999
1629456578868,-0.357216,0.288652,0.873947
1629456578877,-0.356118,0.287432,0.875777
1629456578887,-0.35709399999999997,0.287127,0.875533
1629456578896,-0.35739899999999997,0.284748,0.87596
1629456578906,-0.356911,0.283406,0.877302
1629456578916,-0.357155,0.28285699999999997,0.8781559999999999
1629456578925,-0.357826,0.28243,0.8787659999999999
1629456578935,-0.356911,0.28224699999999997,0.8784
1629456578944,-0.357643,0.283406,0.878522
1629456578954,-0.356972,0.283955,0.8775459999999999
1629456578964,-0.35709399999999997,0.284138,0.876997
1629456578973,-0.357643,0.28487,0.87535
1629456578983,-0.35770399999999997,0.285785,0.874923
1629456578992,-0.357033,0.28529699999999997,0.873947
1629456579002,-0.35709399999999997,0.285785,0.874313
1629456579012,-0.356423,0.285968,0.87352
1629456579021,-0.355508,0.28560199999999997,0.873764
1629456579031,-0.355691,0.28529699999999997,0.875228
1629456579040,-0.354837,0.284809,0.8754109999999999
1629456579050,-0.355325,0.28487,0.875289
1629456579060,-0.354471,0.28590699999999997,0.875228
1629456579069,-0.354166,0.289628,0.875655
1629456579079,-0.354776,0.287554,0.873215
1629456579088,-0.353922,0.287798,0.871324
1629456579098,-0.35404399999999997,0.287066,0.8708359999999999
1629456579108,-0.35465399999999997,0.286334,0.870897
1629456579117,-0.354593,0.285236,0.871995
1629456579127,-0.354471,0.285358,0.873032
1629456579136,-0.355325,0.285236,0.875289
1629456579146,-0.355325,0.28438199999999997,0.87779
1629456579156,-0.356911,0.284138,0.881328
1629456579165,-0.356667,0.282674,0.8827309999999999
1629456579175,-0.357338,0.28102699999999997,0.883707
1629456579184,-0.357521,0.280478,0.88206
1629456579194,-0.356667,0.280844,0.881328
1629456579204,-0.357277,0.282064,0.8799859999999999
1629456579213,-0.357521,0.28194199999999997,0.879132
1629456579223,-0.358192,0.283101,0.876997
1629456579232,-0.357521,0.283955,0.8751059999999999
1629456579242,-0.356972,0.283406,0.87413
1629456579252,-0.35685,0.282735,0.874435
1629456579261,-0.356606,0.283955,0.874923
1629456579271,-0.35678899999999997,0.284199,0.87413
1629456579280,-0.357582,0.282796,0.87413
1629456579290,-0.357887,0.282735,0.870592
1629456579300,-0.360144,0.284748,0.872239
1629456579309,-0.360754,0.282064,0.876082
1629456579319,-0.364658,0.28121,0.880352
1629456579328,-0.372405,0.277367,0.906216
1629456579338,-0.384788,0.267912,0.9459879999999999
1629456579348,-0.391132,0.253943,0.987346
1629456579357,-0.40333199999999997,0.217526,1.019066
1629456579367,-0.42273,0.189222,1.054385
1629456579376,-0.438285,0.159698,1.0793949999999999
1629456579386,-0.446886,0.141154,1.090009
1629456579396,-0.446581,0.137433,1.085007
1629456579405,-0.44743499999999997,0.137128,1.070733
1629456579415,-0.450119,0.09406199999999999,1.04554
1629456579424,-0.453169,0.057462,1.021384
1629456579434,-0.45627999999999996,0.032269,1.008574
1629456579444,-0.461709,0.023851,0.9940559999999999
1629456579453,-0.461404,0.033549999999999996,0.967826
1629456579463,-0.457744,0.05002,0.943121
1629456579472,-0.446276,0.061488,0.904264
1629456579482,-0.44103,0.066246,0.867664
1629456579492,-0.42212,0.084912,0.8152039999999999
1629456579501,-0.411323,0.103822,0.7881199999999999
1629456579511,-0.399306,0.132736,0.7509709999999999
1629456579520,-0.384849,0.164456,0.73078
1629456579530,-0.38265299999999997,0.19367499999999999,0.705099
1629456579540,-0.365939,0.217099,0.69418
1629456579549,-0.362218,0.246867,0.68259
1629456579559,-0.360815,0.266326,0.683932
1629456579568,-0.354166,0.275354,0.6832
1629456579578,-0.358497,0.281698,0.681736
1629456579588,-0.35929,0.289262,0.691313
1629456579597,-0.357277,0.276086,0.699426
1629456579607,-0.35251899999999997,0.261324,0.712114
1629456579616,-0.347761,0.25699299999999997,0.728889
1629456579626,-0.345138,0.260287,0.737795
1629456579636,-0.345138,0.26108,0.741089
1629456579645,-0.348676,0.265472,0.756217
1629456579655,-0.350384,0.263886,0.75884
1629456579664,-0.357277,0.269193,0.750178
1629456579674,-0.369477,0.27419499999999997,0.752374
1629456579684,-0.381677,0.269071,0.754875
1629456579693,-0.391193,0.251503,0.7567659999999999
1629456579703,-0.399062,0.24143799999999999,0.761585
1629456579712,-0.405589,0.233203,0.76555
1629456579722,-0.41107899999999997,0.2379,0.779519
1629456579732,-0.418155,0.239486,0.794464
1629456579741,-0.429074,0.248148,0.824476
1629456579751,-0.446154,0.258274,0.8479
1629456579760,-0.458781,0.254004,0.859795
1629456579770,-0.469029,0.238266,0.86864
1629456579780,-0.472628,0.2135,0.87352
1629456579789,-0.47238399999999997,0.181353,0.877607
1629456579799,-0.471408,0.159942,0.880718
1629456579808,-0.471103,0.153964,0.900543
1629456579818,-0.4758,0.152012,0.92171
1629456579828,-0.470615,0.153232,0.934215
1629456579837,-0.46128199999999997,0.153232,0.958005
1629456579847,-0.449997,0.149633,0.9761219999999999
1629456579856,-0.43694299999999997,0.146461,0.9825269999999999
1629456579866,-0.41846,0.161467,0.980148
1629456579876,-0.398269,0.186111,0.9782569999999999
1629456579885,-0.389729,0.197884,0.970998
1629456579895,-0.389668,0.192028,0.954101
1629456579904,-0.393328,0.245952,0.957517
1629456579914,-0.39344999999999997,0.255163,0.985333
1629456579924,-0.407663,0.267363,1.01199
1629456579933,-0.410408,0.265106,1.015467
1629456579943,-0.417728,0.268522,1.024556
1629456579952,-0.418826,0.263032,1.025105
1629456579962,-0.411872,0.250893,1.01443
1629456579972,-0.403881,0.254553,1.005036
1629456579981,-0.398574,0.258701,0.99247
1629456579991,-0.38765499999999997,0.26095799999999997,0.973621
1629456580000,-0.377346,0.265167,0.967338
1629456580010,-0.36636599999999997,0.268827,0.968619
1629456580020,-0.34721199999999997,0.268644,0.973804
1629456580029,-0.33733,0.271938,0.991982
1629456580039,-0.336232,0.273036,1.005768
1629456580048,-0.338977,0.278404,1.002291
1629456580058,-0.33989199999999997,0.27327999999999997,0.993873
1629456580068,-0.33794,0.266448,0.974414
1629456580077,-0.33092499999999997,0.263764,0.946354
1629456580087,-0.324947,0.262422,0.914268
1629456580096,-0.319274,0.262483,0.882914
1629456580106,-0.316102,0.265777,0.84851
1629456580116,-0.30933099999999997,0.28243,0.8352729999999999
1629456580125,-0.30628099999999997,0.303353,0.838872
1629456580135,-0.304512,0.325008,0.83997
1629456580144,-0.30439,0.35312899999999997,0.844423
1629456580154,-0.307562,0.391559,0.853024
1629456580164,-0.314028,0.426085,0.864858
1629456580173,-0.32134799999999997,0.451278,0.865529
1629456580183,-0.327021,0.468236,0.86071
1629456580192,-0.327082,0.472567,0.844606
1629456580202,-0.327448,0.469639,0.828319
1629456580212,-0.325679,0.45933,0.809836
1629456580221,-0.322934,0.447252,0.787998
1629456580231,-0.32134799999999997,0.44243299999999997,0.771772
1629456580240,-0.317566,0.440664,0.7610359999999999
1629456580250,-0.311466,0.43798,0.7524959999999999
1629456580260,-0.299205,0.44395799999999996,0.750117
1629456580269,-0.284504,0.446032,0.750361
1629456580279,-0.282308,0.453291,0.7665259999999999
1629456580288,-0.285724,0.453413,0.7832399999999999
1629456580298,-0.294813,0.449204,0.7887299999999999
1629456580308,-0.308538,0.4392,0.785802
1629456580317,-0.319335,0.416813,0.768173
1629456580327,-0.327021,0.4026,0.748287
1629456580336,-0.332816,0.395402,0.740845
1629456580346,-0.333731,0.385581,0.739686
1629456580356,-0.334463,0.369538,0.7400519999999999
1629456580365,-0.332938,0.366488,0.753228
1629456580375,-0.33305999999999997,0.363865,0.768539
1629456580384,-0.332816,0.361913,0.787876
1629456580394,-0.330437,0.362035,0.807335
1629456580404,-0.32878999999999997,0.362584,0.830454
1629456580413,-0.326716,0.36356,0.84546
1629456580423,-0.327204,0.359046,0.847595
1629456580432,-0.32635,0.350384,0.8392379999999999
1629456580442,-0.326472,0.34465,0.827831
1629456580452,-0.328119,0.337635,0.819291
1629456580461,-0.33244999999999997,0.33122999999999997,0.816485
1629456580471,-0.332572,0.325557,0.817705
1629456580480,-0.331718,0.31951799999999997,0.827404
1629456580490,-0.330803,0.313662,0.840336
1629456580500,-0.33092499999999997,0.311039,0.854854
1629456580509,-0.332389,0.310612,0.87169
1629456580519,-0.333182,0.31293,0.886635
1629456580528,-0.332694,0.316346,0.903288
1629456580538,-0.330864,0.320555,0.914268
1629456580548,-0.33244999999999997,0.330376,0.9228689999999999
1629456580557,-0.333121,0.33397499999999997,0.929335
1629456580567,-0.337269,0.336232,0.934398
1629456580576,-0.342454,0.33977,0.935618
1629456580586,-0.347639,0.344345,0.93635
1629456580596,-0.351787,0.350323,0.93818
1629456580605,-0.353251,0.350445,0.936472
1629456580615,-0.353251,0.351787,0.935618
1629456580624,-0.349774,0.346846,0.937875
1629456580634,-0.34446699999999997,0.3416,0.93696
1629456580644,-0.34343,0.336598,0.936411
1629456580653,-0.338977,0.327143,0.9323239999999999
1629456580663,-0.336049,0.319579,0.92415
1629456580672,-0.3355,0.315309,0.916525
1629456580682,-0.336232,0.30988,0.9088999999999999
1629456580692,-0.335317,0.30445099999999997,0.905179
1629456580701,-0.329583,0.29707,0.901214
1629456580711,-0.3233,0.285114,0.898957
1629456580720,-0.313906,0.26992499999999997,0.897676
1629456580730,-0.305427,0.259494,0.898652
1629456580740,-0.298351,0.251869,0.896273
1629456580749,-0.292373,0.245647,0.890722
1629456580759,-0.288896,0.243451,0.8857809999999999
1629456580768,-0.28499199999999997,0.243329,0.8793759999999999
1629456580778,-0.285724,0.24705,0.8763259999999999
1629456580788,-0.286944,0.250527,0.87413
1629456580797,-0.289811,0.253638,0.8714459999999999
1629456580807,-0.291763,0.25681,0.870287
1629456580816,-0.294325,0.261385,0.87047
1629456580826,-0.300425,0.270596,0.8714459999999999
1629456580836,-0.309453,0.285663,0.879925
1629456580845,-0.316102,0.29219,0.884622
1629456580855,-0.326228,0.29243399999999997,0.8815109999999999
1629456580864,-0.330742,0.299266,0.875899
1629456580874,-0.338367,0.311832,0.869616
1629456580884,-0.349652,0.330559,0.864309
1629456580893,-0.357155,0.35075,0.869372
1629456580903,-0.361974,0.365695,0.88694
1629456580912,-0.36844,0.375882,0.904508
1629456580922,-0.36575599999999997,0.377041,0.907619
1629456580932,-0.364292,0.371185,0.907314
1629456580941,-0.36661,0.36545099999999997,0.899018
1629456580951,-0.368928,0.35892399999999997,0.885415
1629456580960,-0.365817,0.35014,0.871812
1629456580970,-0.362035,0.34690699999999997,0.8647969999999999
1629456580980,-0.355996,0.354776,0.869738
1629456580989,-0.345931,0.36575599999999997,0.886025
1629456580999,-0.335134,0.375394,0.899262
1629456581008,-0.322934,0.379176,0.904874
1629456581018,-0.306342,0.373503,0.9101199999999999
1629456581028,-0.292617,0.363377,0.907314
1629456581037,-0.275842,0.344101,0.890112
1629456581047,-0.262239,0.314577,0.865346
1629456581056,-0.265899,0.306769,0.857904
1629456581066,-0.265411,0.298168,0.854
1629456581076,-0.272853,0.314028,0.8601
1629456581085,-0.27419499999999997,0.325191,0.86742
1629456581095,-0.278038,0.332084,0.870592
1629456581104,-0.280295,0.33092499999999997,0.867359
1629456581114,-0.279136,0.320677,0.869494
1629456581124,-0.273402,0.297192,0.866566
1629456581133,-0.271206,0.270352,0.865956
1629456581143,-0.270169,0.251076,0.865895
1629456581152,-0.27327999999999997,0.239486,0.870104
1629456581162,-0.27938,0.23460599999999998,0.87779
1629456581172,-0.288591,0.232654,0.8860859999999999
1629456581181,-0.29670399999999997,0.23058,0.88877
1629456581191,-0.301828,0.240767,0.898164
1629456581200,-0.303902,0.242475,0.9076799999999999
1629456581210,-0.302682,0.234057,0.906948
1629456581220,-0.296277,0.21612299999999998,0.899628
1629456581229,-0.292007,0.194956,0.88999
1629456581239,-0.284321,0.16500499999999999,0.8738859999999999
1629456581248,-0.282125,0.141825,0.8705309999999999
1629456581258,-0.27511,0.122488,0.874313
1629456581268,-0.277123,0.12078,0.894016
1629456581277,-0.276757,0.122427,0.914817
1629456581287,-0.275415,0.12456199999999999,0.9243939999999999
1629456581296,-0.274927,0.123586,0.9237839999999999
1629456581306,-0.279929,0.125294,0.932385
1629456581316,-0.28377199999999997,0.114802,0.938668
1629456581325,-0.285541,0.10406599999999999,0.94123
1629456581335,-0.290543,0.09174399999999999,0.944524
1629456581344,-0.299327,0.081801,0.9514779999999999
1629456581354,-0.305549,0.073932,0.9557479999999999
1629456581364,-0.314455,0.079483,0.961299
1629456581373,-0.318054,0.08942599999999999,0.96624
1629456581383,-0.319396,0.093574,0.9594079999999999
1629456581392,-0.31903,0.104859,0.950136
1629456581402,-0.31951799999999997,0.101077,0.945927
1629456581412,-0.325862,0.095465,0.959469
1629456581421,-0.327387,0.094733,0.980514
1629456581431,-0.332328,0.114619,1.000705
1629456581440,-0.331779,0.142557,1.015345
1629456581450,-0.331657,0.159515,1.019371
1629456581460,-0.330437,0.164761,1.001498
1629456581469,-0.329278,0.161528,0.9706319999999999
1629456581479,-0.324093,0.153415,0.939339
1629456581488,-0.312564,0.135786,0.901214
1629456581498,-0.315492,0.123891,0.8948699999999999
1629456581508,-0.310673,0.111386,0.903471
1629456581517,-0.30988,0.12132899999999999,0.915244
1629456581527,-0.312442,0.140239,0.9240889999999999
1629456581536,-0.311771,0.157136,0.924272
1629456581546,-0.313174,0.177754,0.923723
1629456581556,-0.31738299999999997,0.197762,0.924272
1629456581565,-0.319274,0.213622,0.916037
1629456581575,-0.31537,0.218502,0.895846
1629456581584,-0.312259,0.214171,0.875899
1629456581594,-0.31293,0.211182,0.8741909999999999
1629456581604,-0.309819,0.208498,0.8818159999999999
1629456581613,-0.318176,0.207888,0.902251
1629456581623,-0.321165,0.21276799999999998,0.924272
1629456581632,-0.321714,0.21892899999999998,0.938851
1629456581642,-0.32165299999999997,0.233935,0.9456829999999999
1629456581652,-0.31616299999999997,0.249612,0.9511729999999999
1629456581661,-0.311039,0.26156799999999997,0.947574
1629456581671,-0.30622,0.269254,0.9429379999999999
1629456581680,-0.302194,0.269132,0.9341539999999999
1629456581690,-0.297192,0.257359,0.9137799999999999
1629456581700,-0.286395,0.237778,0.891759
1629456581709,-0.275232,0.213805,0.876448
1629456581719,-0.266631,0.19086899999999998,0.863089
1629456581728,-0.26156799999999997,0.176046,0.8583919999999999
1629456581738,-0.257542,0.16836,0.8632719999999999
1629456581748,-0.255773,0.17025099999999999,0.873032
1629456581757,-0.255346,0.17751,0.885537
1629456581767,-0.254919,0.183854,0.898896
1629456581776,-0.257237,0.185501,0.912377
1629456581786,-0.262056,0.17507,0.9216489999999999
1629456581796,-0.262666,0.154635,0.9204289999999999
1629456581805,-0.266448,0.14249599999999998,0.924882
1629456581815,-0.27083999999999997,0.140605,0.9417179999999999
1629456581824,-0.273646,0.142374,0.960872
1629456581834,-0.276269,0.152317,0.96868
1629456581844,-0.27816,0.164944,0.969656
1629456581853,-0.280905,0.17610699999999999,0.961116
1629456581863,-0.276757,0.184586,0.949526
1629456581872,-0.274866,0.186721,0.941962
1629456581882,-0.274805,0.18544,0.937448
1629456581892,-0.274927,0.18605,0.935252
1629456581901,-0.272853,0.187026,0.938973
1629456581911,-0.272792,0.187697,0.944646
1629456581920,-0.272853,0.188856,0.947269
1629456581930,-0.272304,0.190686,0.94672
1629456581940,-0.274256,0.193004,0.947452
1629456581949,-0.276879,0.19550499999999998,0.945561
1629456581959,-0.279502,0.195688,0.942511
1629456581968,-0.282308,0.193431,0.936716
1629456581978,-0.284626,0.18903899999999998,0.9283589999999999
1629456581988,-0.288957,0.186233,0.920002
1629456581997,-0.29243399999999997,0.18422,0.9131699999999999
1629456582007,-0.295301,0.181719,0.908351
1629456582016,-0.297436,0.18117,0.905728
1629456582026,-0.301584,0.181658,0.904264
1629456582036,-0.302682,0.180438,0.904264
1629456582045,-0.305854,0.176595,0.9015799999999999
1629456582055,-0.310002,0.173545,0.899689
1629456582064,-0.315126,0.168055,0.899628
1629456582074,-0.319762,0.163907,0.900787
1629456582084,-0.324459,0.160796,0.903532
1629456582093,-0.329034,0.157563,0.906338
1629456582103,-0.33000999999999997,0.153415,0.909876
1629456582112,-0.330864,0.148596,0.913902
1629456582122,-0.328119,0.146766,0.919453
1629456582132,-0.325984,0.14213,0.9268339999999999
1629456582141,-0.325435,0.139446,0.9326289999999999
1629456582151,-0.324764,0.139446,0.935801
1629456582160,-0.324093,0.139446,0.936228
1629456582170,-0.325252,0.14274,0.93513
1629456582180,-0.326594,0.146278,0.932202
1629456582189,-0.328912,0.15237799999999999,0.9298839999999999
1629456582199,-0.330071,0.155184,0.928908
1629456582208,-0.33122999999999997,0.15982,0.928237
1629456582218,-0.331108,0.16006399999999998,0.927505
1629456582228,-0.33183999999999997,0.160308,0.927322
1629456582237,-0.332328,0.15853899999999999,0.9265289999999999
1629456582247,-0.331596,0.158417,0.9280539999999999
1629456582256,-0.33031499999999997,0.156892,0.928847
1629456582266,-0.329583,0.157014,0.927932
1629456582276,-0.327265,0.158661,0.9292739999999999
1629456582285,-0.324947,0.162504,0.932446
1629456582295,-0.324337,0.167079,0.932507
1629456582304,-0.324337,0.170678,0.93269
1629456582314,-0.323239,0.174399,0.930128
1629456582324,-0.321287,0.17610699999999999,0.9271389999999999
1629456582333,-0.318054,0.173911,0.922381
1629456582343,-0.318054,0.17507,0.920185
1629456582352,-0.316956,0.173972,0.917745
1629456582362,-0.315797,0.174643,0.914268
1629456582372,-0.312625,0.176229,0.914024
1629456582381,-0.311161,0.17507,0.913536
1629456582391,-0.309453,0.17269099999999998,0.914207
1629456582400,-0.307928,0.168726,0.914878
1629456582410,-0.30628099999999997,0.168055,0.914634
1629456582420,-0.305183,0.167079,0.915366
1629456582429,-0.30561,0.167018,0.919392
1629456582439,-0.30719599999999997,0.169153,0.9222589999999999
1629456582448,-0.307867,0.170739,0.922442
1629456582458,-0.309453,0.171959,0.922198
1629456582468,-0.311344,0.172508,0.919026
1629456582477,-0.311893,0.17147099999999998,0.91744
1629456582487,-0.311588,0.171715,0.915366
1629456582496,-0.311893,0.17238599999999998,0.915366
1629456582506,-0.31232,0.174582,0.917013
1629456582516,-0.313418,0.174155,0.919026
1629456582525,-0.315248,0.172752,0.921283
1629456582535,-0.315675,0.172874,0.922381
1629456582544,-0.316895,0.176961,0.922015
1629456582554,-0.317749,0.177449,0.92171
1629456582564,-0.317444,0.17854699999999998,0.920063
1629456582573,-0.316651,0.17934,0.916952
1629456582583,-0.315675,0.177449,0.915244
1629456582592,-0.314821,0.17507,0.917013
1629456582602,-0.313296,0.170922,0.918782
1629456582612,-0.312015,0.164578,0.919026
1629456582621,-0.311954,0.165432,0.918477
1629456582631,-0.311344,0.167811,0.918965
1629456582640,-0.310734,0.166774,0.916769
1629456582650,-0.309087,0.165249,0.914146
1629456582660,-0.310002,0.162504,0.912682
1629456582669,-0.310124,0.158722,0.9119499999999999
1629456582679,-0.310307,0.156343,0.912743
1629456582688,-0.310856,0.155855,0.916525
1629456582698,-0.311588,0.155245,0.920612
1629456582708,-0.312686,0.155367,0.921771
1629456582717,-0.313906,0.15738,0.918416
1629456582727,-0.314516,0.157746,0.915183
1629456582736,-0.315492,0.158722,0.915061
1629456582746,-0.31616299999999997,0.15853899999999999,0.914451
1629456582756,-0.315614,0.156892,0.913719
1629456582765,-0.317322,0.155489,0.912804
1629456582775,-0.32012799999999997,0.155733,0.915549
1629456582784,-0.320311,0.156465,0.921405
1629456582794,-0.322629,0.159637,0.928237
1629456582804,-0.324459,0.162809,0.9317139999999999
1629456582813,-0.324459,0.165371,0.932568
1629456582823,-0.323544,0.16622499999999998,0.9326289999999999
1629456582832,-0.32165299999999997,0.165127,0.930738
1629456582842,-0.318237,0.163541,0.926346
1629456582852,-0.31476,0.163114,0.920978
1629456582861,-0.310185,0.15975899999999998,0.918721
1629456582871,-0.304878,0.157197,0.916891
1629456582880,-0.303719,0.15677,0.915671
1629456582890,-0.30384099999999997,0.158112,0.916891
1629456582900,-0.302743,0.158905,0.915732
1629456582909,-0.301035,0.161406,0.914512
1629456582919,-0.300242,0.161528,0.912926
1629456582928,-0.299754,0.161406,0.913048
1629456582938,-0.299144,0.16226,0.9125599999999999
1629456582948,-0.296338,0.16439499999999999,0.916952
1629456582957,-0.29670399999999997,0.164456,0.923357
1629456582967,-0.296216,0.161894,0.926102
1629456582976,-0.296887,0.162504,0.9280539999999999
1629456582986,-0.298595,0.16500499999999999,0.929213
1629456582996,-0.297741,0.16652999999999998,0.933178
1629456583005,-0.297375,0.168238,0.934642
1629456583015,-0.29700899999999997,0.171227,0.93513
1629456583024,-0.29524,0.172203,0.9372039999999999
1629456583034,-0.29426399999999997,0.174826,0.9426329999999999
1629456583044,-0.29243399999999997,0.175192,0.947025
1629456583053,-0.289018,0.174887,0.949831
1629456583063,-0.28609,0.174582,0.949526
1629456583072,-0.28377199999999997,0.167628,0.946476
1629456583082,-0.281088,0.165676,0.941169
1629456583092,-0.278404,0.164334,0.939522
1629456583101,-0.274988,0.164456,0.93696
1629456583111,-0.27175499999999997,0.165432,0.936838
1629456583120,-0.269559,0.166774,0.935252
1629456583130,-0.268827,0.16836,0.931836
1629456583140,-0.265472,0.16713999999999998,0.927688
1629456583149,-0.263703,0.164334,0.922198
1629456583159,-0.261812,0.163175,0.917623
1629456583168,-0.26004299999999997,0.161467,0.917745
1629456583178,-0.260409,0.157746,0.917196
1629456583188,-0.260165,0.157868,0.916159
1629456583197,-0.260531,0.159393,0.916342
1629456583207,-0.26169,0.15738,0.917928
1629456583216,-0.26156799999999997,0.157136,0.91744
1629456583226,-0.261629,0.155977,0.918782
1629456583236,-0.262727,0.152195,0.919087
1629456583245,-0.264679,0.150487,0.919636
1629456583255,-0.265899,0.151097,0.922442
1629456583264,-0.265655,0.151219,0.925492
1629456583274,-0.266936,0.151524,0.925858
1629456583284,-0.267851,0.15189,0.927627
1629456583293,-0.271938,0.151219,0.931592
1629456583303,-0.27511,0.151341,0.935923
1629456583312,-0.276574,0.149938,0.939583
1629456583322,-0.278221,0.149389,0.938851
1629456583332,-0.27938,0.149511,0.938302
1629456583341,-0.279563,0.148108,0.941535
1629456583351,-0.280234,0.146278,0.942572
1629456583360,-0.27938,0.146278,0.9459879999999999
1629456583370,-0.27938,0.145302,0.946537
1629456583380,-0.279258,0.146339,0.945805
1629456583389,-0.278709,0.145973,0.9438529999999999
1629456583399,-0.278892,0.146461,0.9441579999999999
1629456583408,-0.277672,0.147315,0.942084
1629456583418,-0.277855,0.147925,0.939644
1629456583428,-0.278038,0.149389,0.940193
1629456583437,-0.27816,0.149145,0.941108
1629456583447,-0.278587,0.149328,0.941169
1629456583456,-0.279807,0.14945,0.940498
1629456583466,-0.279441,0.150548,0.940132
1629456583476,-0.27877,0.150365,0.941291
1629456583485,-0.278892,0.149877,0.9417179999999999
1629456583495,-0.277428,0.150853,0.937997
1629456583504,-0.276818,0.152561,0.936411
1629456583514,-0.275903,0.152256,0.934337
1629456583524,-0.276025,0.153171,0.932446
1629456583533,-0.276086,0.154269,0.932385
1629456583543,-0.277794,0.15420799999999998,0.932202
1629456583552,-0.277916,0.154696,0.930067
1629456583562,-0.28072199999999997,0.154269,0.930006
1629456583572,-0.28243,0.15494,0.931958
1629456583581,-0.283894,0.154391,0.93391
1629456583591,-0.28407699999999997,0.155306,0.933483
1629456583600,-0.283833,0.154879,0.931836
1629456583610,-0.28407699999999997,0.15420799999999998,0.933117
1629456583620,-0.28285699999999997,0.153232,0.932263
1629456583629,-0.281698,0.15067,0.931653
1629456583639,-0.279441,0.14823,0.9301889999999999
1629456583648,-0.279319,0.14652199999999999,0.9289689999999999
1629456583658,-0.278099,0.145485,0.928786
1629456583668,-0.277794,0.143838,0.92842
1629456583677,-0.277733,0.14396,0.929396
1629456583687,-0.276574,0.144631,0.930311
1629456583696,-0.276208,0.145302,0.931287
1629456583706,-0.277001,0.144387,0.932141
1629456583716,-0.277367,0.143472,0.933178
1629456583725,-0.277001,0.142435,0.9333
1629456583735,-0.276147,0.142984,0.9341539999999999
1629456583744,-0.274805,0.141337,0.9350689999999999
1629456583754,-0.274622,0.140727,0.934398
1629456583764,-0.273646,0.14158099999999998,0.936045
1629456583773,-0.273036,0.140483,0.935252
1629456583783,-0.27327999999999997,0.140788,0.935252
1629456583792,-0.272426,0.141642,0.937692
1629456583802,-0.272304,0.141093,0.93879
1629456583812,-0.273463,0.138958,0.93879
1629456583821,-0.272487,0.136762,0.937021
1629456583831,-0.272182,0.136457,0.93757
1629456583840,-0.272304,0.13663999999999998,0.939095
1629456583850,-0.272304,0.135969,0.938485
1629456583860,-0.273036,0.135481,0.9394
1629456583869,-0.274134,0.135481,0.93757
1629456583879,-0.274805,0.134993,0.937387
1629456583888,-0.274073,0.134932,0.93757
1629456583898,-0.2745,0.133895,0.937753
1629456583908,-0.273707,0.134139,0.938058
1629456583917,-0.273341,0.133712,0.938607
1629456583927,-0.273646,0.133773,0.939888
1629456583936,-0.2745,0.133102,0.941779
1629456583946,-0.272853,0.132431,0.94245
1629456583956,-0.272731,0.131943,0.9417179999999999
1629456583965,-0.272182,0.131455,0.941657
1629456583975,-0.271816,0.13078399999999998,0.941657
1629456583984,-0.271267,0.131577,0.941291
1629456583994,-0.270291,0.131089,0.941169
1629456584004,-0.269498,0.131028,0.940803
1629456584013,-0.269376,0.129686,0.941169
1629456584023,-0.26839999999999997,0.129076,0.939583
1629456584032,-0.26870499999999997,0.12895399999999999,0.940376
1629456584042,-0.269559,0.131516,0.942206
1629456584052,-0.269681,0.132736,0.944402
1629456584061,-0.268949,0.132309,0.9423279999999999
1629456584071,-0.268766,0.133346,0.940193
1629456584080,-0.268888,0.13176,0.938729
1629456584090,-0.268461,0.132614,0.938241
1629456584100,-0.268156,0.133346,0.93879
1629456584109,-0.268644,0.132614,0.938912
1629456584119,-0.267851,0.132004,0.939888
1629456584128,-0.26839999999999997,0.131394,0.940742
1629456584138,-0.267973,0.129747,0.939583
1629456584148,-0.267119,0.12925899999999999,0.937753
1629456584157,-0.266021,0.12925899999999999,0.937692
1629456584167,-0.264496,0.128161,0.938058
1629456584176,-0.264984,0.128222,0.937021
1629456584186,-0.264862,0.12895399999999999,0.936472
1629456584196,-0.266326,0.129076,0.937082
1629456584205,-0.267058,0.129381,0.9381189999999999
1629456584215,-0.267668,0.1281,0.938058
1629456584224,-0.268156,0.12956399999999998,0.938729
1629456584234,-0.267912,0.12932,0.939583
1629456584244,-0.268339,0.12864899999999999,0.940193
1629456584253,-0.268766,0.12834399999999999,0.939461
1629456584263,-0.268766,0.128222,0.938912
1629456584272,-0.269437,0.128039,0.938607
1629456584282,-0.269254,0.127856,0.93879
1629456584292,-0.268461,0.128161,0.939644
1629456584301,-0.268522,0.12871,0.9384239999999999
1629456584311,-0.269498,0.130357,0.937753
1629456584320,-0.268522,0.131089,0.938485
1629456584330,-0.268156,0.13047899999999998,0.937875
1629456584340,-0.26809499999999997,0.131577,0.938912
1629456584349,-0.269376,0.13298,0.939278
1629456584359,-0.268949,0.132004,0.938363
1629456584368,-0.268278,0.13176,0.939278
1629456584378,-0.268156,0.130418,0.939461
1629456584388,-0.268156,0.129625,0.939339
1629456584397,-0.266997,0.130967,0.939095
1629456584407,-0.266997,0.130906,0.940071
1629456584416,-0.266631,0.132797,0.94123
1629456584426,-0.266997,0.132492,0.9432429999999999
1629456584436,-0.267851,0.133468,0.944036
1629456584445,-0.26809499999999997,0.135664,0.945927
1629456584455,-0.269864,0.136457,0.946537
1629456584464,-0.269864,0.137433,0.945256
1629456584474,-0.270108,0.137494,0.9435479999999999
1629456584484,-0.270169,0.13694499999999998,0.94184
1629456584493,-0.270108,0.136701,0.940742
1629456584503,-0.270718,0.135542,0.940437
1629456584512,-0.269071,0.137738,0.93879
1629456584522,-0.269986,0.139202,0.938058
1629456584532,-0.270779,0.14036099999999999,0.937692
1629456584541,-0.27114499999999997,0.13969,0.93513
1629456584551,-0.273402,0.138287,0.933178
1629456584560,-0.273402,0.137738,0.934337
1629456584570,-0.27297499999999997,0.137494,0.935618
1629456584580,-0.2745,0.13786,0.937265
1629456584589,-0.274744,0.138958,0.939522
1629456584599,-0.27572,0.139873,0.94062
1629456584608,-0.275964,0.14091,0.939766
1629456584618,-0.275171,0.138958,0.937875
1629456584628,-0.274256,0.138348,0.9341539999999999
1629456584637,-0.273707,0.139141,0.932446
1629456584647,-0.272609,0.138348,0.933666
1629456584656,-0.272792,0.138043,0.934398
1629456584666,-0.27205999999999997,0.137311,0.934825
1629456584676,-0.271328,0.138348,0.934886
1629456584685,-0.270413,0.138226,0.934947
1629456584695,-0.27022999999999997,0.138409,0.93574
1629456584704,-0.269864,0.137921,0.937265
1629456584714,-0.268766,0.13786,0.9368989999999999
1629456584724,-0.268644,0.136518,0.938058
1629456584733,-0.267424,0.135969,0.936716
1629456584743,-0.26900999999999997,0.135542,0.9378139999999999
1629456584752,-0.266997,0.134444,0.937997
1629456584762,-0.267058,0.131638,0.9384239999999999
1629456584772,-0.267729,0.131211,0.940193
1629456584781,-0.268339,0.135664,0.9417179999999999
1629456584791,-0.267546,0.13633499999999998,0.941657
1629456584800,-0.265411,0.132797,0.9378139999999999
1629456584810,-0.26535,0.132309,0.937387
1629456584820,-0.263398,0.129808,0.937997
1629456584829,-0.264374,0.128222,0.939705
1629456584839,-0.26352,0.127551,0.940315
1629456584848,-0.263642,0.12749,0.939766
1629456584858,-0.265777,0.127368,0.940254
1629456584868,-0.264984,0.127063,0.93879
1629456584877,-0.264435,0.126941,0.939461
1629456584887,-0.265472,0.126697,0.94001
1629456584896,-0.266509,0.127124,0.940986
1629456584906,-0.266814,0.127673,0.940681
1629456584916,-0.267973,0.12871,0.941352
1629456584925,-0.267851,0.128771,0.941962
1629456584935,-0.267119,0.12871,0.942206
1629456584944,-0.26718,0.12932,0.941474
1629456584954,-0.266265,0.129625,0.940864
1629456584964,-0.266265,0.129686,0.940803
1629456584973,-0.265655,0.128771,0.942206
1629456584983,-0.266143,0.129137,0.9414129999999999
1629456584992,-0.264984,0.127551,0.94367
1629456585002,-0.265472,0.128039,0.942511
1629456585012,-0.265899,0.12932,0.944036
1629456585021,-0.266387,0.130418,0.944524
1629456585031,-0.266326,0.129686,0.943304
1629456585040,-0.266143,0.131028,0.941779
1629456585050,-0.266509,0.132614,0.940376
1629456585060,-0.266021,0.131455,0.941535
1629456585069,-0.265594,0.132614,0.940864
1629456585079,-0.264374,0.133529,0.941108
1629456585088,-0.264252,0.133224,0.941535
1629456585098,-0.264374,0.133712,0.940132
1629456585108,-0.263764,0.133346,0.941108
1629456585117,-0.264252,0.133224,0.940437
1629456585127,-0.263459,0.132675,0.94062
1629456585136,-0.264069,0.131821,0.939705
1629456585146,-0.26474,0.132431,0.940132
1629456585156,-0.264252,0.131638,0.940681
1629456585165,-0.264008,0.132126,0.941108
1629456585175,-0.263825,0.13237,0.939766
1629456585184,-0.264252,0.13237,0.9384239999999999
1629456585194,-0.263581,0.132126,0.939461
1629456585204,-0.263581,0.131028,0.938546
1629456585213,-0.262788,0.130418,0.9381189999999999
1629456585223,-0.264496,0.131272,0.938668
1629456585232,-0.265106,0.132919,0.939034
1629456585242,-0.265838,0.132858,0.94062
1629456585252,-0.266753,0.133529,0.941169
1629456585261,-0.266875,0.133163,0.941535
1629456585271,-0.265777,0.133773,0.939949
1629456585280,-0.265594,0.134444,0.939278
1629456585290,-0.265411,0.134566,0.9394
1629456585300,-0.265777,0.13511499999999999,0.940986
1629456585309,-0.263825,0.135603,0.942877
1629456585319,-0.263581,0.13725,0.941108
1629456585328,-0.2623,0.137982,0.940742
1629456585338,-0.261507,0.138592,0.940498
1629456585348,-0.261385,0.135481,0.94001
1629456585357,-0.261019,0.133407,0.9394
1629456585367,-0.26047,0.132248,0.939522
1629456585376,-0.259616,0.132492,0.942145
1629456585386,-0.25851799999999997,0.131638,0.9444629999999999
1629456585396,-0.257237,0.129442,0.9444629999999999
1629456585405,-0.258335,0.12895399999999999,0.9429379999999999
1629456585415,-0.258579,0.128527,0.942084
1629456585424,-0.258945,0.128405,0.94123
1629456585434,-0.25851799999999997,0.12871,0.941779
1629456585444,-0.259006,0.12895399999999999,0.94123
1629456585453,-0.26034799999999997,0.130723,0.940803
1629456585463,-0.261446,0.130906,0.943609
1629456585472,-0.261324,0.131211,0.945317
1629456585482,-0.26156799999999997,0.132126,0.944402
1629456585492,-0.261324,0.131821,0.942816
1629456585501,-0.26034799999999997,0.132004,0.940742
1629456585511,-0.259921,0.132248,0.941352
1629456585520,-0.25986,0.131333,0.939156
1629456585530,-0.260165,0.131333,0.939278
1629456585540,-0.25973799999999997,0.131516,0.939034
1629456585549,-0.261385,0.132614,0.939095
1629456585559,-0.260836,0.131272,0.941291
1629456585568,-0.26187299999999997,0.129808,0.942084
1629456585578,-0.261812,0.13078399999999998,0.9423279999999999
1629456585588,-0.26187299999999997,0.13480999999999999,0.943609
1629456585597,-0.262544,0.135786,0.944524
1629456585607,-0.26187299999999997,0.135237,0.9420229999999999
1629456585616,-0.261141,0.136213,0.937997
1629456585626,-0.260104,0.134139,0.936106
1629456585636,-0.259372,0.134566,0.936716
1629456585645,-0.259372,0.133285,0.937875
1629456585655,-0.259006,0.132248,0.940071
1629456585664,-0.259311,0.131394,0.939949
1629456585674,-0.257725,0.131028,0.93818
1629456585684,-0.258274,0.12956399999999998,0.937448
1629456585693,-0.258457,0.129442,0.93696
1629456585703,-0.257969,0.12834399999999999,0.937692
1629456585712,-0.258091,0.128588,0.937143
1629456585722,-0.258396,0.128771,0.937875
1629456585732,-0.25943299999999997,0.1281,0.9375089999999999
1629456585741,-0.260287,0.128283,0.937997
1629456585751,-0.26034799999999997,0.128466,0.939827
1629456585760,-0.259372,0.126941,0.941291
1629456585770,-0.259494,0.126148,0.94062
1629456585780,-0.25864,0.125904,0.940498
1629456585789,-0.25943299999999997,0.126331,0.940986
1629456585799,-0.25973799999999997,0.125843,0.940498
1629456585808,-0.25973799999999997,0.126819,0.94062
1629456585818,-0.260409,0.12627,0.941657
1629456585828,-0.261019,0.127368,0.939888
1629456585837,-0.260592,0.12688,0.940254
1629456585847,-0.262788,0.127551,0.940803
1629456585856,-0.26169,0.127307,0.940132
1629456585866,-0.2623,0.128222,0.941352
1629456585876,-0.262178,0.12834399999999999,0.943182
1629456585885,-0.263032,0.128405,0.942572
1629456585895,-0.262361,0.129442,0.9438529999999999
1629456585904,-0.262788,0.12956399999999998,0.9438529999999999
1629456585914,-0.26352,0.12993,0.944646
1629456585924,-0.264496,0.130235,0.944219
1629456585933,-0.265594,0.130723,0.943975
1629456585943,-0.265655,0.132248,0.943731
1629456585952,-0.265472,0.133102,0.943487
1629456585962,-0.264313,0.133651,0.9438529999999999
1629456585972,-0.264069,0.132309,0.943487
1629456585981,-0.262971,0.130662,0.941291
1629456585991,-0.262239,0.130357,0.940681
1629456586000,-0.26169,0.13078399999999998,0.939888
1629456586010,-0.261324,0.131821,0.94001
1629456586020,-0.26156799999999997,0.131821,0.939766
1629456586029,-0.26156799999999997,0.13359,0.939644
1629456586039,-0.261019,0.134932,0.938729
1629456586048,-0.261446,0.133468,0.938485
1629456586058,-0.263459,0.135786,0.9381189999999999
1629456586068,-0.262361,0.136518,0.93757
1629456586077,-0.263215,0.136152,0.936472
1629456586087,-0.262056,0.136274,0.937875
1629456586096,-0.263764,0.13786,0.941474
1629456586106,-0.264679,0.139202,0.9429379999999999
1629456586116,-0.264679,0.141703,0.945561
1629456586125,-0.266265,0.143716,0.94855
1629456586135,-0.266448,0.14274,0.948489
1629456586144,-0.26839999999999997,0.141642,0.9493429999999999
1629456586154,-0.267851,0.140117,0.9496479999999999
1629456586164,-0.266631,0.139873,0.950075
1629456586173,-0.26657,0.141215,0.953796
1629456586183,-0.266448,0.14066599999999999,0.9542229999999999
1629456586192,-0.265289,0.139934,0.953735
1629456586202,-0.264984,0.139934,0.951295
1629456586212,-0.264679,0.138592,0.9490379999999999
1629456586221,-0.262239,0.138165,0.94672
1629456586231,-0.262239,0.13725,0.945561
1629456586240,-0.26065299999999997,0.136579,0.945561
1629456586250,-0.260592,0.13694499999999998,0.9450729999999999
1629456586260,-0.25986,0.137311,0.94306
1629456586269,-0.259067,0.136152,0.941596
1629456586279,-0.259799,0.135786,0.938546
1629456586288,-0.258945,0.134749,0.9378139999999999
1629456586298,-0.25864,0.135542,0.937692
1629456586308,-0.258579,0.13633499999999998,0.936655
1629456586317,-0.259677,0.136213,0.9347639999999999
1629456586327,-0.26047,0.136396,0.933117
1629456586336,-0.260409,0.136396,0.932873
1629456586346,-0.261324,0.136884,0.931775
1629456586356,-0.262361,0.134139,0.9323239999999999
1629456586365,-0.262727,0.134078,0.934886
1629456586375,-0.263398,0.136884,0.9368989999999999
1629456586384,-0.265838,0.136457,0.938363
1629456586394,-0.266509,0.136213,0.937631
1629456586404,-0.266814,0.134078,0.9372039999999999
1629456586413,-0.267485,0.13298,0.935557
1629456586423,-0.267485,0.133102,0.9368989999999999
1629456586432,-0.266509,0.13298,0.938546
1629456586442,-0.266448,0.13176,0.938973
1629456586452,-0.267302,0.131394,0.941352
1629456586461,-0.266509,0.131394,0.941291
1629456586471,-0.266631,0.131638,0.940559
1629456586480,-0.26596,0.132431,0.941291
1629456586490,-0.266448,0.133773,0.943426
1629456586500,-0.266082,0.134383,0.94428
1629456586509,-0.266082,0.13450499999999999,0.9441579999999999
1629456586519,-0.265411,0.13541999999999998,0.945012
1629456586528,-0.264618,0.134871,0.945134
1629456586538,-0.263093,0.136457,0.94611
1629456586548,-0.261507,0.13663999999999998,0.948367
1629456586557,-0.26034799999999997,0.137494,0.9475129999999999
1629456586567,-0.25912799999999997,0.138043,0.945927
1629456586576,-0.257176,0.136762,0.945256
1629456586586,-0.256505,0.135908,0.943975
1629456586596,-0.256627,0.137433,0.943182
1629456586605,-0.2562,0.138775,0.941901
1629456586615,-0.255834,0.139934,0.942145
1629456586624,-0.255407,0.14036099999999999,0.943487
1629456586634,-0.255285,0.139812,0.9423279999999999
1629456586644,-0.254919,0.139873,0.9417179999999999
1629456586653,-0.255407,0.141337,0.9417179999999999
1629456586663,-0.25638299999999997,0.141215,0.941901
1629456586672,-0.25559,0.141642,0.941474
1629456586682,-0.256749,0.1403,0.939583
1629456586692,-0.25742,0.140117,0.939034
1629456586701,-0.257115,0.139873,0.938363
1629456586711,-0.258396,0.140544,0.938851
1629456586720,-0.25882299999999997,0.140178,0.939278
1629456586730,-0.258945,0.14036099999999999,0.9394
1629456586740,-0.259006,0.14219099999999998,0.940071
1629456586749,-0.259006,0.14335,0.940498
1629456586759,-0.25943299999999997,0.14219099999999998,0.940132
1629456586768,-0.260165,0.14213,0.939583
1629456586778,-0.260165,0.141093,0.939339
1629456586788,-0.258884,0.13908,0.938912
1629456586797,-0.25986,0.138958,0.940071
1629456586807,-0.260714,0.138043,0.940803
1629456586816,-0.26108,0.14036099999999999,0.938607
1629456586826,-0.26047,0.140422,0.938241
1629456586836,-0.260775,0.14249599999999998,0.940437
1629456586845,-0.26095799999999997,0.14219099999999998,0.939461
1629456586855,-0.26187299999999997,0.139995,0.937631
1629456586864,-0.26108,0.138348,0.936838
1629456586874,-0.260592,0.138409,0.937753
1629456586884,-0.260531,0.139568,0.939461
1629456586893,-0.259982,0.137982,0.941108
1629456586903,-0.261019,0.137677,0.94123
1629456586912,-0.26126299999999997,0.137372,0.940376
1629456586922,-0.261446,0.138043,0.939095
1629456586932,-0.26065299999999997,0.137311,0.939034
1629456586941,-0.26126299999999997,0.137372,0.93879
1629456586951,-0.26156799999999997,0.137372,0.940864
1629456586960,-0.261202,0.136152,0.940864
1629456586970,-0.262239,0.137433,0.940803
1629456586980,-0.2623,0.13908,0.943121
1629456586989,-0.262971,0.139507,0.943365
1629456586999,-0.262422,0.140422,0.9441579999999999
1629456587008,-0.262971,0.14005599999999999,0.942511
1629456587018,-0.262727,0.140544,0.9414129999999999
1629456587028,-0.26126299999999997,0.14036099999999999,0.941352
1629456587037,-0.261995,0.141337,0.94001
1629456587047,-0.260592,0.142313,0.940437
1629456587056,-0.261446,0.142252,0.940498
1629456587066,-0.261812,0.141032,0.941047
1629456587076,-0.262178,0.14274,0.942694
1629456587085,-0.262666,0.146705,0.945012
1629456587095,-0.263276,0.145363,0.944646
1629456587104,-0.26187299999999997,0.145851,0.942145
1629456587114,-0.261934,0.144875,0.940925
1629456587124,-0.261324,0.14335,0.940376
1629456587133,-0.260836,0.14335,0.939278
1629456587143,-0.260836,0.143228,0.9378139999999999
1629456587152,-0.259494,0.142557,0.938363
1629456587162,-0.260531,0.141703,0.938058
1629456587172,-0.26047,0.141459,0.9359839999999999
1629456587181,-0.260836,0.142618,0.935618
1629456587191,-0.261141,0.142862,0.937448
1629456587200,-0.26169,0.142984,0.938607
1629456587210,-0.2623,0.143472,0.939705
1629456587220,-0.262727,0.143045,0.939766
1629456587229,-0.262849,0.143472,0.939583
1629456587239,-0.262971,0.144265,0.939034
1629456587248,-0.262544,0.143777,0.939644
1629456587258,-0.262361,0.14310599999999998,0.939949
1629456587268,-0.261812,0.14249599999999998,0.939949
1629456587277,-0.262666,0.141825,0.939888
1629456587287,-0.262605,0.142008,0.94062
1629456587296,-0.262544,0.14188599999999998,0.940559
1629456587306,-0.262544,0.14158099999999998,0.94062
1629456587316,-0.262727,0.142252,0.940376
1629456587325,-0.261812,0.143045,0.940132
1629456587335,-0.262666,0.143472,0.938058
1629456587344,-0.262361,0.143777,0.93818
1629456587354,-0.262483,0.142923,0.938546
1629456587364,-0.261995,0.142008,0.937326
1629456587373,-0.26169,0.141154,0.937265
1629456587383,-0.261812,0.142618,0.938729
1629456587392,-0.261324,0.141398,0.9394
1629456587402,-0.261202,0.140544,0.939583
1629456587412,-0.261019,0.140605,0.939461
1629456587421,-0.26095799999999997,0.141215,0.941596
1629456587431,-0.261019,0.1403,0.9414129999999999
1629456587440,-0.262117,0.140605,0.942511
1629456587450,-0.262056,0.141154,0.942755
1629456587460,-0.261629,0.14310599999999998,0.942145
1629456587469,-0.262422,0.143228,0.9435479999999999
1629456587479,-0.2623,0.142923,0.942511
1629456587488,-0.261385,0.142313,0.940681
1629456587498,-0.261507,0.142374,0.940254
1629456587508,-0.261507,0.141398,0.939766
1629456587517,-0.260775,0.141154,0.940376
1629456587527,-0.261141,0.142008,0.940254
1629456587536,-0.261507,0.14335,0.939095
1629456587546,-0.26169,0.145668,0.938729
1629456587556,-0.262788,0.14682699999999999,0.93879
1629456587565,-0.263398,0.145851,0.939583
1629456587575,-0.262849,0.143655,0.939705
1629456587584,-0.262483,0.143472,0.93818
1629456587594,-0.261812,0.143289,0.9378139999999999
1629456587604,-0.261629,0.143594,0.940498
1629456587613,-0.261812,0.143411,0.940864
1629456587623,-0.26126299999999997,0.142252,0.940681
1629456587632,-0.262544,0.141947,0.939034
1629456587642,-0.262544,0.142069,0.939278
1629456587652,-0.262727,0.14091,0.938546
1629456587661,-0.261812,0.141337,0.9378139999999999
1629456587671,-0.26156799999999997,0.14091,0.937387
1629456587680,-0.262971,0.141459,0.938485
1629456587690,-0.263276,0.14249599999999998,0.938363
1629456587700,-0.264191,0.14274,0.9384239999999999
1629456587709,-0.263642,0.142679,0.939278
1629456587719,-0.263642,0.14213,0.939644
1629456587728,-0.263642,0.141215,0.939583
1629456587738,-0.264679,0.141398,0.940864
1629456587748,-0.264252,0.139812,0.942511
1629456587757,-0.263398,0.141337,0.94184
1629456587767,-0.263459,0.141093,0.940132
1629456587776,-0.263459,0.140117,0.940315
1629456587786,-0.262971,0.138775,0.939888
1629456587796,-0.263154,0.13969,0.941047
1629456587805,-0.263947,0.142679,0.942816
1629456587815,-0.263825,0.14335,0.94306
1629456587824,-0.263276,0.141947,0.940376
1629456587834,-0.263032,0.14127599999999998,0.939217
1629456587844,-0.261995,0.138958,0.9381189999999999
1629456587853,-0.262544,0.14066599999999999,0.93757
1629456587863,-0.26169,0.14036099999999999,0.939644
1629456587872,-0.26187299999999997,0.141032,0.939156
1629456587882,-0.262971,0.14158099999999998,0.939949
1629456587892,-0.263154,0.14152,0.939583
1629456587901,-0.263581,0.141154,0.939461
1629456587911,-0.263154,0.141093,0.940071
1629456587920,-0.262361,0.13969,0.940437
1629456587930,-0.262971,0.139507,0.939522
1629456587940,-0.2623,0.139446,0.939827
1629456587949,-0.262544,0.139507,0.939095
1629456587959,-0.262727,0.139446,0.938546
1629456587968,-0.262544,0.140483,0.94001
1629456587978,-0.262239,0.138836,0.941596
1629456587988,-0.262056,0.139385,0.940498
1629456587997,-0.262239,0.140849,0.941047
1629456588007,-0.262056,0.14091,0.940559
1629456588016,-0.2623,0.141032,0.940315
1629456588026,-0.2623,0.140422,0.9420229999999999
1629456588036,-0.261629,0.139751,0.942572
1629456588045,-0.262056,0.140117,0.9426329999999999
1629456588055,-0.261812,0.140239,0.943426
1629456588064,-0.261446,0.140422,0.9429379999999999
1629456588074,-0.26108,0.140422,0.942816
1629456588084,-0.259921,0.140483,0.941047
1629456588093,-0.259372,0.139751,0.940376
1629456588103,-0.25882299999999997,0.139141,0.93879
1629456588112,-0.25912799999999997,0.138348,0.938485
1629456588122,-0.258579,0.138836,0.939217
1629456588132,-0.258152,0.137921,0.9394
1629456588141,-0.25864,0.138104,0.938912
1629456588151,-0.258274,0.13572499999999998,0.939766
1629456588160,-0.25851799999999997,0.135786,0.940498
1629456588170,-0.259616,0.135542,0.9420229999999999
1629456588180,-0.26034799999999997,0.134749,0.942694
1629456588189,-0.259677,0.135237,0.942511
1629456588199,-0.26108,0.136152,0.942511
1629456588208,-0.260775,0.136213,0.94367
1629456588218,-0.26095799999999997,0.137677,0.943731
1629456588228,-0.26095799999999997,0.138165,0.9420229999999999
1629456588237,-0.261629,0.139141,0.941047
1629456588247,-0.262544,0.140422,0.94001
1629456588256,-0.262483,0.139202,0.93879
1629456588266,-0.261995,0.139751,0.939156
1629456588276,-0.264252,0.139995,0.940132
1629456588285,-0.263947,0.141825,0.939156
1629456588295,-0.264374,0.143838,0.939278
1629456588304,-0.26413,0.143167,0.939461
1629456588314,-0.264313,0.142557,0.939644
1629456588324,-0.263276,0.139812,0.939644
1629456588333,-0.263825,0.139202,0.939095
1629456588343,-0.262788,0.139873,0.939522
1629456588352,-0.262544,0.138836,0.941291
1629456588362,-0.262422,0.138531,0.942145
1629456588372,-0.263215,0.138287,0.942206
1629456588381,-0.262422,0.137982,0.940376
1629456588391,-0.262422,0.136823,0.938973
1629456588400,-0.262971,0.137921,0.937936
1629456588410,-0.262666,0.136701,0.938546
1629456588420,-0.263581,0.137738,0.939522
1629456588429,-0.263703,0.137982,0.940498
1629456588439,-0.262727,0.138287,0.941291
1629456588448,-0.263093,0.138348,0.9417179999999999
1629456588458,-0.2623,0.138226,0.942084
1629456588468,-0.262727,0.137555,0.94245
1629456588477,-0.262849,0.137128,0.94245
1629456588487,-0.263093,0.13725,0.941169
1629456588496,-0.262605,0.13847,0.940925
1629456588506,-0.261751,0.13908,0.940498
1629456588516,-0.26126299999999997,0.138958,0.940376
1629456588525,-0.261507,0.137616,0.939705
1629456588535,-0.261934,0.137738,0.939766
1629456588544,-0.261995,0.141093,0.941779
1629456588554,-0.263154,0.144143,0.942999
1629456588564,-0.263642,0.141398,0.941047
1629456588573,-0.262971,0.141642,0.939278
1629456588583,-0.263337,0.140727,0.940498
1629456588592,-0.262788,0.140483,0.938851
1629456588602,-0.26187299999999997,0.14005599999999999,0.938485
1629456588612,-0.261751,0.139202,0.939095
1629456588621,-0.261812,0.139324,0.939034
1629456588631,-0.262178,0.139202,0.939217
1629456588640,-0.261324,0.138653,0.937448
1629456588650,-0.262605,0.138592,0.937936
1629456588660,-0.261141,0.138531,0.939766
1629456588669,-0.262056,0.13847,0.940681
1629456588679,-0.262239,0.138043,0.939522
1629456588688,-0.261446,0.13725,0.940376
1629456588698,-0.2623,0.137982,0.940071
1629456588708,-0.26126299999999997,0.138836,0.940071
1629456588717,-0.261324,0.137555,0.939888
1629456588727,-0.262056,0.137677,0.94001
1629456588736,-0.261934,0.137189,0.941596
1629456588746,-0.261751,0.136518,0.94245
1629456588756,-0.261507,0.137433,0.942816
1629456588765,-0.261751,0.137677,0.942267
1629456588775,-0.261141,0.138287,0.94184
1629456588784,-0.26108,0.138226,0.94184
1629456588794,-0.26034799999999997,0.137982,0.940437
1629456588804,-0.259372,0.13908,0.938973
1629456588813,-0.25912799999999997,0.139629,0.939339
1629456588823,-0.259616,0.140788,0.939034
1629456588832,-0.259982,0.14127599999999998,0.939583
1629456588842,-0.25882299999999997,0.14066599999999999,0.940071
1629456588852,-0.257359,0.13969,0.940193
1629456588861,-0.257542,0.138653,0.939888
1629456588871,-0.257054,0.135908,0.939888
1629456588880,-0.257359,0.134688,0.940925
1629456588890,-0.256566,0.134444,0.941169
1629456588900,-0.255773,0.132858,0.941474
1629456588909,-0.257054,0.13359,0.943121
1629456588919,-0.25803,0.134444,0.944524
1629456588928,-0.258762,0.135237,0.945134
1629456588938,-0.260592,0.135969,0.944097
1629456588948,-0.260287,0.136823,0.942084
1629456588957,-0.259921,0.136457,0.941108
1629456588967,-0.26047,0.133895,0.940986
1629456588976,-0.26108,0.133773,0.941108
1629456588986,-0.261812,0.13298,0.943426
1629456588996,-0.263337,0.133224,0.942206
1629456589005,-0.263215,0.137067,0.941352
1629456589015,-0.263703,0.13786,0.9426329999999999
1629456589024,-0.26413,0.13694499999999998,0.942389
1629456589034,-0.263764,0.13541999999999998,0.9420229999999999
1629456589044,-0.264435,0.13480999999999999,0.94184
1629456589053,-0.263154,0.134017,0.9423279999999999
1629456589063,-0.262666,0.134566,0.942816
1629456589072,-0.26352,0.134444,0.944036
1629456589082,-0.264008,0.13602999999999998,0.9441579999999999
1629456589092,-0.263398,0.13633499999999998,0.942999
1629456589101,-0.262361,0.136579,0.940132
1629456589111,-0.26291,0.135969,0.938668
1629456589120,-0.261507,0.134017,0.937082
1629456589130,-0.260775,0.134017,0.937997
1629456589140,-0.26108,0.133834,0.939156
1629456589149,-0.25986,0.13419999999999999,0.939827
1629456589159,-0.260836,0.135298,0.939888
1629456589168,-0.26034799999999997,0.134566,0.939888
1629456589178,-0.25986,0.134566,0.940437
1629456589188,-0.259372,0.134688,0.940132
1629456589197,-0.260165,0.134444,0.940986
1629456589207,-0.259921,0.135481,0.941596
1629456589216,-0.26047,0.136213,0.942389
1629456589226,-0.259616,0.136579,0.941779
1629456589236,-0.25925,0.13572499999999998,0.940498
1629456589245,-0.259982,0.135176,0.940864
1629456589255,-0.259921,0.138409,0.942999
1629456589264,-0.25973799999999997,0.140544,0.944219
1629456589274,-0.260104,0.139568,0.943182
1629456589284,-0.25925,0.138836,0.942206
1629456589293,-0.259006,0.138104,0.941535
1629456589303,-0.257542,0.13633499999999998,0.940925
1629456589312,-0.258396,0.136213,0.940864
1629456589322,-0.258274,0.135969,0.941657
1629456589332,-0.25821299999999997,0.135847,0.941047
1629456589341,-0.257786,0.135786,0.941108
1629456589351,-0.259067,0.137372,0.940193
1629456589360,-0.25925,0.136274,0.940498
1629456589370,-0.258762,0.136396,0.940315
1629456589380,-0.259311,0.135786,0.940864
1629456589389,-0.25912799999999997,0.135054,0.941474
1629456589399,-0.259189,0.13450499999999999,0.940803
1629456589408,-0.259799,0.135664,0.940132
1629456589418,-0.260409,0.134932,0.941596
1629456589428,-0.260104,0.13511499999999999,0.941596
1629456589437,-0.26034799999999997,0.134688,0.941962
1629456589447,-0.261202,0.136701,0.94306
1629456589456,-0.260775,0.13633499999999998,0.942572
1629456589466,-0.260775,0.13602999999999998,0.94184
1629456589476,-0.261812,0.137372,0.942145
1629456589485,-0.26169,0.137006,0.943121
1629456589495,-0.261629,0.136884,0.942999
1629456589504,-0.262483,0.136884,0.942694
1629456589514,-0.261141,0.137982,0.941352
1629456589524,-0.260714,0.138226,0.940803
1629456589533,-0.261507,0.13969,0.941596
1629456589543,-0.26187299999999997,0.14005599999999999,0.942084
1629456589552,-0.261324,0.138348,0.942206
1629456589562,-0.261324,0.136701,0.941291
1629456589572,-0.260836,0.137128,0.940376
1629456589581,-0.260714,0.135664,0.941901
1629456589591,-0.259372,0.135847,0.940864
1629456589600,-0.259494,0.136457,0.940132
1629456589610,-0.26004299999999997,0.136213,0.939583
1629456589620,-0.259372,0.136457,0.940254
1629456589629,-0.258579,0.134871,0.939339
1629456589639,-0.259494,0.135359,0.93757
1629456589648,-0.258274,0.135664,0.938973
1629456589658,-0.258457,0.135176,0.937692
1629456589668,-0.259189,0.13450499999999999,0.93757
1629456589677,-0.25986,0.135237,0.939034
1629456589687,-0.261019,0.135603,0.93879
1629456589696,-0.260409,0.137311,0.939156
1629456589706,-0.26108,0.138287,0.9420229999999999
1629456589716,-0.261324,0.138226,0.942389
1629456589725,-0.26108,0.135176,0.9429379999999999
1629456589735,-0.261202,0.133468,0.9438529999999999
1629456589744,-0.261751,0.134627,0.943731
1629456589754,-0.2623,0.135847,0.943914
1629456589764,-0.26169,0.136701,0.94672
1629456589773,-0.26291,0.137006,0.945866
1629456589783,-0.263398,0.137555,0.943487
1629456589792,-0.263703,0.13725,0.94245
1629456589802,-0.262544,0.136274,0.941657
1629456589812,-0.262544,0.135542,0.940925
1629456589821,-0.261507,0.134932,0.9417179999999999
1629456589831,-0.260714,0.135176,0.941474
1629456589840,-0.259616,0.13572499999999998,0.941352
1629456589850,-0.259311,0.134932,0.941108
1629456589860,-0.259311,0.134322,0.940376
1629456589869,-0.259067,0.133834,0.940437
1629456589879,-0.257969,0.13359,0.939461
1629456589888,-0.258152,0.134139,0.939522
1629456589898,-0.25864,0.133712,0.939705
1629456589908,-0.25864,0.134993,0.940254
1629456589917,-0.259189,0.135054,0.94123
1629456589927,-0.258762,0.13450499999999999,0.94123
1629456589936,-0.25925,0.133224,0.940559
1629456589946,-0.260165,0.134749,0.940986
1629456589956,-0.259616,0.138043,0.9417179999999999
1629456589965,-0.26108,0.137372,0.942694
1629456589975,-0.261202,0.137128,0.942145
1629456589984,-0.26108,0.136518,0.9414129999999999
1629456589994,-0.261446,0.136274,0.94062
1629456590004,-0.261324,0.135359,0.941108
1629456590013,-0.260775,0.135969,0.94184
1629456590023,-0.261141,0.135542,0.942877
1629456590032,-0.261324,0.136091,0.941962
1629456590042,-0.261385,0.136518,0.941291
1629456590052,-0.262361,0.136274,0.941474
1629456590061,-0.261934,0.136274,0.940925
1629456590071,-0.26291,0.135664,0.940803
1629456590080,-0.262605,0.135237,0.939766
1629456590090,-0.261934,0.134261,0.939583
1629456590100,-0.26187299999999997,0.133834,0.939095
1629456590109,-0.261202,0.132797,0.93818
1629456590119,-0.261812,0.133224,0.939095
1629456590128,-0.26156799999999997,0.134322,0.940193
1629456590138,-0.263337,0.134749,0.940498
1629456590148,-0.262239,0.134932,0.940254
1629456590157,-0.263032,0.136152,0.942084
1629456590167,-0.263764,0.136152,0.942572
1629456590176,-0.264313,0.13663999999999998,0.943121
1629456590186,-0.263886,0.135786,0.941901
1629456590196,-0.26474,0.13786,0.942206
1629456590205,-0.263703,0.138104,0.94245
1629456590215,-0.263886,0.139141,0.940986
1629456590224,-0.263886,0.13908,0.938973
1629456590234,-0.262483,0.138287,0.937753
1629456590244,-0.26291,0.138531,0.936716
1629456590253,-0.264069,0.13908,0.93757
1629456590263,-0.263947,0.138897,0.939827
1629456590272,-0.265045,0.139568,0.940559
1629456590282,-0.265228,0.140849,0.94245
1629456590292,-0.265411,0.14219099999999998,0.94245
1629456590301,-0.266387,0.141825,0.9420229999999999
1629456590311,-0.264923,0.14127599999999998,0.941352
1629456590320,-0.265106,0.142618,0.939766
1629456590330,-0.264862,0.142069,0.938363
1629456590340,-0.263825,0.141642,0.937082
1629456590349,-0.263886,0.142374,0.9378139999999999
1629456590359,-0.263947,0.141398,0.9375089999999999
1629456590368,-0.264862,0.14274,0.9362889999999999
1629456590378,-0.264923,0.145302,0.938058
1629456590388,-0.265289,0.1464,0.939766
1629456590397,-0.265716,0.145546,0.939217
1629456590407,-0.266387,0.144692,0.93757
1629456590416,-0.266326,0.143594,0.93696
1629456590426,-0.265106,0.143594,0.937265
1629456590436,-0.265167,0.143777,0.939156
1629456590445,-0.26657,0.142923,0.939766
1629456590455,-0.267119,0.143045,0.938302
1629456590464,-0.267485,0.14274,0.937997
1629456590474,-0.268034,0.140788,0.936838
1629456590484,-0.267363,0.139995,0.9365939999999999
1629456590493,-0.267302,0.139385,0.936228
1629456590503,-0.266936,0.13969,0.93696
1629456590512,-0.267851,0.140178,0.937692
1629456590522,-0.267729,0.141154,0.938302
1629456590532,-0.268888,0.14152,0.937692
1629456590541,-0.268034,0.142374,0.9378139999999999
1629456590551,-0.269071,0.142618,0.938302
1629456590560,-0.268949,0.142313,0.937936
1629456590570,-0.268339,0.140849,0.938302
1629456590580,-0.268339,0.140849,0.939888
1629456590589,-0.267912,0.140422,0.940315
1629456590599,-0.26779,0.13908,0.939278
1629456590608,-0.266326,0.137921,0.939278
1629456590618,-0.266509,0.137982,0.940254
1629456590628,-0.265716,0.14091,0.941352
1629456590637,-0.26657,0.141154,0.9420229999999999
1629456590647,-0.265594,0.141215,0.9394
1629456590656,-0.265167,0.13969,0.936655
1629456590666,-0.264862,0.139324,0.9359839999999999
1629456590676,-0.264801,0.140178,0.935618
1629456590685,-0.264374,0.139446,0.9359839999999999
1629456590695,-0.26474,0.13908,0.9378139999999999
1629456590704,-0.265838,0.139385,0.938485
1629456590714,-0.265472,0.138653,0.938485
1629456590724,-0.266875,0.138836,0.9381189999999999
1629456590733,-0.266753,0.138592,0.939461
1629456590743,-0.266448,0.138836,0.940742
1629456590752,-0.267546,0.137799,0.9417179999999999
1629456590762,-0.26718,0.13847,0.941779
1629456590772,-0.266387,0.138104,0.940925
1629456590781,-0.267607,0.138958,0.941596
1629456590791,-0.266997,0.13908,0.940254
1629456590800,-0.268034,0.139873,0.939705
1629456590810,-0.267241,0.140544,0.940437
1629456590820,-0.267302,0.141215,0.941291
1629456590829,-0.268156,0.14188599999999998,0.939949
1629456590839,-0.267851,0.141703,0.938363
1629456590848,-0.26779,0.143167,0.937326
1629456590858,-0.267241,0.14274,0.937997
1629456590868,-0.266082,0.142374,0.938241
1629456590877,-0.264557,0.142008,0.936838
1629456590887,-0.264374,0.140727,0.936228
1629456590896,-0.263825,0.13908,0.9365939999999999
1629456590906,-0.263825,0.137738,0.938302
1629456590916,-0.263764,0.138592,0.939034
1629456590925,-0.265228,0.139568,0.939156
1629456590935,-0.265716,0.140239,0.939949
1629456590944,-0.265228,0.14005599999999999,0.940315
1629456590954,-0.264984,0.140483,0.940864
1629456590964,-0.266204,0.14152,0.941535
1629456590973,-0.265045,0.141947,0.940254
1629456590983,-0.265716,0.142557,0.940803
1629456590992,-0.264496,0.14091,0.939339
1629456591002,-0.263459,0.14091,0.94123
1629456591012,-0.263886,0.139812,0.940681
1629456591021,-0.264069,0.14005599999999999,0.937875
1629456591031,-0.26474,0.141032,0.937326
1629456591040,-0.264984,0.14396,0.93818
1629456591050,-0.265411,0.143228,0.938973
1629456591060,-0.265228,0.141764,0.938546
1629456591069,-0.266387,0.139995,0.936838
1629456591079,-0.265228,0.139019,0.938241
1629456591088,-0.265777,0.138897,0.938546
1629456591098,-0.264679,0.140239,0.939522
1629456591108,-0.26657,0.141459,0.940498
1629456591117,-0.267302,0.142374,0.940559
1629456591127,-0.267485,0.141703,0.939522
1629456591136,-0.267424,0.141642,0.93879
1629456591146,-0.267241,0.14066599999999999,0.937692
1629456591156,-0.267302,0.139263,0.938302
1629456591165,-0.266448,0.14005599999999999,0.939217
1629456591175,-0.266509,0.139324,0.939156
1629456591184,-0.266448,0.14066599999999999,0.938607
1629456591194,-0.266204,0.140727,0.938729
1629456591204,-0.265899,0.14066599999999999,0.937143
1629456591213,-0.265899,0.14097099999999999,0.9378139999999999
1629456591223,-0.266753,0.14127599999999998,0.939034
1629456591232,-0.26718,0.141703,0.940254
1629456591242,-0.266448,0.142008,0.940376
1629456591252,-0.267363,0.14280099999999998,0.939644
1629456591261,-0.265716,0.141398,0.939522
1629456591271,-0.265289,0.139568,0.938973
1629456591280,-0.26596,0.140849,0.939766
1629456591290,-0.265716,0.14396,0.9423279999999999
1629456591300,-0.266082,0.144814,0.941108
1629456591309,-0.265716,0.144631,0.938851
1629456591319,-0.265472,0.143228,0.937692
1629456591328,-0.263825,0.142252,0.937936
1629456591338,-0.264008,0.141703,0.937143
1629456591348,-0.26413,0.142008,0.937387
1629456591357,-0.265228,0.142252,0.938302
1629456591367,-0.264923,0.14091,0.938851
1629456591376,-0.264679,0.141032,0.938363
1629456591386,-0.265655,0.140117,0.9381189999999999
1629456591396,-0.266082,0.139385,0.939034
1629456591405,-0.268217,0.138958,0.939522
1629456591415,-0.270901,0.138897,0.941047
1629456591424,-0.271999,0.139202,0.940986
1629456591434,-0.273463,0.139141,0.941047
1629456591444,-0.27266999999999997,0.138043,0.939766
1629456591453,-0.273402,0.138165,0.939034
1629456591463,-0.272121,0.13786,0.938241
1629456591472,-0.27022999999999997,0.138531,0.9372039999999999
1629456591482,-0.268949,0.138043,0.93696
1629456591492,-0.267973,0.138348,0.937387
1629456591501,-0.266753,0.139568,0.939278
1629456591511,-0.264984,0.139507,0.940315
1629456591520,-0.265289,0.140544,0.94062
1629456591530,-0.263642,0.14091,0.941291
1629456591540,-0.263032,0.142679,0.94184
1629456591549,-0.26352,0.143472,0.94306
1629456591559,-0.263398,0.144448,0.94245
1629456591568,-0.262727,0.144692,0.9417179999999999
1629456591578,-0.260287,0.145058,0.940559
1629456591588,-0.259372,0.144021,0.941108
1629456591597,-0.257359,0.143472,0.940498
1629456591607,-0.256932,0.14091,0.939278
1629456591616,-0.256322,0.141215,0.940437
1629456591626,-0.255895,0.14127599999999998,0.940742
1629456591636,-0.256078,0.142862,0.9414129999999999
1629456591645,-0.257054,0.144753,0.941901
1629456591655,-0.256932,0.144387,0.941474
1629456591664,-0.258091,0.144814,0.940132
1629456591674,-0.25742,0.14518,0.940315
1629456591684,-0.25668799999999997,0.145241,0.939034
1629456591693,-0.25681,0.145058,0.940376
1629456591703,-0.257054,0.144692,0.941474
1629456591712,-0.25729799999999997,0.144997,0.940071
1629456591722,-0.257725,0.147803,0.938546
1629456591732,-0.257969,0.150792,0.940071
1629456591741,-0.25851799999999997,0.152317,0.941596
1629456591751,-0.260287,0.152134,0.94123
1629456591760,-0.25973799999999997,0.150121,0.94123
1629456591770,-0.26065299999999997,0.151158,0.941535
1629456591780,-0.26034799999999997,0.151158,0.941901
1629456591789,-0.25864,0.151707,0.941657
1629456591799,-0.258884,0.150914,0.941535
1629456591808,-0.259494,0.15207299999999999,0.941291
1629456591818,-0.258945,0.152622,0.939705
1629456591828,-0.259982,0.152622,0.937997
1629456591837,-0.259372,0.15329299999999998,0.936655
1629456591847,-0.259189,0.153476,0.9375089999999999
1629456591856,-0.258335,0.154757,0.935618
1629456591866,-0.25729799999999997,0.15298799999999999,0.9350689999999999
1629456591876,-0.257115,0.151829,0.936106
1629456591885,-0.256261,0.15128,0.935557
1629456591895,-0.256078,0.151402,0.934581
1629456591904,-0.255834,0.151951,0.935923
1629456591914,-0.255895,0.151097,0.9381189999999999
1629456591924,-0.25790799999999997,0.152317,0.939522
1629456591933,-0.258274,0.152622,0.938729
1629456591943,-0.258335,0.153659,0.9381189999999999
1629456591952,-0.258335,0.152805,0.938668
1629456591962,-0.258884,0.151463,0.938607
1629456591972,-0.259799,0.151707,0.940376
1629456591981,-0.260775,0.155977,0.942206
1629456591991,-0.26156799999999997,0.15792899999999999,0.942694
1629456592000,-0.26169,0.157502,0.94062
1629456592010,-0.262056,0.157319,0.939339
1629456592020,-0.261629,0.156038,0.938363
1629456592029,-0.261934,0.155794,0.937448
1629456592039,-0.261202,0.153964,0.936777
1629456592048,-0.261934,0.153171,0.937143
1629456592058,-0.2623,0.152744,0.938058
1629456592068,-0.261995,0.152134,0.93635
1629456592077,-0.262056,0.152439,0.9356789999999999
1629456592087,-0.26187299999999997,0.152195,0.936777
1629456592096,-0.262117,0.152622,0.937448
1629456592106,-0.262544,0.15189,0.938363
1629456592116,-0.261141,0.151951,0.938729
1629456592125,-0.262239,0.151829,0.939766
1629456592135,-0.2623,0.151951,0.939888
1629456592144,-0.262422,0.151768,0.938668
1629456592154,-0.262361,0.151524,0.937936
1629456592164,-0.26169,0.151463,0.938363
1629456592173,-0.262422,0.152012,0.938668
1629456592183,-0.262605,0.151646,0.940071
1629456592192,-0.262605,0.15268299999999999,0.940986
1629456592202,-0.263398,0.152866,0.939888
1629456592212,-0.263337,0.152927,0.939339
1629456592221,-0.262727,0.15298799999999999,0.938485
1629456592231,-0.262117,0.15311,0.937997
1629456592240,-0.261446,0.15359799999999998,0.9368989999999999
1629456592250,-0.261751,0.154452,0.93757
1629456592260,-0.262239,0.15359799999999998,0.938363
1629456592269,-0.261324,0.153842,0.93757
1629456592279,-0.261446,0.154696,0.937021
1629456592288,-0.261019,0.154147,0.9381189999999999
1629456592298,-0.260287,0.15390299999999998,0.940071
1629456592308,-0.25943299999999997,0.153354,0.940498
1629456592317,-0.259494,0.152195,0.940742
1629456592327,-0.258335,0.150426,0.940986
1629456592336,-0.257237,0.149816,0.9394
1629456592346,-0.257786,0.149206,0.9384239999999999
1629456592356,-0.257176,0.150487,0.9381189999999999
1629456592365,-0.256322,0.152805,0.9381189999999999
1629456592375,-0.255834,0.155245,0.937936
1629456592384,-0.256017,0.155001,0.939705
1629456592394,-0.257176,0.152744,0.94062
1629456592404,-0.257481,0.1525,0.941596
1629456592413,-0.260104,0.150426,0.942145
1629456592423,-0.26065299999999997,0.150121,0.944219
1629456592432,-0.260775,0.149816,0.945622
1629456592442,-0.262117,0.14835199999999998,0.94611
1629456592452,-0.262849,0.14865699999999998,0.942816
1629456592461,-0.261934,0.151707,0.942389
1629456592471,-0.26169,0.152866,0.942206
1629456592480,-0.260775,0.152317,0.939949
1629456592490,-0.260409,0.149755,0.9372039999999999
1629456592500,-0.25943299999999997,0.148291,0.9344589999999999
1629456592509,-0.25973799999999997,0.147315,0.933056
1629456592519,-0.25925,0.146156,0.937753
1629456592528,-0.258579,0.146583,0.939827
1629456592538,-0.25943299999999997,0.147376,0.939827
1629456592548,-0.260409,0.146034,0.939888
1629456592557,-0.260592,0.146095,0.939949
1629456592567,-0.260287,0.144387,0.939583
1629456592576,-0.259555,0.144448,0.9420229999999999
1629456592586,-0.260165,0.144448,0.9420229999999999
1629456592596,-0.259982,0.145302,0.942999
1629456592605,-0.260409,0.144753,0.94184
1629456592615,-0.260165,0.144692,0.942084
1629456592624,-0.258701,0.145485,0.940925
1629456592634,-0.258701,0.146278,0.939949
1629456592644,-0.258884,0.14713199999999999,0.939522
1629456592653,-0.259799,0.147925,0.939278
1629456592663,-0.259006,0.148901,0.937082
1629456592672,-0.258396,0.149511,0.93696
1629456592682,-0.258335,0.149572,0.93696
1629456592692,-0.258396,0.14884,0.937326
1629456592701,-0.258884,0.14701,0.9384239999999999
1629456592711,-0.25986,0.14896199999999998,0.939583
1629456592720,-0.26047,0.154147,0.9426329999999999
1629456592730,-0.26034799999999997,0.154147,0.942389
1629456592740,-0.260897,0.153415,0.940254
1629456592749,-0.26156799999999997,0.151951,0.93757
1629456592759,-0.26095799999999997,0.15067,0.9368989999999999
1629456592768,-0.26187299999999997,0.149938,0.9359839999999999
1629456592778,-0.261751,0.150121,0.939461
1629456592788,-0.262544,0.150243,0.94001
1629456592797,-0.263642,0.151768,0.939888
1629456592807,-0.264008,0.151768,0.939522
1629456592816,-0.264008,0.151524,0.940376
1629456592826,-0.264191,0.151524,0.939766
1629456592836,-0.26596,0.15311,0.937692
1629456592845,-0.265777,0.153232,0.935862
1629456592855,-0.266753,0.154269,0.9368989999999999
1629456592864,-0.26779,0.154879,0.936655
1629456592874,-0.268034,0.153842,0.936167
1629456592884,-0.268034,0.154025,0.93574
1629456592893,-0.267729,0.154147,0.937326
1629456592903,-0.267058,0.154757,0.936838
1629456592912,-0.266997,0.155306,0.937143
1629456592922,-0.26839999999999997,0.156038,0.9365939999999999
1629456592932,-0.268339,0.155855,0.93635
1629456592941,-0.267485,0.156465,0.935557
1629456592951,-0.267729,0.156465,0.936045
1629456592960,-0.268644,0.156465,0.936411
1629456592970,-0.26779,0.156099,0.9365939999999999
1629456592980,-0.267241,0.156892,0.935557
1629456592989,-0.267241,0.157319,0.9347639999999999
1629456592999,-0.268278,0.157502,0.9333
1629456593008,-0.267485,0.158173,0.9329339999999999
1629456593018,-0.266753,0.158966,0.9335439999999999
1629456593028,-0.267058,0.15823399999999999,0.935557
1629456593037,-0.268034,0.156587,0.936411
1629456593047,-0.267668,0.155855,0.937448
1629456593056,-0.265838,0.154635,0.937448
1629456593066,-0.264557,0.15481799999999998,0.93696
1629456593076,-0.265594,0.156282,0.935801
1629456593085,-0.265472,0.155855,0.934398
1629456593095,-0.266997,0.154635,0.93635
1629456593104,-0.266204,0.154025,0.9365939999999999
1629456593114,-0.265716,0.15237799999999999,0.936655
1629456593124,-0.265594,0.152622,0.9378139999999999
1629456593133,-0.265411,0.15067,0.939766
1629456593143,-0.265228,0.152561,0.9394
1629456593152,-0.265655,0.153415,0.937631
1629456593162,-0.266814,0.154757,0.93635
1629456593172,-0.266997,0.155794,0.936472
1629456593181,-0.267851,0.15512299999999998,0.936045
1629456593191,-0.268034,0.153537,0.9338489999999999
1629456593200,-0.266997,0.15512299999999998,0.934032
1629456593210,-0.266997,0.153659,0.935313
1629456593220,-0.266143,0.152561,0.935313
1629456593229,-0.265472,0.153537,0.9344589999999999
1629456593239,-0.26535,0.15494,0.9378139999999999
1629456593248,-0.265716,0.153781,0.936838
1629456593258,-0.266814,0.152256,0.935191
1629456593268,-0.267485,0.152134,0.937326
1629456593277,-0.267668,0.153171,0.9384239999999999
1629456593287,-0.26779,0.154879,0.93879
1629456593296,-0.268156,0.156709,0.939827
1629456593306,-0.27022999999999997,0.15738,0.938729
1629456593316,-0.270657,0.157441,0.937082
1629456593325,-0.270901,0.158356,0.935313
1629456593335,-0.269864,0.155733,0.934215
1629456593344,-0.270047,0.15481799999999998,0.934398
1629456593354,-0.269376,0.154635,0.9344589999999999
1629456593364,-0.270474,0.155184,0.935435
1629456593373,-0.27114499999999997,0.154696,0.9362889999999999
1629456593383,-0.270718,0.154635,0.936716
1629456593392,-0.270413,0.15494,0.936838
1629456593402,-0.271206,0.155245,0.937143
1629456593412,-0.271084,0.154269,0.939278
1629456593421,-0.270474,0.153964,0.938973
1629456593431,-0.270962,0.153537,0.938546
1629456593440,-0.271023,0.154574,0.939217
1629456593450,-0.26961999999999997,0.15433,0.938241
1629456593460,-0.268278,0.155001,0.937997
1629456593469,-0.26931499999999997,0.153232,0.936106
1629456593479,-0.271084,0.155672,0.9362889999999999
1629456593488,-0.269254,0.158722,0.936777
1629456593498,-0.269437,0.15982,0.936167
1629456593508,-0.268766,0.159393,0.933361
1629456593517,-0.268156,0.157136,0.931897
1629456593527,-0.268583,0.155733,0.930006
1629456593536,-0.267729,0.154452,0.931348
1629456593546,-0.267668,0.153842,0.934215
1629456593556,-0.268522,0.153659,0.937631
1629456593565,-0.268949,0.153354,0.937082
1629456593575,-0.27053499999999997,0.152805,0.937936
1629456593584,-0.271023,0.15189,0.938241
1629456593594,-0.271511,0.153354,0.938058
1629456593604,-0.271694,0.15390299999999998,0.937448
1629456593613,-0.272243,0.155184,0.936472
1629456593623,-0.27266999999999997,0.156953,0.936472
1629456593632,-0.273097,0.156892,0.935923
1629456593642,-0.273402,0.156892,0.937143
1629456593652,-0.272792,0.15677,0.936472
1629456593661,-0.272731,0.157685,0.93696
1629456593671,-0.273524,0.158295,0.937326
1629456593680,-0.273768,0.15823399999999999,0.937326
1629456593690,-0.272609,0.159881,0.93757
1629456593700,-0.271633,0.158966,0.9365939999999999
1629456593709,-0.271572,0.16036899999999998,0.935557
1629456593719,-0.271206,0.160613,0.935313
1629456593728,-0.27083999999999997,0.160796,0.934093
1629456593738,-0.269986,0.16128399999999998,0.93391
1629456593748,-0.269132,0.160552,0.9329339999999999
1629456593757,-0.268034,0.161528,0.9335439999999999
1629456593767,-0.268217,0.162077,0.9329339999999999
1629456593776,-0.268156,0.161589,0.93208
1629456593786,-0.26931499999999997,0.16226,0.931836
1629456593796,-0.268583,0.163114,0.9326289999999999
1629456593805,-0.269437,0.163175,0.932751
1629456593815,-0.268583,0.163236,0.933605
1629456593824,-0.270047,0.164334,0.933727
1629456593834,-0.27053499999999997,0.162382,0.9317139999999999
1629456593844,-0.269681,0.160613,0.935252
1629456593853,-0.27053499999999997,0.159576,0.934032
1629456593863,-0.270962,0.16165,0.933117
1629456593872,-0.270291,0.16128399999999998,0.93391
1629456593882,-0.26992499999999997,0.16165,0.933971
1629456593892,-0.270108,0.161772,0.933605
1629456593901,-0.269193,0.161345,0.931348
1629456593911,-0.270047,0.16067399999999998,0.930372
1629456593920,-0.269986,0.161467,0.928725
1629456593930,-0.270108,0.159942,0.92903
1629456593940,-0.270108,0.159881,0.929701
1629456593949,-0.271267,0.161223,0.931531
1629456593959,-0.271877,0.160247,0.9332389999999999
1629456593968,-0.271999,0.160796,0.9347639999999999
1629456593978,-0.271572,0.161711,0.936838
1629456593988,-0.272548,0.162504,0.938058
1629456593997,-0.27266999999999997,0.160308,0.938912
1629456594007,-0.273646,0.157685,0.940071
1629456594016,-0.271267,0.153964,0.938973
1629456594026,-0.268827,0.15298799999999999,0.93879
1629456594036,-0.267729,0.151768,0.939461
1629456594045,-0.267241,0.151829,0.940254
1629456594055,-0.266814,0.15067,0.939156
1629456594064,-0.268034,0.151463,0.937326
1629456594074,-0.268339,0.151219,0.93574
1629456594084,-0.268461,0.15237799999999999,0.936106
1629456594093,-0.268522,0.152622,0.936045
1629456594103,-0.267912,0.15207299999999999,0.9372039999999999
1629456594112,-0.26839999999999997,0.152195,0.938912
1629456594122,-0.26809499999999997,0.151402,0.9381189999999999
1629456594132,-0.267912,0.151646,0.9375089999999999
1629456594141,-0.266875,0.15207299999999999,0.937448
1629456594151,-0.266814,0.152866,0.93696
1629456594160,-0.266082,0.152744,0.936777
1629456594170,-0.266204,0.15311,0.937692
1629456594180,-0.266326,0.154452,0.937021
1629456594189,-0.266143,0.15433,0.9359839999999999
1629456594199,-0.266387,0.155916,0.935557
1629456594208,-0.265228,0.156465,0.9359839999999999
1629456594218,-0.266021,0.154696,0.934398
1629456594228,-0.267668,0.15677,0.935801
1629456594237,-0.266509,0.15921,0.937997
1629456594247,-0.266204,0.159515,0.938485
1629456594256,-0.266082,0.15792899999999999,0.9365939999999999
1629456594266,-0.265533,0.156099,0.935252
1629456594276,-0.265899,0.155184,0.935557
1629456594285,-0.264618,0.154391,0.93635
1629456594295,-0.263459,0.153049,0.937143
1629456594304,-0.264435,0.15372,0.9372039999999999
1629456594314,-0.265777,0.152805,0.937082
1629456594324,-0.266143,0.153964,0.93757
1629456594333,-0.267607,0.152744,0.938546
1629456594343,-0.26718,0.153171,0.940376
1629456594352,-0.26839999999999997,0.15390299999999998,0.939034
1629456594362,-0.268461,0.154574,0.939217
1629456594372,-0.268888,0.15372,0.939156
1629456594381,-0.26839999999999997,0.154269,0.938302
1629456594391,-0.268034,0.153354,0.936655
1629456594400,-0.267973,0.154147,0.9365939999999999
1629456594410,-0.267546,0.154391,0.937082
1629456594420,-0.268339,0.155245,0.9381189999999999
1629456594429,-0.268827,0.156282,0.938058
1629456594439,-0.268583,0.156648,0.93635
1629456594448,-0.268583,0.156831,0.9368989999999999
1629456594458,-0.269132,0.155733,0.937936
1629456594468,-0.268034,0.15481799999999998,0.937875
1629456594477,-0.268888,0.15555,0.938912
1629456594487,-0.268278,0.15555,0.937082
1629456594496,-0.268217,0.157502,0.935435
1629456594506,-0.267546,0.157197,0.934215
1629456594516,-0.266814,0.158173,0.934642
1629456594525,-0.26657,0.15921,0.933056
1629456594535,-0.266692,0.159393,0.93391
1629456594544,-0.26718,0.158661,0.934703
1629456594554,-0.267302,0.158478,0.934337
1629456594564,-0.266326,0.1586,0.9333
1629456594573,-0.266387,0.159576,0.933483
1629456594583,-0.266387,0.158295,0.93452
1629456594592,-0.266997,0.158173,0.9362889999999999
1629456594602,-0.266631,0.157319,0.935191
1629456594612,-0.267363,0.157502,0.937326
1629456594621,-0.265899,0.156648,0.9384239999999999
1629456594631,-0.266814,0.155794,0.9394
1629456594640,-0.267607,0.156038,0.938058
1629456594650,-0.266875,0.156038,0.9378139999999999
1629456594660,-0.267668,0.156526,0.9375089999999999
1629456594669,-0.26718,0.157136,0.937875
1629456594679,-0.267729,0.158478,0.936472
1629456594688,-0.268522,0.159515,0.935923
1629456594698,-0.268766,0.160247,0.934703
1629456594708,-0.268522,0.160552,0.93513
1629456594717,-0.26900999999999997,0.16097899999999998,0.934581
1629456594727,-0.268827,0.158966,0.935252
1629456594736,-0.267851,0.159088,0.935923
1629456594746,-0.267424,0.157502,0.9368989999999999
1629456594756,-0.268461,0.157807,0.9381189999999999
1629456594765,-0.26718,0.156892,0.937875
1629456594775,-0.266692,0.156587,0.936472
1629456594784,-0.266448,0.156221,0.937265
1629456594794,-0.265716,0.157258,0.938912
1629456594804,-0.265655,0.15884399999999999,0.939034
1629456594813,-0.266814,0.159637,0.938851
1629456594823,-0.266814,0.161162,0.937631
1629456594832,-0.265533,0.161711,0.936411
1629456594842,-0.265533,0.161772,0.935191
1629456594852,-0.265167,0.161101,0.9356789999999999
1629456594861,-0.264618,0.162565,0.936228
1629456594871,-0.264191,0.162626,0.936106
1629456594880,-0.264557,0.162626,0.935618
1629456594890,-0.264252,0.16348,0.936167
1629456594900,-0.262666,0.163358,0.9378139999999999
1629456594909,-0.263032,0.162321,0.936716
1629456594919,-0.263703,0.160918,0.935496
1629456594928,-0.263459,0.158661,0.93391
1629456594938,-0.26291,0.158905,0.934581
1629456594948,-0.263398,0.160857,0.937692
1629456594957,-0.26474,0.16067399999999998,0.938546
1629456594967,-0.264557,0.161711,0.939217
1629456594976,-0.265167,0.162504,0.9384239999999999
1629456594986,-0.265045,0.161955,0.936411
1629456594996,-0.264557,0.160857,0.935496
1629456595005,-0.264435,0.161345,0.935435
1629456595015,-0.265716,0.160735,0.934642
1629456595024,-0.264374,0.16226,0.934276
1629456595034,-0.265106,0.163236,0.935557
1629456595044,-0.266509,0.163663,0.937326
1629456595053,-0.266692,0.162626,0.93696
1629456595063,-0.266631,0.162321,0.93757
1629456595072,-0.267912,0.163297,0.935923
1629456595082,-0.268461,0.164944,0.9362889999999999
1629456595092,-0.268278,0.166774,0.937021
1629456595101,-0.268217,0.167628,0.934337
1629456595111,-0.266631,0.168238,0.9341539999999999
1629456595120,-0.264374,0.167323,0.937326
1629456595130,-0.264679,0.166286,0.937021
1629456595140,-0.266631,0.165737,0.935008
1629456595149,-0.267607,0.16897,0.93452
1629456595159,-0.267607,0.172874,0.93513
1629456595168,-0.267546,0.17360599999999998,0.9341539999999999
1629456595178,-0.268644,0.174094,0.93391
1629456595188,-0.267912,0.172508,0.932263
1629456595197,-0.26961999999999997,0.172325,0.929762
1629456595207,-0.270718,0.173118,0.9298839999999999
1629456595216,-0.270962,0.174094,0.930982
1629456595226,-0.272304,0.173545,0.931592
1629456595236,-0.27327999999999997,0.17324,0.930921
1629456595245,-0.272731,0.17299599999999998,0.930555
1629456595255,-0.273036,0.172264,0.93147
1629456595264,-0.273646,0.171654,0.929823
1629456595274,-0.275354,0.172569,0.92964
1629456595284,-0.276513,0.17238599999999998,0.930128
1629456595293,-0.277855,0.172874,0.9323239999999999
1629456595303,-0.27938,0.172874,0.932446
1629456595312,-0.278953,0.17324,0.930128
1629456595322,-0.280295,0.172935,0.927627
1629456595332,-0.281759,0.17263,0.928237
1629456595341,-0.282308,0.173789,0.930372
1629456595351,-0.281088,0.173484,0.932568
1629456595360,-0.281698,0.173728,0.933422
1629456595370,-0.28121,0.17330099999999998,0.933117
1629456595380,-0.281393,0.17263,0.932263
1629456595389,-0.281271,0.17116599999999998,0.932812
1629456595399,-0.280844,0.17055599999999999,0.9320189999999999
1629456595408,-0.281088,0.171715,0.930311
1629456595418,-0.281088,0.171837,0.928603
1629456595428,-0.27938,0.170678,0.929762
1629456595437,-0.278587,0.17055599999999999,0.9298839999999999
1629456595447,-0.27816,0.171044,0.930067
1629456595456,-0.279014,0.171715,0.929091
1629456595466,-0.279685,0.170068,0.929762
1629456595476,-0.279746,0.17055599999999999,0.9301889999999999
1629456595485,-0.279014,0.170434,0.930738
1629456595495,-0.27999,0.169885,0.930372
1629456595504,-0.278465,0.167201,0.930921
1629456595514,-0.278953,0.166713,0.9304939999999999
1629456595524,-0.279136,0.164578,0.9311039999999999
1629456595533,-0.279685,0.164761,0.930982
1629456595543,-0.27938,0.167018,0.93025
1629456595552,-0.279075,0.168238,0.9292739999999999
1629456595562,-0.279014,0.167628,0.930982
1629456595572,-0.278526,0.166774,0.931653
1629456595581,-0.279441,0.166469,0.931836
1629456595591,-0.27938,0.16622499999999998,0.931958
1629456595600,-0.279685,0.16591999999999998,0.930433
1629456595610,-0.280356,0.165554,0.930006
1629456595620,-0.280051,0.164822,0.931287
1629456595629,-0.280234,0.167262,0.932141
1629456595639,-0.280539,0.169336,0.930372
1629456595648,-0.28121,0.169641,0.9311039999999999
1629456595658,-0.280783,0.16836,0.931531
1629456595668,-0.279868,0.168116,0.931531
1629456595677,-0.28041699999999997,0.16652999999999998,0.9307989999999999
1629456595687,-0.27938,0.165432,0.930616
1629456595696,-0.279502,0.166652,0.931958
1629456595706,-0.281393,0.168238,0.93086
1629456595716,-0.28182,0.1708,0.930555
1629456595725,-0.281088,0.17116599999999998,0.933422
1629456595735,-0.279624,0.17147099999999998,0.9333
1629456595744,-0.281393,0.17141,0.929152
1629456595754,-0.282003,0.170434,0.929518
1629456595764,-0.281393,0.167933,0.928725
1629456595773,-0.280905,0.168177,0.930555
1629456595783,-0.28182,0.168055,0.930982
1629456595792,-0.28182,0.168116,0.931592
1629456595802,-0.280234,0.16744499999999998,0.93391
1629456595812,-0.28102699999999997,0.168177,0.931836
1629456595821,-0.280173,0.167994,0.931165
1629456595831,-0.27999,0.167933,0.930128
1629456595840,-0.279563,0.169214,0.928481
1629456595850,-0.278831,0.169824,0.930128
1629456595860,-0.277489,0.169031,0.9333
1629456595869,-0.279014,0.170495,0.931226
1629456595879,-0.280295,0.173362,0.9292739999999999
1629456595888,-0.279868,0.172203,0.930311
1629456595898,-0.279258,0.172935,0.9311039999999999
1629456595908,-0.278953,0.174277,0.930921
1629456595917,-0.27755,0.174338,0.932385
1629456595927,-0.277794,0.176168,0.931043
1629456595936,-0.277916,0.177815,0.930433
1629456595946,-0.278038,0.177998,0.930677
1629456595956,-0.277367,0.177876,0.930067
1629456595965,-0.276269,0.176595,0.9307989999999999
1629456595975,-0.276025,0.174338,0.93269
1629456595984,-0.277062,0.174826,0.935618
1629456595994,-0.277306,0.179828,0.9338489999999999
1629456596004,-0.278648,0.181231,0.9295789999999999
1629456596013,-0.27877,0.183122,0.927505
1629456596023,-0.277184,0.181658,0.925431
1629456596032,-0.277672,0.180255,0.925126
1629456596042,-0.278038,0.180682,0.924577
1629456596052,-0.277245,0.179218,0.926773
1629456596061,-0.27877,0.180194,0.929152
1629456596071,-0.28011199999999997,0.183915,0.926712
1629456596080,-0.282186,0.185257,0.9246989999999999
1629456596090,-0.282918,0.18666,0.926102
1629456596100,-0.281759,0.183854,0.928908
1629456596109,-0.283284,0.186477,0.931226
1629456596119,-0.285053,0.1891,0.93269
1629456596128,-0.287554,0.195017,0.927078
1629456596138,-0.293837,0.203252,0.927078
1629456596148,-0.29273899999999997,0.193309,0.935862
1629456596157,-0.285785,0.17934,0.949465
1629456596167,-0.281576,0.17299599999999998,0.950319
1629456596176,-0.282186,0.17507,0.950441
1629456596186,-0.282186,0.177449,0.945744
1629456596196,-0.282918,0.180438,0.935618
1629456596205,-0.283406,0.185562,0.934398
1629456596215,-0.287493,0.19117399999999998,0.929152
1629456596224,-0.28853,0.196054,0.924333
1629456596234,-0.291458,0.203374,0.923601
1629456596244,-0.29273899999999997,0.208376,0.923601
1629456596253,-0.292678,0.21520799999999998,0.9243939999999999
1629456596263,-0.295972,0.21923399999999998,0.919941
1629456596272,-0.298412,0.223992,0.915732
1629456596282,-0.299449,0.22875,0.902983
1629456596292,-0.299998,0.234972,0.891759
1629456596301,-0.299632,0.240828,0.886208
1629456596311,-0.299022,0.244122,0.886818
1629456596320,-0.301828,0.247782,0.887062
1629456596330,-0.307928,0.250344,0.886147
1629456596340,-0.314211,0.257359,0.8873059999999999
1629456596349,-0.31903,0.268766,0.887184
1629456596359,-0.327387,0.281088,0.889319
1629456596368,-0.33488999999999997,0.291336,0.888892
1629456596378,-0.340014,0.298168,0.886574
1629456596388,-0.345504,0.30256,0.883158
1629456596397,-0.350933,0.308782,0.881328
1629456596407,-0.354105,0.313601,0.884134
1629456596416,-0.361364,0.320006,0.881755
1629456596426,-0.365634,0.324276,0.877973
1629456596436,-0.363987,0.328668,0.873703
1629456596445,-0.359473,0.324886,0.871568
1629456596455,-0.361059,0.312991,0.86681
1629456596464,-0.363865,0.304268,0.8614419999999999
1629456596474,-0.366915,0.30134,0.8651019999999999
1629456596484,-0.370392,0.303353,0.863089
1629456596493,-0.371917,0.30567099999999997,0.854671
1629456596503,-0.3721,0.311893,0.8461919999999999
1629456596512,-0.37393,0.32147,0.834236
1629456596522,-0.374967,0.33427999999999997,0.822097
1629456596532,-0.379725,0.339404,0.821853
1629456596541,-0.380701,0.336293,0.822036
1629456596551,-0.384483,0.333182,0.830271
1629456596560,-0.386862,0.334158,0.835151
1629456596570,-0.392047,0.3355,0.826184
1629456596580,-0.399489,0.338611,0.81862
1629456596589,-0.400709,0.343796,0.827526
1629456596599,-0.402661,0.348737,0.839116
1629456596608,-0.40028199999999997,0.346785,0.8401529999999999
1629456596618,-0.401136,0.34648,0.842105
1629456596628,-0.399855,0.347456,0.845399
1629456596637,-0.399306,0.352153,0.848144
1629456596647,-0.40150199999999997,0.350994,0.846924
1629456596656,-0.399855,0.351543,0.846924
1629456596666,-0.402051,0.350262,0.839116
1629456596676,-0.40119699999999997,0.35258,0.834907
1629456596685,-0.402905,0.355386,0.832894
1629456596695,-0.400465,0.354715,0.8264279999999999
1629456596704,-0.402051,0.357643,0.822585
1629456596714,-0.399123,0.35892399999999997,0.821548
1629456596724,-0.393938,0.354532,0.82472
1629456596733,-0.397781,0.34953,0.83448
1629456596743,-0.397598,0.348798,0.8358829999999999
1629456596752,-0.401075,0.35373899999999997,0.840946
1629456596762,-0.402539,0.356362,0.84546
1629456596772,-0.40199,0.358558,0.8489369999999999
1629456596781,-0.400343,0.361181,0.850096
1629456596791,-0.399794,0.364963,0.850645
1629456596800,-0.40424699999999997,0.365512,0.843447
1629456596810,-0.407846,0.366915,0.834724
1629456596820,-0.414678,0.371429,0.829295
1629456596829,-0.413946,0.380152,0.828075
1629456596839,-0.407175,0.388814,0.828746
1629456596848,-0.400831,0.385947,0.828441
1629456596858,-0.396195,0.38308,0.824049
1629456596868,-0.391559,0.369294,0.818742
1629456596877,-0.38856999999999997,0.36295,0.816729
1629456596887,-0.386557,0.35868,0.811971
1629456596896,-0.385886,0.365939,0.808921
1629456596906,-0.385215,0.366305,0.804712
1629456596916,-0.385459,0.36911099999999997,0.809226
1629456596925,-0.386801,0.369782,0.812398
1629456596935,-0.38978999999999997,0.376736,0.805078
1629456596944,-0.392657,0.381677,0.792451
1629456596954,-0.392779,0.392718,0.779824
1629456596964,-0.39558499999999996,0.393206,0.783301
1629456596973,-0.397781,0.387167,0.798978
1629456596983,-0.392108,0.377407,0.8097139999999999
1629456596992,-0.398391,0.391742,0.797514
1629456597002,-0.399733,0.391742,0.788852
1629456597012,-0.406504,0.400526,0.782996
1629456597021,-0.405345,0.402051,0.786473
1629456597031,-0.40455199999999997,0.395463,0.799893
1629456597040,-0.404613,0.37685799999999997,0.822097
1629456597050,-0.408395,0.36819599999999997,0.839177
1629456597060,-0.41229899999999997,0.361242,0.8492419999999999
1629456597069,-0.418826,0.36758599999999997,0.849608
1629456597079,-0.42340099999999997,0.374235,0.846924
1629456597088,-0.425597,0.380579,0.844911
1629456597098,-0.42919599999999997,0.388143,0.836737
1629456597108,-0.435296,0.391742,0.821243
1629456597117,-0.438346,0.403515,0.8052
1629456597127,-0.441335,0.413885,0.789706
1629456597136,-0.445666,0.421998,0.775066
1629456597146,-0.448411,0.42950099999999997,0.767624
1629456597156,-0.447801,0.434869,0.771833
1629456597165,-0.447191,0.43981,0.780129
1629456597175,-0.446215,0.442189,0.784094
1629456597184,-0.448228,0.443409,0.7872049999999999
1629456597194,-0.448777,0.440786,0.787144
1629456597204,-0.44273799999999996,0.430172,0.788608
1629456597213,-0.44103,0.428708,0.7832399999999999
1629456597223,-0.443226,0.434442,0.76433
1629456597232,-0.444812,0.43938299999999997,0.755912
1629456597242,-0.44652,0.441457,0.759877
1629456597252,-0.447008,0.444019,0.764025
1629456597261,-0.445788,0.436882,0.768783
1629456597271,-0.445178,0.430599,0.772748
1629456597280,-0.446703,0.42767099999999997,0.770735
1629456597290,-0.446947,0.429867,0.767075
1629456597300,-0.447923,0.429745,0.7662209999999999
1629456597309,-0.449509,0.429074,0.764452
1629456597319,-0.450058,0.42858599999999997,0.7646959999999999
1629456597328,-0.449326,0.42639,0.763964
1629456597338,-0.448106,0.428464,0.765977
1629456597348,-0.45200999999999997,0.425719,0.7637809999999999
1629456597357,-0.45383999999999997,0.42395,0.7537159999999999
1629456597367,-0.45231499999999997,0.42822,0.755058
1629456597376,-0.453779,0.42767099999999997,0.759084
1629456597386,-0.45414499999999997,0.424194,0.763842
1629456597396,-0.454816,0.421388,0.76555
1629456597405,-0.455487,0.422974,0.7662209999999999
1629456597415,-0.465979,0.441579,0.765428
1629456597424,-0.455548,0.437919,0.773541
1629456597434,-0.437919,0.392962,0.785314
1629456597444,-0.434564,0.38186,0.80093
1629456597453,-0.436577,0.39314499999999997,0.788364
1629456597463,-0.448228,0.414373,0.773785
1629456597472,-0.450668,0.422242,0.775493
1629456597482,-0.450546,0.424255,0.7792749999999999
1629456597492,-0.451827,0.423828,0.771528
1629456597501,-0.453718,0.42797599999999997,0.761158
1629456597511,-0.457744,0.42431599999999997,0.775432
1629456597520,-0.457073,0.41785,0.788486
1629456597530,-0.45170499999999997,0.416508,0.7899499999999999
1629456597540,-0.461953,0.421754,0.794037
1629456597549,-0.451583,0.425902,0.781532
1629456597559,-0.468663,0.429318,0.7656109999999999
1629456597568,-0.454328,0.42883,0.760975
1629456597578,-0.463905,0.429562,0.765794
1629456597588,-0.457561,0.428647,0.7650009999999999
1629456597597,-0.458537,0.432124,0.762439
1629456597607,-0.457378,0.438346,0.763232
1629456597616,-0.451034,0.43041599999999997,0.774334
1629456597626,-0.456219,0.427732,0.775066
1629456597636,-0.454511,0.42553599999999997,0.765977
1629456597645,-0.457622,0.424438,0.7567659999999999
1629456597655,-0.461099,0.42456,0.7515809999999999
1629456597664,-0.458598,0.43005,0.750178
1629456597674,-0.461709,0.434137,0.753472
1629456597684,-0.46055,0.436821,0.759572
1629456597693,-0.461404,0.440359,0.763903
1629456597703,-0.457256,0.439322,0.76433
1629456597712,-0.454877,0.438224,0.764513
1629456597722,-0.453779,0.435052,0.766404
1629456597732,-0.451949,0.432063,0.762622
1629456597741,-0.453779,0.430172,0.7543259999999999
1629456597751,-0.457378,0.43249,0.751642
1629456597760,-0.46036699999999997,0.437004,0.754143
1629456597770,-0.460428,0.437065,0.75823
1629456597780,-0.462685,0.431758,0.75213
1629456597789,-0.460611,0.443226,0.744444
1629456597799,-0.458659,0.447313,0.746396
1629456597808,-0.455426,0.447801,0.7521909999999999
1629456597818,-0.451217,0.442677,0.7564
1629456597828,-0.44773999999999997,0.43846799999999997,0.756644
1629456597837,-0.445178,0.43859,0.756339
1629456597847,-0.442555,0.442677,0.762317
1629456597856,-0.439627,0.446703,0.767685
1629456597866,-0.43663799999999997,0.444873,0.774334
1629456597876,-0.43755299999999997,0.439932,0.781654
1629456597885,-0.4331,0.429745,0.792146
1629456597895,-0.431514,0.415898,0.7905599999999999
1629456597904,-0.43724799999999997,0.414678,0.781166
1629456597914,-0.43694299999999997,0.420778,0.776591
1629456597924,-0.442067,0.431575,0.771406
1629456597933,-0.451766,0.442372,0.7610359999999999
1629456597943,-0.450424,0.452376,0.770796
1629456597952,-0.452742,0.459208,0.775676
1629456597962,-0.446886,0.44895999999999997,0.779214
1629456597972,-0.441701,0.436516,0.785802
1629456597981,-0.440237,0.434747,0.779458
1629456597991,-0.436577,0.41138399999999997,0.780983
1629456598000,-0.437187,0.41168899999999997,0.788974
1629456598010,-0.439444,0.419985,0.779153
1629456598020,-0.444141,0.428647,0.770857
1629456598029,-0.44712999999999997,0.433527,0.765184
1629456598039,-0.448838,0.438956,0.759877
1629456598048,-0.449021,0.445605,0.756827
1629456598058,-0.44804499999999997,0.445971,0.757193
1629456598068,-0.449021,0.444141,0.76189
1629456598077,-0.448777,0.440786,0.761829
1629456598087,-0.445971,0.440176,0.762622
1629456598096,-0.444751,0.433222,0.771284
1629456598106,-0.44365299999999996,0.42639,0.77165
1629456598116,-0.443165,0.427183,0.770491
1629456598125,-0.442494,0.430904,0.769454
1629456598135,-0.44408,0.434381,0.7677459999999999
1629456598144,-0.44456799999999996,0.43816299999999997,0.765733
1629456598154,-0.444202,0.433832,0.770613
1629456598164,-0.440481,0.424987,0.776896
1629456598173,-0.441701,0.424499,0.7814099999999999
1629456598183,-0.439322,0.42822,0.777323
1629456598192,-0.44090799999999997,0.42919599999999997,0.772504
1629456598202,-0.44090799999999997,0.43066,0.772626
1629456598212,-0.437187,0.433649,0.773541
1629456598221,-0.44029799999999997,0.435235,0.774883
1629456598231,-0.439749,0.434564,0.776408
1629456598240,-0.433893,0.4331,0.7746999999999999
1629456598250,-0.433771,0.42797599999999997,0.776347
1629456598260,-0.431453,0.431819,0.778848
1629456598269,-0.437431,0.419863,0.788242
1629456598279,-0.430965,0.41534899999999997,0.787693
1629456598288,-0.43163599999999996,0.419558,0.776713
1629456598298,-0.431514,0.425475,0.770796
1629456598308,-0.43371,0.427793,0.770796
1629456598317,-0.43554,0.43188,0.772382
1629456598327,-0.433649,0.432612,0.774883
1629456598336,-0.43633299999999997,0.43194099999999996,0.7746999999999999
1629456598346,-0.437614,0.429318,0.7753099999999999
1629456598356,-0.4392,0.428952,0.7774449999999999
1629456598365,-0.435845,0.42736599999999997,0.779214
1629456598375,-0.439322,0.426329,0.778177
1629456598384,-0.439932,0.424682,0.778787
1629456598394,-0.439871,0.42456,0.779031
1629456598404,-0.43968799999999997,0.42523099999999997,0.778299
1629456598413,-0.442921,0.425963,0.780251
1629456598423,-0.444324,0.427244,0.781349
1629456598432,-0.442677,0.427305,0.779519
1629456598442,-0.444446,0.427549,0.778482
1629456598452,-0.445849,0.425048,0.777323
1629456598461,-0.442982,0.42395,0.774639
1629456598471,-0.446276,0.42334,0.77226
1629456598480,-0.446459,0.424133,0.774151
1629456598490,-0.444446,0.425597,0.774334
1629456598500,-0.445544,0.425048,0.776774
1629456598509,-0.443409,0.42858599999999997,0.774944
1629456598519,-0.443897,0.427305,0.772626
1629456598528,-0.445422,0.42456,0.774456
1629456598538,-0.440542,0.42340099999999997,0.774456
1629456598548,-0.442494,0.42462099999999997,0.772992
1629456598557,-0.444934,0.425353,0.774273
1629456598567,-0.443531,0.42578,0.77226
1629456598576,-0.446276,0.423523,0.773358
1629456598586,-0.443775,0.425048,0.772992
1629456598596,-0.447557,0.426817,0.774029
1629456598605,-0.44743499999999997,0.427305,0.777262
1629456598615,-0.447557,0.42736599999999997,0.7777499999999999
1629456598624,-0.448289,0.42395,0.7759199999999999
1629456598634,-0.444934,0.421571,0.771711
1629456598644,-0.445788,0.42029,0.77409
1629456598653,-0.443287,0.41961899999999996,0.776652
1629456598663,-0.446032,0.419131,0.777994
1629456598672,-0.44304299999999996,0.419192,0.779214
1629456598682,-0.445422,0.418826,0.778482
1629456598692,-0.447496,0.420595,0.776164
1629456598701,-0.44773999999999997,0.419863,0.772687
1629456598711,-0.448289,0.417118,0.768905
1629456598720,-0.44956999999999997,0.417118,0.772077
1629456598730,-0.449021,0.41900899999999996,0.776164
1629456598740,-0.450668,0.41717899999999997,0.7777499999999999
1629456598749,-0.450668,0.418521,0.777811
1629456598759,-0.447923,0.418277,0.7780549999999999
1629456598768,-0.448777,0.420595,0.7783599999999999
1629456598778,-0.44956999999999997,0.41968,0.779946
1629456598788,-0.449204,0.417545,0.778482
1629456598797,-0.449143,0.41724,0.777628
1629456598807,-0.449021,0.419558,0.775371
1629456598816,-0.449082,0.417362,0.775737
1629456598826,-0.447008,0.41419,0.773358
1629456598836,-0.447618,0.41541,0.7746999999999999
1629456598845,-0.44865499999999997,0.41907,0.775493
1629456598855,-0.450668,0.422791,0.776713
1629456598864,-0.449997,0.421815,0.777323
1629456598874,-0.448228,0.419131,0.777323
1629456598884,-0.446764,0.41565399999999997,0.775798
1629456598893,-0.446398,0.413763,0.773358
1629456598903,-0.445422,0.41358,0.77409
1629456598912,-0.444751,0.41321399999999997,0.775554
1629456598922,-0.445483,0.416386,0.7795799999999999
1629456598932,-0.442921,0.414983,0.780922
1629456598941,-0.444446,0.414556,0.7795799999999999
1629456598951,-0.443104,0.413153,0.7820199999999999
1629456598960,-0.44426299999999996,0.411811,0.784338
1629456598970,-0.444995,0.410713,0.785009
1629456598980,-0.444446,0.412177,0.784948
1629456598989,-0.445849,0.41260399999999997,0.781898
1629456598999,-0.44773999999999997,0.413458,0.780434
1629456599008,-0.446276,0.415288,0.780373
1629456599018,-0.447923,0.416813,0.781227
1629456599028,-0.448228,0.417911,0.780617
1629456599037,-0.44591,0.416508,0.779946
1629456599047,-0.446154,0.41663,0.780678
1629456599056,-0.44456799999999996,0.41565399999999997,0.780739
1629456599066,-0.444385,0.415715,0.781471
1629456599076,-0.444812,0.414495,0.781837
1629456599085,-0.443592,0.413458,0.781471
1629456599095,-0.443714,0.41321399999999997,0.782752
1629456599104,-0.44426299999999996,0.411872,0.783118
1629456599114,-0.44334799999999996,0.412177,0.779519
1629456599124,-0.44243299999999997,0.414068,0.780678
1629456599133,-0.44365299999999996,0.413153,0.781044
1629456599143,-0.444324,0.411323,0.779092
1629456599152,-0.442799,0.41358,0.7771399999999999
1629456599162,-0.44395799999999996,0.413092,0.7777499999999999
1629456599172,-0.4453,0.412543,0.7798849999999999
1629456599181,-0.44243299999999997,0.411628,0.779946
1629456599191,-0.442311,0.410286,0.781044
1629456599200,-0.443775,0.41107899999999997,0.779763
1629456599210,-0.442006,0.41053,0.777628
1629456599220,-0.442006,0.408639,0.780007
1629456599229,-0.44164,0.409127,0.7853749999999999
1629456599239,-0.444202,0.408944,0.7850699999999999
1629456599248,-0.444141,0.411262,0.783301
1629456599258,-0.444507,0.41199399999999997,0.785436
1629456599268,-0.448777,0.415715,0.7865949999999999
1629456599277,-0.447862,0.41992399999999996,0.786046
1629456599287,-0.447374,0.42022899999999996,0.784887
1629456599296,-0.446276,0.418216,0.784643
1629456599306,-0.446886,0.417423,0.784582
1629456599316,-0.445239,0.415288,0.785741
1629456599325,-0.442494,0.412543,0.7868999999999999
1629456599335,-0.442006,0.411872,0.784521
1629456599344,-0.442494,0.41114,0.783423
1629456599354,-0.441335,0.41199399999999997,0.781898
1629456599364,-0.440847,0.412726,0.779641
1629456599373,-0.440054,0.411262,0.7792749999999999
1629456599383,-0.444019,0.410347,0.779092
1629456599392,-0.442494,0.410713,0.780434
1629456599402,-0.444446,0.410652,0.780739
1629456599412,-0.442006,0.411262,0.773907
1629456599421,-0.440359,0.409676,0.774151
1629456599431,-0.440115,0.40687,0.784216
1629456599440,-0.440054,0.40607699999999997,0.790011
1629456599450,-0.432734,0.398269,0.783911
1629456599460,-0.44804499999999997,0.41199399999999997,0.799771
1629456599469,-0.430233,0.395829,0.797636
1629456599479,-0.43188,0.402905,0.781288
1629456599488,-0.434015,0.40699199999999996,0.775066
1629456599498,-0.433344,0.406199,0.781593
1629456599508,-0.432856,0.40333199999999997,0.785314
1629456599517,-0.431758,0.401014,0.793183
1629456599527,-0.429013,0.39466999999999997,0.797575
1629456599536,-0.43041599999999997,0.398269,0.796233
1629456599546,-0.429562,0.401136,0.8054439999999999
1629456599556,-0.42584099999999997,0.399184,0.8023939999999999
1629456599565,-0.429562,0.403454,0.795623
1629456599575,-0.429135,0.399184,0.793854
1629456599584,-0.435357,0.407236,0.786046
1629456599594,-0.443165,0.41785,0.798002
1629456599604,-0.42553599999999997,0.412726,0.791292
1629456599613,-0.430233,0.41687399999999997,0.792329
1629456599623,-0.424133,0.403515,0.79788
1629456599632,-0.425048,0.40138,0.8097139999999999
1629456599642,-0.423828,0.401075,0.806115
1629456599652,-0.42431599999999997,0.405711,0.7984289999999999
1629456599661,-0.418765,0.40138,0.794342
1629456599671,-0.427305,0.404674,0.805261
1629456599680,-0.414617,0.392657,0.802455
1629456599690,-0.41839899999999997,0.396195,0.808738
1629456599700,-0.416691,0.393694,0.81313
1629456599709,-0.41724,0.39527999999999996,0.812093
1629456599719,-0.416691,0.39772,0.807152
1629456599728,-0.423523,0.402295,0.808677
1629456599738,-0.420412,0.403454,0.8051389999999999
1629456599748,-0.42517,0.404308,0.801662
1629456599757,-0.424682,0.405589,0.79666
1629456599767,-0.422913,0.405345,0.793183
1629456599776,-0.42334,0.401441,0.792939
1629456599786,-0.423157,0.400831,0.797758
1629456599796,-0.423523,0.401014,0.802577
1629456599805,-0.424438,0.401746,0.8005639999999999
1629456599815,-0.42431599999999997,0.40302699999999997,0.794891
1629456599824,-0.42462099999999997,0.404369,0.7905599999999999
1629456599834,-0.423584,0.40546699999999997,0.786107
1629456599844,-0.427732,0.40668699999999997,0.787144
1629456599853,-0.425048,0.407846,0.784338
1629456599863,-0.429379,0.409554,0.7872049999999999
1629456599872,-0.430294,0.413946,0.7878149999999999
1629456599882,-0.429684,0.4148,0.784094
1629456599892,-0.432978,0.41504399999999997,0.783179
1629456599901,-0.430233,0.41602,0.7820199999999999
1629456599911,-0.429928,0.41687399999999997,0.782386
1629456599920,-0.427732,0.4148,0.782874
1629456599930,-0.427427,0.411933,0.785558
1629456599940,-0.428098,0.41260399999999997,0.789218
1629456599949,-0.426634,0.41138399999999997,0.7865949999999999
1629456599959,-0.424743,0.409066,0.7820199999999999
1629456599968,-0.43224599999999996,0.416447,0.789523
1629456599978,-0.42706099999999997,0.411506,0.786412
1629456599988,-0.431453,0.41358,0.787693
1629456599997,-0.42919599999999997,0.41358,0.790133
1629456600007,-0.432673,0.413885,0.791048
1629456600016,-0.433039,0.417728,0.792512
1629456600026,-0.43493,0.419131,0.793
1629456600036,-0.434137,0.418582,0.791841
1629456600045,-0.432856,0.417301,0.7914749999999999
1629456600055,-0.434137,0.41846,0.790316
1629456600064,-0.434198,0.41663,0.790682
1629456600074,-0.432185,0.414556,0.792817
1629456600084,-0.43011099999999997,0.411506,0.790377
1629456600093,-0.43005,0.412238,0.788303
1629456600103,-0.429562,0.41199399999999997,0.791048
1629456600112,-0.43005,0.411933,0.791414
1629456600122,-0.429684,0.411445,0.789706
1629456600132,-0.42858599999999997,0.41199399999999997,0.788547
1629456600141,-0.42761,0.411811,0.789096
1629456600151,-0.428037,0.412543,0.790194
1629456600160,-0.427732,0.411323,0.791414
1629456600170,-0.42858599999999997,0.414312,0.795745
1629456600180,-0.429867,0.414495,0.795257
1629456600189,-0.429013,0.414983,0.792695
1629456600199,-0.43011099999999997,0.412482,0.796111
1629456600208,-0.43072099999999997,0.414251,0.796355
1629456600218,-0.426573,0.412421,0.786412
1629456600228,-0.424377,0.410713,0.783667
1629456600237,-0.423889,0.409432,0.788364
1629456600247,-0.424255,0.4087,0.7920849999999999
1629456600256,-0.424682,0.408334,0.792329
1629456600266,-0.425048,0.407236,0.7902549999999999
1629456600276,-0.424987,0.40992,0.789584
1629456600285,-0.42645099999999997,0.410957,0.789584
1629456600295,-0.42639,0.41199399999999997,0.789218
1629456600304,-0.426024,0.411811,0.788364
1629456600314,-0.425414,0.410774,0.787388
1629456600324,-0.425048,0.409066,0.7881199999999999
1629456600333,-0.425597,0.406016,0.790377
1629456600343,-0.42578,0.408029,0.791353
1629456600352,-0.426634,0.411262,0.792207
1629456600362,-0.426329,0.409981,0.794647
1629456600372,-0.425292,0.408334,0.795684
1629456600381,-0.424377,0.40241699999999997,0.797514
1629456600391,-0.424072,0.400526,0.795928
1629456600400,-0.423462,0.39955,0.793915
1629456600410,-0.423035,0.400953,0.79361
1629456600420,-0.422974,0.404003,0.79422
1629456600429,-0.424499,0.406504,0.79422
1629456600439,-0.42553599999999997,0.407175,0.794281
1629456600448,-0.425963,0.409188,0.792268
1629456600458,-0.426817,0.40931,0.791719
1629456600468,-0.427854,0.410408,0.793671
1629456600477,-0.428708,0.409676,0.794708
1629456600487,-0.429257,0.411811,0.794647
1629456600496,-0.431453,0.413336,0.7991
1629456600506,-0.434381,0.413763,0.802211
1629456600516,-0.432063,0.411018,0.80154
1629456600525,-0.430538,0.409676,0.801357
1629456600535,-0.427793,0.407114,0.79971
1629456600544,-0.426695,0.405528,0.7993439999999999
1629456600554,-0.426512,0.40607699999999997,0.800442
1629456600564,-0.426695,0.40760199999999996,0.7993439999999999
1629456600573,-0.426634,0.409981,0.795257
1629456600583,-0.424499,0.412238,0.791597
1629456600592,-0.424133,0.411262,0.791536
1629456600602,-0.42456,0.411872,0.7905599999999999
1629456600612,-0.425048,0.410774,0.788974
1629456600621,-0.421998,0.409127,0.790194
1629456600631,-0.42273,0.408944,0.7899499999999999
1629456600640,-0.421998,0.409981,0.792024
1629456600650,-0.422486,0.411262,0.793671
1629456600660,-0.421144,0.410286,0.794281
1629456600669,-0.421327,0.410286,0.795196
1629456600679,-0.421388,0.411506,0.793793
1629456600688,-0.422059,0.412055,0.7917799999999999
1629456600698,-0.422974,0.41358,0.791292
1629456600708,-0.42273,0.41351899999999997,0.792512
1629456600717,-0.42340099999999997,0.41382399999999997,0.794098
1629456600727,-0.424743,0.415227,0.793854
1629456600736,-0.42456,0.41602,0.790621
1629456600746,-0.42370599999999997,0.415532,0.789767
1629456600756,-0.422303,0.415837,0.793061
1629456600765,-0.421815,0.413946,0.792268
1629456600775,-0.421693,0.414556,0.793
1629456600784,-0.422364,0.41443399999999997,0.788059
1629456600794,-0.421083,0.41541,0.786961
1629456600804,-0.421754,0.413641,0.789462
1629456600813,-0.421937,0.414068,0.791536
1629456600823,-0.420778,0.415776,0.7914749999999999
1629456600832,-0.419985,0.421144,0.788242
1629456600842,-0.419558,0.418826,0.791597
1629456600852,-0.419558,0.423462,0.79239
1629456600861,-0.41748399999999997,0.416203,0.799222
1629456600871,-0.416935,0.414312,0.800015
1629456600880,-0.413153,0.414312,0.795196
1629456600890,-0.412665,0.410225,0.796843
1629456600900,-0.413946,0.409249,0.791841
1629456600909,-0.41663,0.41504399999999997,0.789889
1629456600919,-0.418826,0.423889,0.788059
1629456600928,-0.421449,0.42828099999999997,0.786168
1629456600938,-0.423157,0.429013,0.7862899999999999
1629456600948,-0.424987,0.436455,0.792695
1629456600957,-0.422486,0.433893,0.795074
1629456600967,-0.421388,0.42706099999999997,0.79544
1629456600976,-0.419375,0.422242,0.795989
1629456600986,-0.419985,0.41687399999999997,0.7996489999999999
1629456600996,-0.419253,0.415898,0.798612
1629456601005,-0.419497,0.41595899999999997,0.793976
1629456601015,-0.418887,0.414861,0.787388
1629456601024,-0.41961899999999996,0.41443399999999997,0.783118
1629456601034,-0.421022,0.417118,0.779946
1629456601044,-0.422242,0.422181,0.777933
1629456601053,-0.42370599999999997,0.43011099999999997,0.776652
1629456601063,-0.427793,0.431148,0.7786649999999999
1629456601072,-0.429135,0.411811,0.787327
1629456601082,-0.426878,0.40272199999999997,0.793793
1629456601092,-0.429623,0.419497,0.782569
1629456601101,-0.432368,0.424499,0.766343
1629456601111,-0.43255099999999996,0.430843,0.764025
1629456601120,-0.432795,0.432856,0.781532
1629456601130,-0.434686,0.43224599999999996,0.792268
1629456601140,-0.436394,0.431575,0.795257
1629456601149,-0.437004,0.427305,0.792878
1629456601159,-0.43785799999999997,0.434686,0.79605
1629456601168,-0.437492,0.440725,0.794342
1629456601178,-0.437126,0.445666,0.7872049999999999
1629456601188,-0.437126,0.454267,0.7844599999999999
1629456601197,-0.434198,0.451156,0.776774
1629456601207,-0.43127,0.449509,0.768356
1629456601216,-0.427732,0.446642,0.7646959999999999
1629456601226,-0.425902,0.447862,0.763537
1629456601236,-0.426268,0.450973,0.7631709999999999
1629456601245,-0.425414,0.455548,0.7625
1629456601255,-0.425658,0.461526,0.7637809999999999
1629456601264,-0.425048,0.466284,0.765672
1629456601274,-0.426878,0.471408,0.7671359999999999
1629456601284,-0.427488,0.47238399999999997,0.764635
1629456601293,-0.429989,0.475312,0.763842
1629456601303,-0.431697,0.476166,0.7622559999999999
1629456601312,-0.434503,0.47519,0.75884
1629456601322,-0.440664,0.47573899999999997,0.754387
1629456601332,-0.446398,0.481534,0.75091
1629456601341,-0.444202,0.487085,0.750422
1629456601351,-0.439749,0.48501099999999997,0.749446
1629456601360,-0.439139,0.476715,0.7521909999999999
1629456601370,-0.440725,0.474885,0.75457
1629456601380,-0.441274,0.473787,0.7531059999999999
1629456601389,-0.440481,0.476166,0.751032
1629456601399,-0.434442,0.476898,0.748104
1629456601408,-0.428647,0.474702,0.741638
1629456601418,-0.423767,0.47665399999999997,0.727913
1629456601428,-0.424743,0.472567,0.733769
1629456601437,-0.420717,0.470188,0.735599
1629456601447,-0.422791,0.474397,0.725229
1629456601456,-0.42401099999999997,0.478362,0.722911
1629456601466,-0.421754,0.47939899999999996,0.733464
1629456601476,-0.424255,0.483303,0.747616
1629456601485,-0.421876,0.481351,0.750056
1629456601495,-0.420656,0.478667,0.751764
1629456601504,-0.421144,0.476776,0.759023
1629456601514,-0.423218,0.471652,0.768295
1629456601524,-0.422852,0.466345,0.769149
1629456601533,-0.422791,0.461953,0.768905
1629456601543,-0.421022,0.454572,0.76799
1629456601552,-0.420839,0.452742,0.768966
1629456601562,-0.41809399999999997,0.45811,0.774456
1629456601572,-0.41968,0.455914,0.773846
1629456601581,-0.421144,0.451522,0.771772
1629456601591,-0.423279,0.447618,0.769759
1629456601600,-0.425353,0.44408,0.765977
1629456601610,-0.42944,0.455853,0.764574
1629456601620,-0.434076,0.46616199999999997,0.76067
1629456601629,-0.435784,0.4697,0.760487
1629456601639,-0.43633299999999997,0.46128199999999997,0.770735
1629456601648,-0.43194099999999996,0.45017999999999997,0.7798849999999999
1629456601658,-0.43572299999999997,0.452742,0.773724
1629456601668,-0.443592,0.462136,0.7589009999999999
1629456601677,-0.446703,0.469883,0.751398
1629456601687,-0.448594,0.477508,0.750727
1629456601696,-0.45139999999999997,0.482632,0.751825
1629456601706,-0.448106,0.48745099999999997,0.7561559999999999
1629456601716,-0.448228,0.47970399999999996,0.757132
1629456601725,-0.444812,0.473665,0.760792
1629456601735,-0.442982,0.46482,0.759084
1629456601744,-0.439566,0.45884199999999997,0.758657
1629456601754,-0.437431,0.453108,0.762134
1629456601764,-0.43663799999999997,0.451522,0.768112
1629456601773,-0.43633299999999997,0.451949,0.763598
1629456601783,-0.435601,0.45231499999999997,0.757498
1629456601792,-0.434137,0.452864,0.759999
1629456601802,-0.433344,0.45536499999999996,0.756888
1629456601812,-0.43127,0.454694,0.749446
1629456601821,-0.431514,0.451034,0.749995
1629456601831,-0.43102599999999996,0.447923,0.7592059999999999
1629456601840,-0.42883,0.446947,0.764269
1629456601850,-0.433161,0.447313,0.761707
1629456601860,-0.438529,0.448777,0.754814
