timestamp,ax,ay,az
1630501999705,-0.15945399999999998,-0.535763,-0.9234789999999999
1630501999715,-0.160796,-0.536251,-0.9134749999999999
1630501999724,-0.16006399999999998,-0.534482,-0.903349
1630501999734,-0.156953,-0.53131,-0.893467
1630501999743,-0.153842,-0.526613,-0.884012
1630501999753,-0.151036,-0.520574,-0.8751059999999999
1630501999763,-0.14884,-0.514962,-0.865529
1630501999772,-0.147681,-0.511363,-0.853573
1630501999782,-0.146888,-0.5063,-0.841434
1630501999791,-0.146156,-0.500749,-0.829844
1630501999801,-0.145607,-0.49611299999999997,-0.820206
1630501999811,-0.145119,-0.494649,-0.814167
1630501999820,-0.145607,-0.495991,-0.808921
1630501999830,-0.146095,-0.497455,-0.803736
1630501999839,-0.148596,-0.499346,-0.7996489999999999
1630501999849,-0.152134,-0.498736,-0.798368
1630501999859,-0.15481799999999998,-0.497821,-0.799283
1630501999868,-0.156526,-0.498492,-0.8051389999999999
1630501999878,-0.158356,-0.498614,-0.812581
1630501999887,-0.158966,-0.499224,-0.81984
1630501999897,-0.15975899999999998,-0.500688,-0.827099
1630501999907,-0.161589,-0.502152,-0.833382
1630501999916,-0.161711,-0.500444,-0.839909
1630501999926,-0.162504,-0.498492,-0.844667
1630501999935,-0.164883,-0.49580799999999997,-0.8495469999999999
1630501999945,-0.165981,-0.491782,-0.8535119999999999
1630501999955,-0.166591,-0.487512,-0.8571719999999999
1630501999964,-0.169031,-0.48678,-0.8614419999999999
1630501999974,-0.17086099999999999,-0.487085,-0.863821
1630501999983,-0.17177599999999998,-0.488915,-0.868945
1630501999993,-0.168665,-0.491965,-0.873947
1630502000003,-0.166408,-0.49471,-0.87779
1630501821544,-0.153537,-0.488,-0.846924
1630501821554,-0.156587,-0.487939,-0.84973
1630501821563,-0.154147,-0.487817,-0.85644
1630501821573,-0.15329299999999998,-0.482815,-0.860344
1630501821583,-0.153049,-0.478118,-0.865834
1630501821592,-0.151524,-0.469395,-0.872483
1630501821602,-0.147925,-0.46848,-0.879559
1630501821611,-0.142679,-0.470554,-0.88816
1630501821621,-0.140483,-0.475251,-0.893711
1630501821631,-0.134322,-0.48061899999999996,-0.898774
1630501821640,-0.131516,-0.484767,-0.899628
1630501821650,-0.12925899999999999,-0.484462,-0.898408
1630501821659,-0.12993,-0.47702,-0.8948699999999999
1630501821669,-0.12993,-0.471408,-0.889929
1630501821679,-0.129808,-0.469517,-0.885415
1630501821688,-0.130113,-0.470798,-0.879315
1630501821698,-0.131638,-0.475068,-0.87108
1630501821707,-0.131577,-0.479033,-0.865956
1630501821717,-0.131089,-0.481717,-0.860039
1630501821727,-0.130418,-0.484767,-0.85583
1630501821736,-0.130418,-0.488244,-0.855281
1630501821746,-0.127063,-0.488549,-0.857538
1630501821755,-0.12425699999999999,-0.48678,-0.857233
1630501821765,-0.122915,-0.48495,-0.856318
1630501821775,-0.11931599999999999,-0.484218,-0.8538169999999999
1630501821784,-0.1159,-0.481046,-0.847473
1630501821794,-0.114131,-0.48031399999999996,-0.83936
1630501821803,-0.114192,-0.485438,-0.837286
1630501821813,-0.108885,-0.488244,-0.843996
1630501821823,-0.102541,-0.48501099999999997,-0.851316
1630501821832,-0.09638,-0.485438,-0.855525
1630501821842,-0.091317,-0.485804,-0.859673
1630501821851,-0.08662,-0.487024,-0.863028
1630501821861,-0.081496,-0.485987,-0.863943
1630501821871,-0.078202,-0.481046,-0.866383
1630501821880,-0.075579,-0.472933,-0.870348
1630501821890,-0.075518,-0.463295,-0.8723609999999999
1630501821899,-0.07503,-0.459391,-0.876509
1630501821909,-0.07442,-0.462014,-0.879315
1630501821919,-0.072102,-0.469517,-0.879803
1630501821928,-0.07155299999999999,-0.47604399999999997,-0.881084
1630501821938,-0.074115,-0.476837,-0.88145
1630501821947,-0.076982,-0.474641,-0.882548
1630501821957,-0.07808,-0.470005,-0.8882209999999999
1630501821967,-0.080276,-0.468358,-0.892125
1630501821976,-0.081008,-0.46921199999999996,-0.8948699999999999
1630501821986,-0.080459,-0.475556,-0.900726
1630501821995,-0.079239,-0.478667,-0.902434
1630501822005,-0.078995,-0.477386,-0.899628
1630501822015,-0.081679,-0.48031399999999996,-0.897676
1630501822024,-0.080215,-0.488244,-0.894077
1630501822034,-0.080886,-0.496784,-0.887123
1630501822043,-0.08295999999999999,-0.502091,-0.879315
1630501822053,-0.08356999999999999,-0.501603,-0.870043
1630501822063,-0.08619299999999999,-0.497089,-0.8617469999999999
1630501822072,-0.086925,-0.49654,-0.859185
1630501822082,-0.08680299999999999,-0.493368,-0.857111
1630501822091,-0.08479,-0.491538,-0.856684
1630501822101,-0.082533,-0.491843,-0.8556469999999999
1630501822111,-0.081069,-0.48983,-0.85522
1630501822120,-0.079239,-0.48495,-0.857599
1630501822130,-0.078995,-0.47604399999999997,-0.8577819999999999
1630501822139,-0.078568,-0.469456,-0.861564
1630501822149,-0.079178,-0.467626,-0.86437
1630501822159,-0.079361,-0.468968,-0.866688
1630501822168,-0.08003199999999999,-0.47543399999999997,-0.868762
1630501822178,-0.079239,-0.481534,-0.872605
1630501822187,-0.08052,-0.485865,-0.874252
1630501822197,-0.082777,-0.484767,-0.874618
1630501822207,-0.084607,-0.48129,-0.87169
1630501822216,-0.087291,-0.481107,-0.8662
1630501822226,-0.090768,-0.484279,-0.863516
1630501822235,-0.090707,-0.487817,-0.8641869999999999
1630501822245,-0.09089,-0.49080599999999996,-0.864126
1630501822255,-0.090219,-0.491538,-0.865041
1630501822264,-0.088633,-0.488854,-0.865895
1630501822274,-0.087657,-0.488488,-0.8651019999999999
1630501822283,-0.08784,-0.48806099999999997,-0.864431
1630501822293,-0.086681,-0.49050099999999996,-0.86376
1630501822303,-0.0854,-0.48897599999999997,-0.863638
1630501822312,-0.08527799999999999,-0.488,-0.86498
1630501822322,-0.085217,-0.486414,-0.867908
1630501822331,-0.081252,-0.484889,-0.871629
1630501822341,-0.08033699999999999,-0.482754,-0.873154
1630501822351,-0.079666,-0.482144,-0.875594
1630501822360,-0.079239,-0.482266,-0.876875
1630501822370,-0.07911699999999999,-0.484218,-0.87779
1630501822379,-0.079605,-0.486414,-0.8757159999999999
1630501822389,-0.081191,-0.487573,-0.873825
1630501822399,-0.081862,-0.490684,-0.873947
1630501822408,-0.081008,-0.49019599999999997,-0.874557
1630501822418,-0.081557,-0.488427,-0.873947
1630501822427,-0.082533,-0.485865,-0.8717509999999999
1630501822437,-0.08265499999999999,-0.483303,-0.871202
1630501822447,-0.083021,-0.48031399999999996,-0.868945
1630501822456,-0.084058,-0.477935,-0.867176
1630501822466,-0.085095,-0.472811,-0.865834
1630501822475,-0.08820599999999999,-0.467565,-0.86681
1630501822485,-0.088084,-0.468175,-0.870348
1630501822495,-0.08881599999999999,-0.469456,-0.87657
1630501822504,-0.08845,-0.470676,-0.881572
1630501822514,-0.087779,-0.47482399999999997,-0.8845
1630501822523,-0.087718,-0.480253,-0.8842559999999999
1630501822533,-0.08881599999999999,-0.481168,-0.8830359999999999
1630501822543,-0.090341,-0.479338,-0.879803
1630501822552,-0.09265899999999999,-0.47726399999999997,-0.874313
1630501822562,-0.09558699999999999,-0.474275,-0.869189
1630501822571,-0.098149,-0.472323,-0.867359
1630501822581,-0.09638,-0.470737,-0.870165
1630501822591,-0.094489,-0.46738199999999996,-0.870775
1630501822600,-0.094489,-0.46665,-0.873215
1630501822610,-0.09272,-0.465064,-0.876387
1630501822619,-0.092598,-0.463539,-0.876692
1630501822629,-0.092415,-0.463783,-0.879193
1630501822639,-0.091561,-0.46494199999999997,-0.878644
1630501822648,-0.091988,-0.466284,-0.8812059999999999
1630501822658,-0.09089,-0.468663,-0.884012
1630501822667,-0.090341,-0.46787,-0.8845
1630501822677,-0.091378,-0.46463699999999997,-0.883585
1630501822687,-0.090341,-0.461404,-0.8848659999999999
1630501822696,-0.089243,-0.460184,-0.885232
1630501822706,-0.087596,-0.458415,-0.885354
1630501822715,-0.08649799999999999,-0.45975699999999997,-0.88511
1630501822725,-0.08662,-0.459818,-0.885598
1630501822735,-0.085156,-0.458781,-0.884622
1630501822744,-0.084302,-0.454999,-0.883097
1630501822754,-0.083875,-0.450729,-0.8836459999999999
1630501822763,-0.083326,-0.448106,-0.8854759999999999
1630501822773,-0.083082,-0.446886,-0.88755
1630501822783,-0.083692,-0.448106,-0.891088
1630501822792,-0.082106,-0.450058,-0.894077
1630501822802,-0.08204499999999999,-0.450912,-0.896822
1630501822811,-0.082228,-0.449936,-0.898164
1630501822821,-0.081435,-0.447923,-0.899018
1630501822831,-0.080398,-0.443897,-0.899262
1630501822840,-0.082533,-0.442006,-0.896456
1630501822850,-0.082594,-0.441884,-0.896822
1630501822859,-0.081923,-0.44334799999999996,-0.897554
1630501822869,-0.081862,-0.446642,-0.899201
1630501822879,-0.083814,-0.449326,-0.896273
1630501822888,-0.08497299999999999,-0.45078999999999997,-0.895663
1630501822898,-0.084851,-0.451644,-0.893894
1630501822907,-0.085522,-0.451827,-0.890539
1630501822917,-0.086132,-0.45292499999999997,-0.8882209999999999
1630501822927,-0.08723,-0.454694,-0.884012
1630501822936,-0.088389,-0.453596,-0.883707
1630501822946,-0.087291,-0.453047,-0.884073
1630501822955,-0.08601,-0.451888,-0.8848659999999999
1630501822965,-0.08326499999999999,-0.451461,-0.884744
1630501822975,-0.081435,-0.451217,-0.88694
1630501822984,-0.078263,-0.449692,-0.888465
1630501822994,-0.076555,-0.448899,-0.890112
1630501823003,-0.074725,-0.447008,-0.89243
1630501823013,-0.072834,-0.4453,-0.893772
1630501823023,-0.07076,-0.442799,-0.895358
1630501823032,-0.069967,-0.44334799999999996,-0.8976149999999999
1630501823042,-0.068869,-0.443531,-0.898652
1630501823051,-0.069296,-0.442921,-0.8991399999999999
1630501823061,-0.07076,-0.444507,-0.897249
1630501823071,-0.070455,-0.442677,-0.895724
1630501823080,-0.070577,-0.441274,-0.8951749999999999
1630501823090,-0.069418,-0.44151799999999997,-0.896334
1630501823099,-0.06954,-0.440176,-0.895663
1630501823109,-0.067588,-0.44090799999999997,-0.896517
1630501823119,-0.068564,-0.440359,-0.897493
1630501823128,-0.068564,-0.439139,-0.896029
1630501823138,-0.069296,-0.440664,-0.893528
1630501823147,-0.071797,-0.441884,-0.89182
1630501823157,-0.072407,-0.442311,-0.892552
1630501823167,-0.073322,-0.439871,-0.892491
1630501823176,-0.072651,-0.43798,-0.894626
1630501823186,-0.072834,-0.435906,-0.895968
1630501823195,-0.07381,-0.435601,-0.898408
1630501823205,-0.073383,-0.43572299999999997,-0.9000549999999999
1630501823215,-0.075518,-0.437736,-0.899628
1630501823224,-0.077836,-0.440786,-0.896822
1630501823234,-0.078873,-0.446337,-0.896273
1630501823243,-0.081496,-0.449814,-0.895846
1630501823253,-0.082533,-0.449753,-0.895114
1630501823263,-0.085339,-0.446398,-0.891637
1630501823272,-0.085156,-0.444507,-0.891515
1630501823282,-0.08619299999999999,-0.44456799999999996,-0.891393
1630501823291,-0.083326,-0.444873,-0.893467
1630501823301,-0.083448,-0.445483,-0.894138
1630501823311,-0.08204499999999999,-0.443531,-0.896273
1630501823320,-0.078751,-0.44164,-0.896944
1630501823330,-0.077714,-0.44212799999999997,-0.8963949999999999
1630501823339,-0.078324,-0.439932,-0.8963949999999999
1630501823349,-0.078202,-0.437675,-0.895724
1630501823359,-0.077958,-0.43371,-0.894077
1630501823368,-0.078812,-0.433466,-0.892552
1630501823378,-0.0793,-0.435967,-0.893406
1630501823387,-0.08003199999999999,-0.43981,-0.892613
1630501823397,-0.080459,-0.443775,-0.891271
1630501823407,-0.082106,-0.445117,-0.89182
1630501823416,-0.081618,-0.445666,-0.89243
1630501823426,-0.07972699999999999,-0.445361,-0.893223
1630501823435,-0.080093,-0.44090799999999997,-0.893589
1630501823445,-0.079178,-0.437004,-0.895846
1630501823455,-0.078507,-0.433344,-0.898103
1630501823464,-0.077592,-0.433039,-0.900909
1630501823474,-0.077592,-0.433893,-0.901214
1630501823483,-0.079056,-0.435845,-0.900909
1630501823493,-0.080276,-0.43938299999999997,-0.9021899999999999
1630501823503,-0.080703,-0.44164,-0.901641
1630501823512,-0.080947,-0.44212799999999997,-0.901092
1630501823522,-0.081923,-0.439932,-0.8982249999999999
1630501823531,-0.083875,-0.439627,-0.895236
1630501823541,-0.085522,-0.438285,-0.892369
1630501823551,-0.086071,-0.43877299999999997,-0.891942
1630501823560,-0.08497299999999999,-0.438529,-0.894138
1630501823570,-0.083692,-0.437919,-0.893894
1630501823579,-0.083936,-0.437187,-0.892979
1630501823589,-0.084058,-0.435906,-0.893223
1630501823599,-0.083997,-0.435479,-0.892552
1630501823608,-0.084302,-0.435052,-0.892796
1630501823618,-0.085827,-0.43554,-0.893772
1630501823627,-0.087108,-0.434808,-0.894748
1630501823637,-0.08790099999999999,-0.433954,-0.895663
1630501823647,-0.089548,-0.432795,-0.897859
1630501823656,-0.088084,-0.432612,-0.8994449999999999
1630501823666,-0.08820599999999999,-0.43255099999999996,-0.899994
1630501823675,-0.08906,-0.432978,-0.902129
1630501823685,-0.088694,-0.433771,-0.904386
1630501823695,-0.08973099999999999,-0.435052,-0.902434
1630501823704,-0.093086,-0.435479,-0.9006649999999999
1630501823714,-0.094001,-0.434869,-0.897798
1630501823723,-0.095831,-0.43371,-0.896212
1630501823733,-0.097661,-0.434442,-0.894016
1630501823743,-0.097661,-0.435235,-0.892674
1630501823752,-0.098088,-0.437065,-0.892186
1630501823762,-0.096868,-0.439627,-0.893162
1630501823771,-0.095404,-0.43999299999999997,-0.892308
1630501823781,-0.095709,-0.438224,-0.890844
1630501823791,-0.09516,-0.437126,-0.890112
1630501823800,-0.095404,-0.437614,-0.8906
1630501823810,-0.094489,-0.437431,-0.891088
1630501823819,-0.095526,-0.43785799999999997,-0.891881
1630501823829,-0.094306,-0.43676,-0.894504
1630501823839,-0.092842,-0.434808,-0.897371
1630501823848,-0.09143899999999999,-0.433832,-0.898591
1630501823858,-0.091012,-0.432673,-0.898957
1630501823867,-0.08942599999999999,-0.43224599999999996,-0.902251
1630501823877,-0.08820599999999999,-0.430782,-0.903654
1630501823887,-0.087474,-0.431148,-0.904874
1630501823896,-0.087718,-0.431697,-0.904691
1630501823906,-0.086437,-0.433222,-0.903959
1630501823915,-0.087169,-0.434198,-0.9031049999999999
1630501823925,-0.089304,-0.43554,-0.9009699999999999
1630501823935,-0.089365,-0.43541799999999997,-0.8988349999999999
1630501823944,-0.090646,-0.438102,-0.896456
1630501823954,-0.093208,-0.439749,-0.892552
1630501823963,-0.09436699999999999,-0.436577,-0.88938
1630501823973,-0.094428,-0.43541799999999997,-0.890173
1630501823983,-0.093513,-0.435296,-0.889929
1630501823992,-0.092171,-0.437675,-0.892491
1630501824002,-0.091561,-0.44029799999999997,-0.895358
1630501824011,-0.090646,-0.441152,-0.8966999999999999
1630501824021,-0.090768,-0.442311,-0.897676
1630501824031,-0.090036,-0.441091,-0.898469
1630501824040,-0.088938,-0.439871,-0.898896
1630501824050,-0.088145,-0.437065,-0.901031
1630501824059,-0.08649799999999999,-0.432612,-0.903288
1630501824069,-0.084546,-0.429379,-0.9034099999999999
1630501824079,-0.083936,-0.428952,-0.903288
1630501824088,-0.085095,-0.430843,-0.901824
1630501824098,-0.085766,-0.432673,-0.900116
1630501824107,-0.086376,-0.43493,-0.900177
1630501824117,-0.087474,-0.43755299999999997,-0.8982249999999999
1630501824127,-0.088389,-0.43846799999999997,-0.895419
1630501824136,-0.08845,-0.437614,-0.894382
1630501824146,-0.088084,-0.43816299999999997,-0.892674
1630501824155,-0.08790099999999999,-0.439627,-0.892613
1630501824165,-0.08845,-0.43907799999999997,-0.892247
1630501824175,-0.086437,-0.438346,-0.892308
1630501824184,-0.084546,-0.439627,-0.891881
1630501824194,-0.083509,-0.440359,-0.892857
1630501824203,-0.081496,-0.44029799999999997,-0.894138
1630501824213,-0.080154,-0.43859,-0.894748
1630501824223,-0.079483,-0.43633299999999997,-0.895602
1630501824232,-0.08033699999999999,-0.434625,-0.8954799999999999
1630501824242,-0.079971,-0.432124,-0.895236
1630501824251,-0.080703,-0.431758,-0.8942599999999999
1630501824261,-0.08113,-0.4331,-0.893711
1630501824271,-0.082838,-0.436211,-0.892735
1630501824280,-0.084546,-0.438346,-0.890966
1630501824290,-0.086864,-0.441274,-0.890234
1630501824299,-0.087474,-0.443775,-0.889197
1630501824309,-0.086864,-0.445666,-0.890295
1630501824319,-0.088999,-0.444812,-0.890417
1630501824328,-0.08851099999999999,-0.443287,-0.889746
1630501824338,-0.086864,-0.441884,-0.892796
1630501824347,-0.084668,-0.440176,-0.895541
1630501824357,-0.08265499999999999,-0.43602799999999997,-0.8985299999999999
1630501824367,-0.081923,-0.434564,-0.900482
1630501824376,-0.081008,-0.43194099999999996,-0.901092
1630501824386,-0.08113,-0.431392,-0.901946
1630501824395,-0.082106,-0.42944,-0.903776
1630501824405,-0.082411,-0.42797599999999997,-0.905789
1630501824415,-0.082899,-0.42919599999999997,-0.907863
1630501824424,-0.082472,-0.430172,-0.907558
1630501824434,-0.083631,-0.43133099999999996,-0.907131
1630501824443,-0.084058,-0.432673,-0.906704
1630501824453,-0.083753,-0.432612,-0.904752
1630501824463,-0.085095,-0.432429,-0.9024949999999999
1630501824472,-0.086254,-0.430843,-0.900787
1630501824482,-0.086376,-0.431087,-0.899994
1630501824491,-0.085949,-0.43133099999999996,-0.898957
1630501824501,-0.08845,-0.431758,-0.897798
1630501824511,-0.087779,-0.431209,-0.897798
1630501824520,-0.086925,-0.431148,-0.8988349999999999
1630501824530,-0.087291,-0.430782,-0.897981
1630501824539,-0.088328,-0.43072099999999997,-0.899384
1630501824549,-0.090341,-0.432795,-0.897737
1630501824559,-0.090158,-0.434381,-0.895419
1630501824568,-0.09211,-0.439566,-0.8936499999999999
1630501824578,-0.092842,-0.443531,-0.892247
1630501824587,-0.092781,-0.442799,-0.890295
1630501824597,-0.092232,-0.43846799999999997,-0.888282
1630501824607,-0.09089,-0.43572299999999997,-0.888282
1630501824616,-0.088877,-0.434381,-0.889807
1630501824626,-0.086864,-0.432673,-0.89243
1630501824635,-0.084851,-0.431148,-0.893833
1630501824645,-0.083814,-0.429318,-0.8960899999999999
1630501824655,-0.08356999999999999,-0.428159,-0.899384
1630501824664,-0.083082,-0.426512,-0.902434
1630501824674,-0.082838,-0.42578,-0.9037149999999999
1630501824683,-0.082716,-0.42614599999999997,-0.904142
1630501824693,-0.082899,-0.427915,-0.905484
1630501824703,-0.08295999999999999,-0.428525,-0.904081
1630501824712,-0.084363,-0.428952,-0.9021899999999999
1630501824722,-0.085949,-0.430904,-0.899323
1630501824731,-0.085156,-0.431758,-0.897981
1630501824741,-0.085522,-0.433283,-0.898774
1630501824751,-0.083936,-0.434015,-0.899811
1630501824760,-0.082472,-0.432856,-0.900238
1630501824770,-0.081252,-0.433344,-0.901397
1630501824779,-0.08113,-0.430538,-0.899018
1630501824789,-0.081557,-0.42919599999999997,-0.899994
1630501824799,-0.080947,-0.42736599999999997,-0.9009699999999999
1630501824808,-0.079544,-0.427488,-0.9015799999999999
1630501824818,-0.078995,-0.427183,-0.901824
1630501824827,-0.079361,-0.42767099999999997,-0.901214
1630501824837,-0.07869,-0.42797599999999997,-0.9021899999999999
1630501824847,-0.078812,-0.42797599999999997,-0.903471
1630501824856,-0.077714,-0.426329,-0.903532
1630501824866,-0.078141,-0.426634,-0.903227
1630501824875,-0.07991,-0.426268,-0.903166
1630501824885,-0.081252,-0.42767099999999997,-0.902983
1630501824895,-0.081008,-0.429318,-0.902678
1630501824904,-0.07972699999999999,-0.429623,-0.901458
1630501824914,-0.080764,-0.429379,-0.899811
1630501824923,-0.080703,-0.428769,-0.899872
1630501824933,-0.081496,-0.42797599999999997,-0.8994449999999999
1630501824943,-0.081923,-0.427427,-0.899933
1630501824952,-0.081374,-0.426573,-0.900421
1630501824962,-0.081252,-0.42645099999999997,-0.901092
1630501824971,-0.081069,-0.427732,-0.902068
1630501824981,-0.080825,-0.430477,-0.9027999999999999
1630501824991,-0.08113,-0.4331,-0.902007
1630501825000,-0.080398,-0.434564,-0.900909
1630501825010,-0.080459,-0.434869,-0.900116
1630501825019,-0.08174,-0.433222,-0.897554
1630501825029,-0.081496,-0.431209,-0.896151
1630501825039,-0.081435,-0.42883,-0.896822
1630501825048,-0.081679,-0.426024,-0.897554
1630501825058,-0.080825,-0.423584,-0.8988349999999999
1630501825067,-0.079971,-0.42462099999999997,-0.899506
1630501825077,-0.078873,-0.42883,-0.901397
1630501825087,-0.079544,-0.43066,-0.902129
1630501825096,-0.078934,-0.432185,-0.900421
1630501825106,-0.081069,-0.433222,-0.899018
1630501825115,-0.080398,-0.433161,-0.897554
1630501825125,-0.081496,-0.434015,-0.895724
1630501825135,-0.082167,-0.432612,-0.895236
1630501825144,-0.082411,-0.43066,-0.896334
1630501825154,-0.080581,-0.428769,-0.897981
1630501825163,-0.080215,-0.429562,-0.898713
1630501825173,-0.079788,-0.429989,-0.898774
1630501825183,-0.080276,-0.433893,-0.898896
1630501825192,-0.079483,-0.434625,-0.8988349999999999
1630501825202,-0.080093,-0.43102599999999996,-0.897249
1630501825211,-0.078751,-0.426329,-0.896822
1630501825221,-0.079178,-0.42340099999999997,-0.8985299999999999
1630501825231,-0.078812,-0.42151,-0.901641
1630501825240,-0.07747,-0.420961,-0.9046299999999999
1630501825250,-0.07808,-0.41968,-0.907314
1630501825259,-0.078568,-0.419863,-0.909144
1630501825269,-0.078751,-0.422669,-0.9113399999999999
1630501825279,-0.081069,-0.422913,-0.911767
1630501825288,-0.08295999999999999,-0.422974,-0.909632
1630501825298,-0.0854,-0.425048,-0.9092049999999999
1630501825307,-0.084363,-0.426878,-0.908839
1630501825317,-0.083387,-0.427549,-0.906826
1630501825327,-0.084119,-0.428037,-0.9058499999999999
1630501825336,-0.08479,-0.427,-0.9043249999999999
1630501825346,-0.083936,-0.426329,-0.904569
1630501825355,-0.083936,-0.42614599999999997,-0.904386
1630501825365,-0.081801,-0.427488,-0.905606
1630501825375,-0.081191,-0.428952,-0.904508
1630501825384,-0.08003199999999999,-0.430294,-0.9037149999999999
1630501825394,-0.080276,-0.431758,-0.9021899999999999
1630501825403,-0.080886,-0.43011099999999997,-0.898713
1630501825413,-0.079666,-0.42944,-0.898164
1630501825423,-0.079971,-0.431575,-0.8966999999999999
1630501825432,-0.078629,-0.430782,-0.897432
1630501825442,-0.078446,-0.430294,-0.898286
1630501825451,-0.077714,-0.429318,-0.899689
1630501825461,-0.077287,-0.428708,-0.899384
1630501825471,-0.076677,-0.429562,-0.8991399999999999
1630501825480,-0.07740899999999999,-0.431209,-0.8966999999999999
1630501825490,-0.078934,-0.431148,-0.8948699999999999
1630501825499,-0.07942199999999999,-0.429562,-0.893833
1630501825509,-0.078751,-0.428159,-0.895419
1630501825519,-0.078629,-0.42706099999999997,-0.897432
1630501825528,-0.078568,-0.426878,-0.899506
1630501825538,-0.07710399999999999,-0.427122,-0.902922
1630501825547,-0.076616,-0.429928,-0.904447
1630501825557,-0.078019,-0.431697,-0.904996
1630501825567,-0.078507,-0.432917,-0.904386
1630501825576,-0.078568,-0.432185,-0.903288
1630501825586,-0.07808,-0.430782,-0.902556
1630501825595,-0.077714,-0.42980599999999997,-0.902983
1630501825605,-0.07710399999999999,-0.42944,-0.902861
1630501825615,-0.076067,-0.42980599999999997,-0.905423
1630501825624,-0.075274,-0.42858599999999997,-0.9055449999999999
1630501825634,-0.073017,-0.427,-0.904752
1630501825643,-0.073139,-0.425719,-0.903227
1630501825653,-0.073627,-0.425963,-0.902068
1630501825663,-0.07381,-0.427,-0.903288
1630501825672,-0.073139,-0.42645099999999997,-0.901336
1630501825682,-0.07356599999999999,-0.42517,-0.901458
1630501825691,-0.073444,-0.42523099999999997,-0.9024949999999999
1630501825701,-0.073017,-0.424682,-0.904264
1630501825711,-0.072041,-0.424682,-0.903776
1630501825720,-0.071858,-0.42456,-0.9037149999999999
1630501825730,-0.071858,-0.424865,-0.903776
1630501825739,-0.071736,-0.425719,-0.9037149999999999
1630501825749,-0.071675,-0.426695,-0.903166
1630501825759,-0.071309,-0.426268,-0.902739
1630501825768,-0.07124799999999999,-0.426085,-0.903593
1630501825778,-0.071126,-0.426878,-0.904142
1630501825787,-0.071797,-0.42584099999999997,-0.902373
1630501825797,-0.071614,-0.424499,-0.900299
1630501825807,-0.071309,-0.42584099999999997,-0.902129
1630501825816,-0.072895,-0.42462099999999997,-0.901092
1630501825826,-0.071736,-0.423645,-0.901214
1630501825835,-0.07155299999999999,-0.421022,-0.901336
1630501825845,-0.071858,-0.419558,-0.900726
1630501825855,-0.072895,-0.42029,-0.900848
1630501825864,-0.074298,-0.422303,-0.904203
1630501825874,-0.075396,-0.423523,-0.904691
1630501825883,-0.076433,-0.424682,-0.9073749999999999
1630501825893,-0.076738,-0.424682,-0.907802
1630501825903,-0.077958,-0.424499,-0.908412
1630501825912,-0.07869,-0.42462099999999997,-0.909083
1630501825922,-0.07869,-0.424804,-0.908656
1630501825931,-0.080154,-0.42578,-0.908229
1630501825941,-0.080215,-0.427427,-0.9067649999999999
1630501825951,-0.080947,-0.429135,-0.9037149999999999
1630501825960,-0.083082,-0.43066,-0.901153
1630501825970,-0.083204,-0.42828099999999997,-0.901031
1630501825979,-0.083692,-0.428464,-0.900116
1630501825989,-0.083631,-0.42980599999999997,-0.9000549999999999
1630501825999,-0.083204,-0.43011099999999997,-0.900604
1630501826008,-0.081496,-0.432429,-0.8997499999999999
1630501826018,-0.081557,-0.433283,-0.898774
1630501826027,-0.081862,-0.432429,-0.897554
1630501826037,-0.080398,-0.432612,-0.898103
1630501826047,-0.078812,-0.429989,-0.8973099999999999
1630501826056,-0.077226,-0.42645099999999997,-0.897859
1630501826066,-0.07740899999999999,-0.42395,-0.897981
1630501826075,-0.076372,-0.422425,-0.898408
1630501826085,-0.076555,-0.422303,-0.900177
1630501826095,-0.075335,-0.423767,-0.9027999999999999
1630501826104,-0.07564,-0.424804,-0.904203
1630501826114,-0.074664,-0.42395,-0.904203
1630501826123,-0.075274,-0.42456,-0.906033
1630501826133,-0.074664,-0.42706099999999997,-0.908046
1630501826143,-0.073444,-0.427244,-0.909571
1630501826152,-0.074725,-0.426939,-0.908473
1630501826162,-0.073993,-0.42614599999999997,-0.907192
1630501826171,-0.073993,-0.425719,-0.906338
1630501826181,-0.074908,-0.425658,-0.903837
1630501826191,-0.074786,-0.426268,-0.902922
1630501826200,-0.074847,-0.424255,-0.901519
1630501826210,-0.075396,-0.42431599999999997,-0.9006649999999999
1630501826219,-0.07679899999999999,-0.425597,-0.899323
1630501826229,-0.077531,-0.424682,-0.897676
1630501826239,-0.077775,-0.425475,-0.8973099999999999
1630501826248,-0.078812,-0.428403,-0.899018
1630501826258,-0.078812,-0.430904,-0.901702
1630501826267,-0.07911699999999999,-0.43163599999999996,-0.902861
1630501826277,-0.080459,-0.431697,-0.901641
1630501826287,-0.081374,-0.43163599999999996,-0.903288
1630501826296,-0.080459,-0.431148,-0.9040199999999999
1630501826306,-0.081496,-0.43127,-0.902983
1630501826315,-0.081923,-0.43066,-0.901824
1630501826325,-0.082228,-0.430294,-0.9012749999999999
1630501826335,-0.082228,-0.429562,-0.901458
1630501826344,-0.081801,-0.429379,-0.901092
1630501826354,-0.08174,-0.43066,-0.900726
1630501826363,-0.082716,-0.433405,-0.9006649999999999
1630501826373,-0.083082,-0.434869,-0.899872
1630501826383,-0.082472,-0.434503,-0.897798
1630501826392,-0.08295999999999999,-0.43541799999999997,-0.897981
1630501826402,-0.084302,-0.433954,-0.8960899999999999
1630501826411,-0.083753,-0.433283,-0.894138
1630501826421,-0.083082,-0.43493,-0.895907
1630501826431,-0.081984,-0.434625,-0.896456
1630501826440,-0.081801,-0.431087,-0.894382
1630501826450,-0.082228,-0.428464,-0.895419
1630501826459,-0.081923,-0.424499,-0.899567
1630501826469,-0.081862,-0.424377,-0.901519
1630501826479,-0.08295999999999999,-0.427122,-0.903776
1630501826488,-0.083204,-0.431209,-0.9058499999999999
1630501826498,-0.082777,-0.434564,-0.907009
1630501826507,-0.084424,-0.436516,-0.905484
1630501826517,-0.0854,-0.435662,-0.9037149999999999
1630501826527,-0.084729,-0.434808,-0.902068
1630501826536,-0.084485,-0.434076,-0.900848
1630501826546,-0.082716,-0.432795,-0.899567
1630501826555,-0.082228,-0.433039,-0.899079
1630501826565,-0.080947,-0.43249,-0.897676
1630501826575,-0.080459,-0.431392,-0.896212
1630501826584,-0.0793,-0.429928,-0.896578
1630501826594,-0.076372,-0.42889099999999997,-0.897432
1630501826603,-0.07564,-0.42797599999999997,-0.897554
1630501826613,-0.07387099999999999,-0.426634,-0.898042
1630501826623,-0.072041,-0.427732,-0.897981
1630501826632,-0.072956,-0.429928,-0.897798
1630501826642,-0.072773,-0.431087,-0.897432
1630501826651,-0.07259,-0.43072099999999997,-0.898652
1630501826661,-0.0732,-0.430538,-0.898408
1630501826671,-0.074237,-0.43102599999999996,-0.8973099999999999
1630501826680,-0.074603,-0.43066,-0.896456
1630501826690,-0.07381,-0.428525,-0.897798
1630501826699,-0.074054,-0.42761,-0.898652
1630501826709,-0.07356599999999999,-0.428098,-0.901031
1630501826719,-0.073139,-0.42944,-0.900726
1630501826728,-0.072956,-0.431514,-0.900421
1630501826738,-0.074664,-0.43194099999999996,-0.900299
1630501826747,-0.074542,-0.431819,-0.901824
1630501826757,-0.075823,-0.432429,-0.9012749999999999
1630501826767,-0.076128,-0.431392,-0.9006649999999999
1630501826776,-0.076555,-0.43041599999999997,-0.899567
1630501826786,-0.076372,-0.42919599999999997,-0.898591
1630501826795,-0.076006,-0.428708,-0.899628
1630501826805,-0.074664,-0.42828099999999997,-0.899994
1630501826815,-0.075823,-0.42614599999999997,-0.901092
1630501826824,-0.074298,-0.42492599999999997,-0.9034099999999999
1630501826834,-0.073505,-0.423828,-0.904996
1630501826843,-0.07326099999999999,-0.422303,-0.9061549999999999
1630501826853,-0.07503,-0.422547,-0.905911
1630501826863,-0.075762,-0.423889,-0.906216
1630501826872,-0.076738,-0.42334,-0.904813
1630501826882,-0.079056,-0.42401099999999997,-0.903654
1630501826891,-0.079666,-0.42309599999999997,-0.902556
1630501826901,-0.078873,-0.422425,-0.902617
1630501826911,-0.079788,-0.423889,-0.902129
1630501826920,-0.081008,-0.42492599999999997,-0.9006649999999999
1630501826930,-0.08064199999999999,-0.425292,-0.901092
1630501826939,-0.07972699999999999,-0.422852,-0.901763
1630501826949,-0.08064199999999999,-0.421266,-0.903959
1630501826959,-0.080886,-0.420412,-0.9052399999999999
1630501826968,-0.081679,-0.420412,-0.904569
1630501826978,-0.081923,-0.419985,-0.9040199999999999
1630501826987,-0.082716,-0.421876,-0.905362
1630501826997,-0.08326499999999999,-0.421388,-0.904996
1630501827007,-0.084546,-0.42309599999999997,-0.905728
1630501827016,-0.08588799999999999,-0.425048,-0.904508
1630501827026,-0.085827,-0.424133,-0.902373
1630501827035,-0.086315,-0.426268,-0.901336
1630501827045,-0.08784,-0.426085,-0.900421
1630501827055,-0.086315,-0.424133,-0.901397
1630501827064,-0.083875,-0.421022,-0.901092
1630501827074,-0.084485,-0.414678,-0.901824
1630501827083,-0.083082,-0.411628,-0.903532
1630501827093,-0.083753,-0.413763,-0.905606
1630501827103,-0.08479,-0.416996,-0.906948
1630501827112,-0.0854,-0.41785,-0.907558
1630501827122,-0.086986,-0.418521,-0.909022
1630501827131,-0.087169,-0.418338,-0.909998
1630501827141,-0.08790099999999999,-0.417728,-0.910547
1630501827151,-0.088694,-0.41846,-0.910791
1630501827160,-0.089853,-0.418338,-0.909998
1630501827170,-0.089487,-0.418826,-0.908534
1630501827179,-0.08967,-0.41992399999999996,-0.9092049999999999
1630501827189,-0.088877,-0.420778,-0.9092049999999999
1630501827199,-0.088145,-0.42151,-0.908839
1630501827208,-0.088084,-0.421754,-0.906887
1630501827218,-0.08723,-0.421327,-0.905179
1630501827227,-0.087535,-0.420534,-0.905606
1630501827237,-0.08619299999999999,-0.418338,-0.904813
1630501827247,-0.0854,-0.418277,-0.9046299999999999
1630501827256,-0.086376,-0.417118,-0.9027999999999999
1630501827266,-0.086742,-0.41724,-0.902129
1630501827275,-0.085522,-0.419253,-0.902983
1630501827285,-0.083692,-0.41907,-0.902312
1630501827295,-0.084668,-0.418826,-0.902556
1630501827304,-0.084912,-0.419558,-0.901397
1630501827314,-0.08527799999999999,-0.41968,-0.901946
1630501827323,-0.085827,-0.419985,-0.903288
1630501827333,-0.085705,-0.419802,-0.9034099999999999
1630501827343,-0.085644,-0.42022899999999996,-0.903898
1630501827352,-0.08601,-0.421083,-0.903959
1630501827362,-0.085766,-0.420717,-0.904752
1630501827371,-0.084607,-0.420717,-0.905301
1630501827381,-0.083997,-0.420656,-0.906033
1630501827391,-0.08356999999999999,-0.42029,-0.905911
1630501827400,-0.083204,-0.420046,-0.906216
1630501827410,-0.082533,-0.420656,-0.907009
1630501827419,-0.082411,-0.420168,-0.905484
1630501827429,-0.083875,-0.41992399999999996,-0.9049349999999999
1630501827439,-0.083936,-0.420351,-0.903227
1630501827448,-0.08326499999999999,-0.420107,-0.904142
1630501827458,-0.084729,-0.42029,-0.904203
1630501827467,-0.084607,-0.419741,-0.903898
1630501827477,-0.083631,-0.419802,-0.904691
1630501827487,-0.082472,-0.419497,-0.905118
1630501827496,-0.082594,-0.41870399999999997,-0.906094
1630501827506,-0.082411,-0.418582,-0.907009
1630501827515,-0.082106,-0.417362,-0.908229
1630501827525,-0.082533,-0.41748399999999997,-0.9092049999999999
1630501827535,-0.081496,-0.417972,-0.9098149999999999
1630501827544,-0.081801,-0.418582,-0.9101199999999999
1630501827554,-0.082106,-0.418521,-0.909998
1630501827563,-0.083326,-0.418643,-0.908534
1630501827573,-0.084302,-0.418277,-0.907924
1630501827583,-0.085034,-0.42022899999999996,-0.905911
1630501827592,-0.084668,-0.421144,-0.905118
1630501827602,-0.085034,-0.422242,-0.904508
1630501827611,-0.08479,-0.422242,-0.9043249999999999
1630501827621,-0.084546,-0.421876,-0.904264
1630501827631,-0.083997,-0.422486,-0.9043249999999999
1630501827640,-0.084546,-0.421205,-0.903227
1630501827650,-0.084424,-0.422242,-0.901946
1630501827659,-0.084546,-0.425414,-0.9018849999999999
1630501827669,-0.084424,-0.42639,-0.8991399999999999
1630501827679,-0.08527799999999999,-0.425353,-0.897371
1630501827688,-0.08497299999999999,-0.42340099999999997,-0.897432
1630501827698,-0.086559,-0.423218,-0.896822
1630501827707,-0.086742,-0.423584,-0.897493
1630501827717,-0.087169,-0.423523,-0.898286
1630501827727,-0.086559,-0.424438,-0.898652
1630501827736,-0.084851,-0.424804,-0.900421
1630501827746,-0.084058,-0.424255,-0.902556
1630501827755,-0.083387,-0.421937,-0.905179
1630501827765,-0.082289,-0.419192,-0.908778
1630501827775,-0.08052,-0.416142,-0.910669
1630501827784,-0.081252,-0.41541,-0.911157
1630501827794,-0.081313,-0.41443399999999997,-0.911157
1630501827803,-0.08174,-0.415471,-0.9104249999999999
1630501827813,-0.082472,-0.417972,-0.909388
1630501827823,-0.082716,-0.421266,-0.907802
1630501827832,-0.08356999999999999,-0.423584,-0.907009
1630501827842,-0.083509,-0.426329,-0.9061549999999999
1630501827851,-0.083692,-0.425719,-0.905972
1630501827861,-0.081435,-0.423584,-0.903288
1630501827871,-0.079788,-0.422669,-0.902373
1630501827880,-0.080154,-0.420961,-0.902312
1630501827890,-0.080215,-0.420656,-0.901397
1630501827899,-0.07991,-0.421388,-0.901336
1630501827909,-0.07869,-0.422303,-0.902312
1630501827919,-0.079056,-0.422791,-0.901214
1630501827928,-0.077836,-0.41992399999999996,-0.901946
1630501827938,-0.08204499999999999,-0.425902,-0.8991399999999999
1630501827947,-0.07942199999999999,-0.421876,-0.902068
1630501827957,-0.078324,-0.422608,-0.9027999999999999
1630501827967,-0.077836,-0.422364,-0.905179
1630501827976,-0.077958,-0.421754,-0.904508
1630501827986,-0.078446,-0.420839,-0.902678
1630501827995,-0.078507,-0.421998,-0.901031
1630501828005,-0.07869,-0.426024,-0.901458
1630501828015,-0.079605,-0.429074,-0.8991399999999999
1630501828024,-0.080825,-0.428403,-0.898164
1630501828034,-0.081008,-0.42736599999999997,-0.898469
1630501828043,-0.080215,-0.42761,-0.898774
1630501828053,-0.080886,-0.427549,-0.900421
1630501828063,-0.0793,-0.42706099999999997,-0.901763
1630501828072,-0.076738,-0.425475,-0.903837
1630501828082,-0.075274,-0.422669,-0.904813
1630501828091,-0.072834,-0.421388,-0.907009
1630501828101,-0.071126,-0.419985,-0.9085949999999999
1630501828111,-0.068869,-0.41992399999999996,-0.9107299999999999
1630501828120,-0.068686,-0.41809399999999997,-0.911828
1630501828130,-0.069845,-0.416081,-0.910547
1630501828139,-0.071309,-0.414556,-0.909998
1630501828149,-0.072773,-0.414312,-0.908473
1630501828159,-0.073749,-0.415288,-0.907924
1630501828168,-0.07448099999999999,-0.416325,-0.906826
1630501828178,-0.075579,-0.419375,-0.905118
1630501828187,-0.076311,-0.421693,-0.905423
1630501828197,-0.07747,-0.421754,-0.9052399999999999
1630501828207,-0.078385,-0.422303,-0.904874
1630501828216,-0.0793,-0.421754,-0.904447
1630501828226,-0.079605,-0.422852,-0.902861
1630501828235,-0.08003199999999999,-0.422913,-0.9018849999999999
1630501828245,-0.080398,-0.423889,-0.901153
1630501828255,-0.081618,-0.426268,-0.9003599999999999
1630501828264,-0.082777,-0.426268,-0.899506
1630501828274,-0.08204499999999999,-0.425963,-0.900482
1630501828283,-0.08234999999999999,-0.426695,-0.900238
1630501828293,-0.08174,-0.426695,-0.900482
1630501828303,-0.081679,-0.422974,-0.9003599999999999
1630501828312,-0.080154,-0.419192,-0.901336
1630501828322,-0.07972699999999999,-0.41724,-0.901092
1630501828331,-0.080764,-0.41663,-0.902739
1630501828341,-0.079178,-0.417057,-0.904752
1630501828351,-0.079544,-0.419192,-0.905118
1630501828360,-0.080276,-0.420168,-0.905667
1630501828370,-0.081008,-0.420473,-0.907009
1630501828379,-0.081557,-0.41931399999999996,-0.908778
1630501828389,-0.082594,-0.416996,-0.908412
1630501828399,-0.08356999999999999,-0.414983,-0.907741
1630501828408,-0.08418,-0.415471,-0.908351
1630501828418,-0.084424,-0.415471,-0.909998
1630501828427,-0.084302,-0.4148,-0.9122549999999999
1630501828437,-0.08497299999999999,-0.416325,-0.9137799999999999
1630501828447,-0.083814,-0.417118,-0.916342
1630501828456,-0.084058,-0.41687399999999997,-0.916464
1630501828466,-0.084668,-0.41602,-0.91439
1630501828475,-0.08680299999999999,-0.414617,-0.912377
1630501828485,-0.089243,-0.416508,-0.909876
1630501828495,-0.090097,-0.41931399999999996,-0.905362
1630501828504,-0.093025,-0.421571,-0.900848
1630501828514,-0.094611,-0.42523099999999997,-0.896334
1630501828523,-0.09577,-0.428159,-0.893589
1630501828533,-0.096746,-0.429379,-0.89304
1630501828543,-0.094916,-0.42889099999999997,-0.892003
1630501828552,-0.09638,-0.428769,-0.890722
1630501828562,-0.09589199999999999,-0.427305,-0.890966
1630501828571,-0.094001,-0.426939,-0.893711
1630501828581,-0.091988,-0.425353,-0.894321
1630501828591,-0.089365,-0.421815,-0.896944
1630501828600,-0.087596,-0.41931399999999996,-0.8991399999999999
1630501828610,-0.084851,-0.41663,-0.904142
1630501828619,-0.082899,-0.412848,-0.9073749999999999
1630501828629,-0.082289,-0.410103,-0.909632
1630501828639,-0.081801,-0.410774,-0.910913
1630501828648,-0.081374,-0.41107899999999997,-0.912621
1630501828658,-0.082167,-0.411445,-0.9137799999999999
1630501828667,-0.083387,-0.412543,-0.915122
1630501828677,-0.084546,-0.413336,-0.916342
1630501828687,-0.08601,-0.413458,-0.915
1630501828696,-0.086254,-0.413031,-0.914695
1630501828706,-0.08723,-0.41351899999999997,-0.913353
1630501828715,-0.08973099999999999,-0.415105,-0.910669
1630501828725,-0.091012,-0.417301,-0.9079849999999999
1630501828735,-0.09272,-0.418521,-0.9058499999999999
1630501828744,-0.093147,-0.41900899999999996,-0.904142
1630501828754,-0.094001,-0.42022899999999996,-0.902922
1630501828763,-0.09467199999999999,-0.422242,-0.9015799999999999
1630501828773,-0.09528199999999999,-0.423462,-0.900238
1630501828783,-0.09455,-0.42431599999999997,-0.900604
1630501828792,-0.094184,-0.425292,-0.902007
1630501828802,-0.09394,-0.42761,-0.9031049999999999
1630501828811,-0.093086,-0.42675599999999997,-0.903837
1630501828821,-0.092598,-0.424804,-0.903654
1630501828831,-0.091805,-0.424255,-0.9015799999999999
1630501828840,-0.089975,-0.423279,-0.902251
1630501828850,-0.088633,-0.420046,-0.901153
1630501828859,-0.087718,-0.416447,-0.901214
1630501828869,-0.08662,-0.413763,-0.900604
1630501828879,-0.084302,-0.415593,-0.902251
1630501828888,-0.083448,-0.416508,-0.904203
1630501828898,-0.083448,-0.418948,-0.9052399999999999
1630501828907,-0.083997,-0.420351,-0.904142
1630501828917,-0.084668,-0.422791,-0.9034099999999999
1630501828927,-0.085034,-0.422303,-0.902678
1630501828936,-0.085644,-0.420351,-0.9027999999999999
1630501828946,-0.085827,-0.41809399999999997,-0.9031049999999999
1630501828955,-0.087291,-0.416508,-0.9034099999999999
1630501828965,-0.08662,-0.417118,-0.9055449999999999
1630501828975,-0.086864,-0.419863,-0.907741
1630501828984,-0.087535,-0.422669,-0.906704
1630501828994,-0.09028,-0.42492599999999997,-0.905667
1630501829003,-0.091866,-0.424377,-0.904386
1630501829013,-0.09235399999999999,-0.422974,-0.902129
1630501829023,-0.09265899999999999,-0.423157,-0.899933
1630501829032,-0.092476,-0.422425,-0.899689
1630501829042,-0.092232,-0.423889,-0.897859
1630501829051,-0.091866,-0.42273,-0.898103
1630501829061,-0.091622,-0.422913,-0.899689
1630501829071,-0.090036,-0.420595,-0.901946
1630501829080,-0.089548,-0.41907,-0.903532
1630501829090,-0.089304,-0.419802,-0.905057
1630501829099,-0.089243,-0.420839,-0.905728
1630501829109,-0.089548,-0.421815,-0.904996
1630501829119,-0.08845,-0.423462,-0.905179
1630501829128,-0.089182,-0.42401099999999997,-0.904264
1630501829138,-0.088389,-0.423157,-0.903349
1630501829147,-0.085949,-0.41961899999999996,-0.903044
1630501829157,-0.084363,-0.41717899999999997,-0.902983
1630501829167,-0.084546,-0.414983,-0.904752
1630501829176,-0.083204,-0.414617,-0.9058499999999999
1630501829186,-0.083143,-0.414861,-0.9070699999999999
1630501829195,-0.083875,-0.414922,-0.906887
1630501829205,-0.083448,-0.41351899999999997,-0.908046
1630501829215,-0.084363,-0.413031,-0.907009
1630501829224,-0.084302,-0.412177,-0.907741
1630501829234,-0.084363,-0.412726,-0.9082899999999999
1630501829243,-0.085522,-0.414068,-0.910181
1630501829253,-0.085705,-0.41473899999999997,-0.9119499999999999
1630501829263,-0.087108,-0.416447,-0.912621
1630501829272,-0.087047,-0.41785,-0.911401
1630501829282,-0.087596,-0.41870399999999997,-0.910059
1630501829291,-0.086376,-0.418765,-0.9082899999999999
1630501829301,-0.087596,-0.418277,-0.906277
1630501829311,-0.086559,-0.418338,-0.906399
1630501829320,-0.08662,-0.41656899999999997,-0.905667
1630501829330,-0.08588799999999999,-0.41602,-0.9055449999999999
1630501829339,-0.086132,-0.416813,-0.9040199999999999
1630501829349,-0.086559,-0.418277,-0.902007
1630501829359,-0.087047,-0.417606,-0.901702
1630501829368,-0.08680299999999999,-0.41778899999999997,-0.902983
1630501829378,-0.085339,-0.416935,-0.904081
1630501829387,-0.084424,-0.414922,-0.906582
1630501829397,-0.082594,-0.413336,-0.908168
1630501829407,-0.081496,-0.412482,-0.910059
1630501829416,-0.082533,-0.411933,-0.910608
1630501829426,-0.081862,-0.412726,-0.909083
1630501829435,-0.082411,-0.41290899999999997,-0.907497
1630501829445,-0.083082,-0.41419,-0.905972
1630501829455,-0.083692,-0.416813,-0.903288
1630501829464,-0.083448,-0.41907,-0.9015799999999999
1630501829474,-0.083753,-0.419985,-0.902129
1630501829483,-0.08326499999999999,-0.420778,-0.902983
1630501829493,-0.082411,-0.41961899999999996,-0.905057
1630501829503,-0.081374,-0.41687399999999997,-0.9076799999999999
1630501829512,-0.08052,-0.415898,-0.909144
1630501829522,-0.08003199999999999,-0.41419,-0.9088999999999999
1630501829531,-0.079605,-0.415105,-0.908534
1630501829541,-0.079056,-0.416508,-0.9076799999999999
1630501829551,-0.079544,-0.417972,-0.907131
1630501829560,-0.078507,-0.416142,-0.9067649999999999
1630501829570,-0.079544,-0.41351899999999997,-0.906704
1630501829579,-0.079788,-0.409066,-0.905911
1630501829589,-0.07911699999999999,-0.410408,-0.907009
1630501829599,-0.0793,-0.41114,-0.9088999999999999
1630501829608,-0.079666,-0.411628,-0.9101199999999999
1630501829618,-0.080154,-0.412665,-0.910364
1630501829627,-0.081374,-0.41541,-0.910486
1630501829637,-0.081862,-0.41541,-0.9107299999999999
1630501829647,-0.083021,-0.415776,-0.910791
1630501829656,-0.082838,-0.416081,-0.910852
1630501829666,-0.082106,-0.41748399999999997,-0.9101199999999999
1630501829675,-0.082472,-0.417423,-0.908107
1630501829685,-0.084668,-0.418277,-0.9058499999999999
1630501829695,-0.084363,-0.41724,-0.904996
1630501829704,-0.083814,-0.418277,-0.905179
1630501829714,-0.083814,-0.41717899999999997,-0.903471
1630501829723,-0.082838,-0.417911,-0.9027999999999999
1630501829733,-0.081984,-0.41778899999999997,-0.903471
1630501829743,-0.080398,-0.417911,-0.905728
1630501829752,-0.079849,-0.416142,-0.907436
1630501829762,-0.077958,-0.414983,-0.909571
1630501829771,-0.077287,-0.41297,-0.910547
1630501829781,-0.076006,-0.41107899999999997,-0.911889
1630501829791,-0.07442,-0.410164,-0.913719
1630501829800,-0.07417599999999999,-0.40992,-0.91439
1630501829810,-0.073932,-0.409981,-0.9137799999999999
1630501829819,-0.07503,-0.410774,-0.9125599999999999
1630501829829,-0.075396,-0.412848,-0.9113399999999999
1630501829839,-0.076738,-0.413336,-0.907863
1630501829848,-0.077775,-0.4148,-0.906033
1630501829858,-0.078568,-0.417362,-0.906094
1630501829867,-0.078934,-0.417118,-0.904203
1630501829877,-0.078385,-0.41809399999999997,-0.904447
1630501829887,-0.078934,-0.418033,-0.905484
1630501829896,-0.078873,-0.41907,-0.904996
1630501829906,-0.077775,-0.420473,-0.906643
1630501829915,-0.07710399999999999,-0.42273,-0.906338
1630501829925,-0.07747,-0.424133,-0.9058499999999999
1630501829935,-0.075945,-0.42334,-0.904264
1630501829944,-0.076067,-0.420534,-0.902739
1630501829954,-0.075762,-0.41900899999999996,-0.9018849999999999
1630501829963,-0.076067,-0.415593,-0.9024949999999999
1630501829973,-0.07564,-0.4148,-0.903898
1630501829983,-0.074237,-0.415898,-0.905728
1630501829992,-0.072712,-0.416508,-0.906887
1630501830002,-0.072956,-0.41504399999999997,-0.906948
1630501830011,-0.07387099999999999,-0.414861,-0.907131
1630501830021,-0.074115,-0.414678,-0.9064599999999999
1630501830031,-0.075457,-0.415471,-0.9070699999999999
1630501830040,-0.074786,-0.41504399999999997,-0.907009
1630501830050,-0.076067,-0.414373,-0.908229
1630501830059,-0.076982,-0.412726,-0.908961
1630501830069,-0.077714,-0.41114,-0.908412
1630501830079,-0.080398,-0.407846,-0.908046
1630501830088,-0.080947,-0.408944,-0.907131
1630501830098,-0.083204,-0.412055,-0.906094
1630501830107,-0.083021,-0.415227,-0.9073749999999999
1630501830117,-0.083814,-0.41656899999999997,-0.9073749999999999
1630501830127,-0.08356999999999999,-0.416386,-0.907802
1630501830136,-0.08418,-0.416142,-0.9076799999999999
1630501830146,-0.086376,-0.417972,-0.908656
1630501830155,-0.085644,-0.41663,-0.908351
1630501830165,-0.085705,-0.416203,-0.908351
1630501830175,-0.084607,-0.416142,-0.909022
1630501830184,-0.083448,-0.415471,-0.909693
1630501830194,-0.081618,-0.413702,-0.909693
1630501830203,-0.081557,-0.413458,-0.909998
1630501830213,-0.080764,-0.412482,-0.910181
1630501830223,-0.079361,-0.41290899999999997,-0.9101199999999999
1630501830232,-0.07808,-0.413336,-0.910791
1630501830242,-0.078263,-0.41290899999999997,-0.910913
1630501830251,-0.07747,-0.412726,-0.911218
1630501830261,-0.075518,-0.411567,-0.912072
1630501830271,-0.075152,-0.410164,-0.912499
1630501830280,-0.074725,-0.409554,-0.911462
1630501830290,-0.074054,-0.408029,-0.9125599999999999
1630501830299,-0.07326099999999999,-0.409676,-0.911279
1630501830309,-0.073078,-0.409493,-0.910608
1630501830319,-0.073749,-0.410652,-0.910303
1630501830328,-0.074969,-0.410591,-0.909998
1630501830338,-0.075762,-0.411201,-0.909022
1630501830347,-0.076982,-0.411445,-0.908839
1630501830357,-0.078263,-0.415105,-0.9070699999999999
1630501830367,-0.080215,-0.418948,-0.904813
1630501830376,-0.08113,-0.42212,-0.903532
1630501830386,-0.08204499999999999,-0.424499,-0.900482
1630501830395,-0.083448,-0.424987,-0.899506
1630501830405,-0.083021,-0.423157,-0.899323
1630501830415,-0.081923,-0.421571,-0.901336
1630501830424,-0.081496,-0.420046,-0.902007
1630501830434,-0.079605,-0.419192,-0.903166
1630501830443,-0.079544,-0.417545,-0.904569
1630501830453,-0.079239,-0.416508,-0.905118
1630501830463,-0.078385,-0.416996,-0.905789
1630501830472,-0.078141,-0.416325,-0.906338
1630501830482,-0.078629,-0.415715,-0.906704
1630501830491,-0.078629,-0.414373,-0.906033
1630501830501,-0.079056,-0.414983,-0.9061549999999999
1630501830511,-0.078202,-0.415105,-0.907863
1630501830520,-0.077592,-0.414556,-0.909083
1630501830530,-0.076372,-0.413153,-0.909998
1630501830539,-0.077958,-0.411506,-0.910181
1630501830549,-0.078385,-0.410469,-0.909876
1630501830559,-0.07972699999999999,-0.410774,-0.910669
1630501830568,-0.079971,-0.412421,-0.911401
1630501830578,-0.080215,-0.413702,-0.910669
1630501830587,-0.081557,-0.41748399999999997,-0.910364
1630501830597,-0.08113,-0.419863,-0.910791
1630501830607,-0.081923,-0.422242,-0.908473
1630501830616,-0.08295999999999999,-0.423218,-0.905057
1630501830626,-0.083387,-0.42151,-0.901824
1630501830635,-0.08479,-0.419558,-0.900116
1630501830645,-0.083204,-0.416386,-0.9003599999999999
1630501830655,-0.082106,-0.412787,-0.901702
1630501830664,-0.080886,-0.410286,-0.904264
1630501830674,-0.08052,-0.4087,-0.905057
1630501830683,-0.079544,-0.408029,-0.907863
1630501830693,-0.079849,-0.408639,-0.908778
1630501830703,-0.080093,-0.408883,-0.910913
1630501830712,-0.08003199999999999,-0.409005,-0.912133
1630501830722,-0.080947,-0.409554,-0.912682
1630501830731,-0.081252,-0.40748,-0.913414
1630501830741,-0.081923,-0.406931,-0.912682
1630501830751,-0.083387,-0.407053,-0.912804
1630501830760,-0.083021,-0.40748,-0.913414
1630501830770,-0.084119,-0.40931,-0.913658
1630501830779,-0.083692,-0.410896,-0.913048
1630501830789,-0.084424,-0.411506,-0.913109
1630501830799,-0.083753,-0.41175,-0.912133
1630501830808,-0.083204,-0.414556,-0.910486
1630501830818,-0.083326,-0.41778899999999997,-0.9079849999999999
1630501830827,-0.084241,-0.416752,-0.906216
1630501830837,-0.083204,-0.413031,-0.905789
1630501830847,-0.083509,-0.41138399999999997,-0.905911
1630501830856,-0.083143,-0.410469,-0.906582
1630501830866,-0.082289,-0.409737,-0.907619
1630501830875,-0.082472,-0.412116,-0.909327
1630501830885,-0.082899,-0.414983,-0.9088999999999999
1630501830895,-0.082411,-0.416813,-0.908778
1630501830904,-0.08234999999999999,-0.41626399999999997,-0.9073749999999999
1630501830914,-0.082838,-0.41175,-0.907741
1630501830923,-0.081801,-0.408334,-0.907863
1630501830933,-0.082716,-0.408456,-0.9085949999999999
1630501830943,-0.081984,-0.410164,-0.909327
1630501830952,-0.082899,-0.411201,-0.9073749999999999
1630501830962,-0.083204,-0.412116,-0.907924
1630501830971,-0.083021,-0.414007,-0.9076799999999999
1630501830981,-0.082228,-0.41473899999999997,-0.908046
1630501830991,-0.08265499999999999,-0.41626399999999997,-0.908107
1630501831000,-0.082228,-0.413946,-0.907619
1630501831010,-0.082472,-0.40931,-0.907863
1630501831019,-0.08234999999999999,-0.409493,-0.909449
1630501831029,-0.082533,-0.411506,-0.910486
1630501831039,-0.083082,-0.412116,-0.910547
1630501831048,-0.08356999999999999,-0.41260399999999997,-0.910059
1630501831058,-0.082838,-0.413397,-0.908778
1630501831067,-0.085766,-0.416508,-0.907131
1630501831077,-0.088328,-0.419558,-0.9037149999999999
1630501831087,-0.089792,-0.420656,-0.901214
1630501831096,-0.090402,-0.421815,-0.901031
1630501831106,-0.090463,-0.42029,-0.8997499999999999
1630501831115,-0.091012,-0.419497,-0.8991399999999999
1630501831125,-0.09089,-0.419558,-0.8988349999999999
1630501831135,-0.091073,-0.41846,-0.900299
1630501831144,-0.090646,-0.419192,-0.900177
1630501831154,-0.089914,-0.420107,-0.9027999999999999
1630501831163,-0.087779,-0.419863,-0.906399
1630501831173,-0.085705,-0.41839899999999997,-0.910608
1630501831183,-0.08326499999999999,-0.41419,-0.911279
1630501831192,-0.081801,-0.411506,-0.914817
1630501831202,-0.079666,-0.409981,-0.915366
1630501831211,-0.078751,-0.407846,-0.916342
1630501831221,-0.08003199999999999,-0.407541,-0.91561
1630501831231,-0.079239,-0.409066,-0.913963
1630501831240,-0.07942199999999999,-0.412116,-0.911157
1630501831250,-0.081862,-0.414312,-0.909327
1630501831259,-0.082228,-0.415471,-0.9079849999999999
1630501831269,-0.081984,-0.415532,-0.905423
1630501831279,-0.08204499999999999,-0.417545,-0.905911
1630501831288,-0.079361,-0.416508,-0.905789
1630501831298,-0.078385,-0.415776,-0.905301
1630501831307,-0.078385,-0.415288,-0.904203
1630501831317,-0.078324,-0.412848,-0.903288
1630501831327,-0.078385,-0.41053,-0.903227
1630501831336,-0.077958,-0.411262,-0.906094
1630501831346,-0.077287,-0.411506,-0.9079849999999999
1630501831355,-0.077897,-0.410591,-0.909327
1630501831365,-0.077653,-0.410408,-0.910547
1630501831375,-0.078446,-0.411201,-0.9113399999999999
1630501831384,-0.079544,-0.41382399999999997,-0.910974
1630501831394,-0.081496,-0.415471,-0.911401
1630501831403,-0.08204499999999999,-0.41541,-0.909571
1630501831413,-0.082594,-0.41687399999999997,-0.908534
1630501831423,-0.082533,-0.416081,-0.908229
1630501831432,-0.081801,-0.415288,-0.908656
1630501831442,-0.08265499999999999,-0.41297,-0.907253
1630501831451,-0.080398,-0.41321399999999997,-0.908351
1630501831461,-0.078751,-0.41382399999999997,-0.908412
1630501831471,-0.079178,-0.409554,-0.907497
1630501831480,-0.07911699999999999,-0.404674,-0.906643
1630501831490,-0.079483,-0.401075,-0.907863
1630501831499,-0.08003199999999999,-0.399611,-0.910486
1630501831509,-0.08064199999999999,-0.40211199999999997,-0.911889
1630501831519,-0.08295999999999999,-0.40577199999999997,-0.911218
1630501831528,-0.08649799999999999,-0.410591,-0.909144
1630501831538,-0.088755,-0.4148,-0.906338
1630501831547,-0.090158,-0.415593,-0.905362
1630501831557,-0.090524,-0.413702,-0.906094
1630501831567,-0.08967,-0.41175,-0.907558
1630501831576,-0.08784,-0.410042,-0.908534
1630501831586,-0.087352,-0.40992,-0.910974
1630501831595,-0.08680299999999999,-0.407846,-0.913048
1630501831605,-0.085522,-0.404979,-0.91561
1630501831615,-0.085461,-0.403088,-0.917562
1630501831624,-0.085156,-0.404064,-0.918416
1630501831634,-0.085949,-0.404064,-0.918172
1630501831643,-0.085827,-0.404674,-0.917806
1630501831653,-0.085766,-0.405894,-0.915976
1630501831663,-0.0854,-0.407785,-0.914573
1630501831672,-0.085705,-0.409493,-0.913536
1630501831682,-0.08588799999999999,-0.410225,-0.911157
1630501831691,-0.084058,-0.407541,-0.911218
1630501831701,-0.08265499999999999,-0.40626,-0.911157
1630501831711,-0.080764,-0.40424699999999997,-0.911096
1630501831720,-0.08003199999999999,-0.401868,-0.910242
1630501831730,-0.080886,-0.400526,-0.909571
1630501831739,-0.081008,-0.400953,-0.908534
1630501831749,-0.081374,-0.402905,-0.9070699999999999
1630501831759,-0.082899,-0.405345,-0.9064599999999999
1630501831768,-0.084302,-0.40729699999999996,-0.906277
1630501831778,-0.084363,-0.408822,-0.906216
1630501831787,-0.083997,-0.40992,-0.9058499999999999
1630501831797,-0.084363,-0.411201,-0.9061549999999999
1630501831807,-0.082899,-0.410225,-0.907497
1630501831816,-0.081923,-0.40821199999999996,-0.909632
1630501831826,-0.08033699999999999,-0.407724,-0.912072
1630501831835,-0.078202,-0.405833,-0.914329
1630501831845,-0.077287,-0.40394199999999997,-0.916098
1630501831855,-0.07686,-0.40199,-0.91805
1630501831864,-0.07740899999999999,-0.401929,-0.918355
1630501831874,-0.076067,-0.403271,-0.917379
1630501831883,-0.077287,-0.405223,-0.91683
1630501831893,-0.077165,-0.404003,-0.915427
1630501831903,-0.077958,-0.404003,-0.915427
1630501831912,-0.078019,-0.404125,-0.915366
1630501831922,-0.07679899999999999,-0.404796,-0.915122
1630501831931,-0.076982,-0.406138,-0.913719
1630501831941,-0.07679899999999999,-0.406138,-0.9131699999999999
1630501831951,-0.07740899999999999,-0.404979,-0.912987
1630501831960,-0.076921,-0.404308,-0.911218
1630501831970,-0.077043,-0.404491,-0.910242
1630501831979,-0.078202,-0.40565,-0.910608
1630501831989,-0.077043,-0.405406,-0.911584
1630501831999,-0.077958,-0.404674,-0.911279
1630501832008,-0.07808,-0.40394199999999997,-0.912072
1630501832018,-0.077836,-0.40363699999999997,-0.911157
1630501832027,-0.078812,-0.402844,-0.911218
1630501832037,-0.079788,-0.403759,-0.9104249999999999
1630501832047,-0.0793,-0.404491,-0.911462
1630501832056,-0.078385,-0.40638199999999997,-0.912682
1630501832066,-0.079239,-0.407175,-0.9125599999999999
1630501832075,-0.0793,-0.407724,-0.911584
1630501832085,-0.079971,-0.408334,-0.910486
1630501832095,-0.081069,-0.41107899999999997,-0.908778
1630501832104,-0.080947,-0.412055,-0.909144
1630501832114,-0.08064199999999999,-0.410225,-0.907924
1630501832123,-0.081313,-0.407541,-0.906399
1630501832133,-0.081313,-0.40565,-0.906094
1630501832143,-0.081191,-0.405711,-0.907192
1630501832152,-0.081374,-0.40668699999999997,-0.907192
1630501832162,-0.082228,-0.406748,-0.907009
1630501832171,-0.083387,-0.40821199999999996,-0.9070699999999999
1630501832181,-0.082106,-0.408334,-0.9088999999999999
1630501832191,-0.082594,-0.40687,-0.910974
1630501832200,-0.082106,-0.405894,-0.911584
1630501832210,-0.08234999999999999,-0.40516199999999997,-0.9116449999999999
1630501832219,-0.080886,-0.404796,-0.913658
1630501832229,-0.081557,-0.402966,-0.914512
1630501832239,-0.082289,-0.404003,-0.916281
1630501832248,-0.082777,-0.40394199999999997,-0.916342
1630501832258,-0.083448,-0.404003,-0.916769
1630501832267,-0.083082,-0.404308,-0.916647
1630501832277,-0.082594,-0.404064,-0.9182939999999999
1630501832287,-0.080886,-0.404064,-0.9189039999999999
1630501832296,-0.081191,-0.403881,-0.920002
1630501832306,-0.080947,-0.405101,-0.919453
1630501832315,-0.081435,-0.40546699999999997,-0.917806
1630501832325,-0.081984,-0.405894,-0.916159
1630501832335,-0.08265499999999999,-0.408273,-0.914146
1630501832344,-0.083448,-0.41175,-0.9107299999999999
1630501832354,-0.084424,-0.41473899999999997,-0.908046
1630501832363,-0.086681,-0.413763,-0.904386
1630501832373,-0.086925,-0.412848,-0.900848
1630501832383,-0.087291,-0.41443399999999997,-0.899384
1630501832392,-0.086132,-0.414922,-0.899384
1630501832402,-0.085949,-0.413946,-0.898713
1630501832411,-0.086559,-0.41443399999999997,-0.8991399999999999
1630501832421,-0.0854,-0.41229899999999997,-0.900482
1630501832431,-0.083021,-0.40931,-0.903959
1630501832440,-0.080093,-0.407236,-0.9079849999999999
1630501832450,-0.078019,-0.404125,-0.912316
1630501832459,-0.077043,-0.40241699999999997,-0.917196
1630501832469,-0.075762,-0.399611,-0.920307
1630501832479,-0.076128,-0.398513,-0.922076
1630501832488,-0.07564,-0.40016,-0.923357
1630501832498,-0.076128,-0.40028199999999997,-0.924028
1630501832507,-0.077714,-0.40089199999999997,-0.923052
1630501832517,-0.078324,-0.402234,-0.921161
1630501832527,-0.080886,-0.40577199999999997,-0.917806
1630501832536,-0.082838,-0.40809,-0.916342
1630501832546,-0.082838,-0.410774,-0.914573
1630501832555,-0.084546,-0.41175,-0.9119499999999999
1630501832565,-0.08527799999999999,-0.410286,-0.908412
1630501832575,-0.084668,-0.408578,-0.906948
1630501832584,-0.084912,-0.407846,-0.9070699999999999
1630501832594,-0.084424,-0.408456,-0.907131
1630501832603,-0.085461,-0.40821199999999996,-0.907802
1630501832613,-0.085461,-0.409371,-0.907863
1630501832623,-0.08680299999999999,-0.410408,-0.907436
1630501832632,-0.087474,-0.41236,-0.907558
1630501832642,-0.088084,-0.41358,-0.906704
1630501832651,-0.08845,-0.414556,-0.905118
1630501832661,-0.089548,-0.4148,-0.903166
1630501832671,-0.090463,-0.414373,-0.901946
1630501832680,-0.08942599999999999,-0.41412899999999997,-0.901641
1630501832690,-0.08942599999999999,-0.413763,-0.9021899999999999
1630501832699,-0.088999,-0.41412899999999997,-0.902922
1630501832709,-0.088389,-0.414312,-0.902861
1630501832719,-0.089548,-0.413885,-0.901336
1630501832728,-0.08784,-0.416996,-0.900848
1630501832738,-0.087474,-0.417545,-0.901092
1630501832747,-0.086315,-0.414678,-0.9003599999999999
1630501832757,-0.084302,-0.412177,-0.901824
1630501832767,-0.083082,-0.408151,-0.9021899999999999
1630501832776,-0.08113,-0.405894,-0.905667
1630501832786,-0.081984,-0.405345,-0.9082899999999999
1630501832795,-0.081862,-0.40443,-0.9101199999999999
1630501832805,-0.07991,-0.40272199999999997,-0.912682
1630501832815,-0.080154,-0.403393,-0.91622
1630501832824,-0.07911699999999999,-0.402295,-0.9182939999999999
1630501832834,-0.07972699999999999,-0.400343,-0.921161
1630501832843,-0.079666,-0.398147,-0.9234789999999999
1630501832853,-0.079666,-0.397659,-0.927017
1630501832863,-0.080276,-0.39711,-0.926468
1630501832872,-0.080215,-0.397964,-0.926102
1630501832882,-0.08174,-0.398391,-0.925065
1630501832891,-0.083204,-0.40028199999999997,-0.922442
1630501832901,-0.085034,-0.404003,-0.919697
1630501832911,-0.087413,-0.407724,-0.916464
1630501832920,-0.08845,-0.409066,-0.913048
1630501832930,-0.087596,-0.408456,-0.911767
1630501832939,-0.087718,-0.409676,-0.909022
1630501832949,-0.08912099999999999,-0.411933,-0.906643
1630501832959,-0.08942599999999999,-0.411567,-0.905728
1630501832968,-0.08820599999999999,-0.411811,-0.906033
1630501832978,-0.08820599999999999,-0.410652,-0.905057
1630501832987,-0.087047,-0.409371,-0.903776
1630501832997,-0.08784,-0.407724,-0.903349
1630501833007,-0.088145,-0.40668699999999997,-0.902373
1630501833016,-0.087474,-0.406565,-0.902312
1630501833026,-0.087657,-0.406748,-0.9034099999999999
1630501833035,-0.086376,-0.406931,-0.906582
1630501833045,-0.08558299999999999,-0.40516199999999997,-0.9088999999999999
1630501833055,-0.085034,-0.405406,-0.911706
1630501833064,-0.083692,-0.406626,-0.9128649999999999
1630501833074,-0.083326,-0.409493,-0.914146
1630501833083,-0.083082,-0.41053,-0.914207
1630501833093,-0.08265499999999999,-0.410469,-0.9128649999999999
1630501833103,-0.08295999999999999,-0.409127,-0.9113399999999999
1630501833112,-0.082228,-0.407419,-0.910547
1630501833122,-0.082167,-0.404735,-0.909998
1630501833131,-0.081252,-0.403576,-0.910547
1630501833141,-0.079361,-0.402234,-0.912438
1630501833151,-0.078385,-0.401136,-0.9125599999999999
1630501833160,-0.079666,-0.401258,-0.912682
1630501833170,-0.07869,-0.40077,-0.912987
1630501833179,-0.078934,-0.400526,-0.912438
1630501833189,-0.080215,-0.400099,-0.912804
1630501833199,-0.080703,-0.401075,-0.912804
1630501833208,-0.081252,-0.40089199999999997,-0.913048
1630501833218,-0.080764,-0.401014,-0.914634
1630501833227,-0.082167,-0.401136,-0.914573
1630501833237,-0.081374,-0.401624,-0.915
1630501833247,-0.082838,-0.40241699999999997,-0.915488
1630501833256,-0.083997,-0.40382,-0.914817
1630501833266,-0.085522,-0.404186,-0.915122
1630501833275,-0.08601,-0.405711,-0.915122
1630501833285,-0.087657,-0.408517,-0.914756
1630501833295,-0.08723,-0.407968,-0.9140849999999999
1630501833304,-0.087657,-0.407968,-0.9128649999999999
1630501833314,-0.08662,-0.407541,-0.912438
1630501833323,-0.085705,-0.407968,-0.912316
1630501833333,-0.084668,-0.40687,-0.909876
1630501833343,-0.084729,-0.407541,-0.907924
1630501833352,-0.085339,-0.409798,-0.909144
1630501833362,-0.084851,-0.409432,-0.908534
1630501833371,-0.084729,-0.409554,-0.906582
1630501833381,-0.086437,-0.410164,-0.905667
1630501833391,-0.0854,-0.407724,-0.906643
1630501833400,-0.084546,-0.404796,-0.907192
1630501833410,-0.083875,-0.401258,-0.908168
1630501833419,-0.083509,-0.399062,-0.9101199999999999
1630501833429,-0.08356999999999999,-0.399306,-0.912194
1630501833439,-0.083936,-0.401624,-0.913536
1630501833448,-0.084607,-0.404369,-0.914878
1630501833458,-0.085339,-0.406748,-0.915793
1630501833467,-0.08558299999999999,-0.407236,-0.915732
1630501833477,-0.086254,-0.40516199999999997,-0.915366
1630501833487,-0.086376,-0.40455199999999997,-0.91622
1630501833496,-0.087596,-0.40485699999999997,-0.915244
1630501833506,-0.088145,-0.403759,-0.915976
1630501833515,-0.08851099999999999,-0.405101,-0.914939
1630501833525,-0.090524,-0.40626,-0.913048
1630501833535,-0.092232,-0.40760199999999996,-0.909876
1630501833544,-0.09235399999999999,-0.409188,-0.907924
1630501833554,-0.091866,-0.411506,-0.905728
1630501833563,-0.091988,-0.413336,-0.905423
1630501833573,-0.092171,-0.41290899999999997,-0.904996
1630501833583,-0.091927,-0.41199399999999997,-0.9034099999999999
1630501833592,-0.09204899999999999,-0.411018,-0.902739
1630501833602,-0.093757,-0.411201,-0.901519
1630501833611,-0.092781,-0.409615,-0.902373
1630501833621,-0.092476,-0.40931,-0.902556
1630501833631,-0.092842,-0.409737,-0.904081
1630501833640,-0.092537,-0.409432,-0.904752
1630501833650,-0.092598,-0.409005,-0.905972
1630501833659,-0.093269,-0.40760199999999996,-0.907619
1630501833669,-0.091683,-0.405955,-0.910547
1630501833679,-0.090524,-0.40516199999999997,-0.912438
1630501833688,-0.090036,-0.404735,-0.9134749999999999
1630501833698,-0.089792,-0.404918,-0.914634
1630501833707,-0.089548,-0.40443,-0.915061
1630501833717,-0.089182,-0.40424699999999997,-0.915061
1630501833727,-0.088145,-0.402966,-0.915732
1630501833736,-0.087169,-0.401929,-0.915183
1630501833746,-0.085827,-0.40150199999999997,-0.914878
1630501833755,-0.087169,-0.39997699999999997,-0.913597
1630501833765,-0.088023,-0.39955,-0.913231
1630501833775,-0.088633,-0.398391,-0.913048
1630501833784,-0.08942599999999999,-0.398635,-0.911767
1630501833794,-0.089548,-0.401136,-0.912743
1630501833803,-0.08906,-0.403515,-0.913292
1630501833813,-0.089304,-0.40668699999999997,-0.913597
1630501833823,-0.08973099999999999,-0.40729699999999996,-0.913414
1630501833832,-0.091256,-0.40748,-0.912621
1630501833842,-0.090707,-0.404674,-0.911462
1630501833851,-0.091256,-0.403088,-0.911218
1630501833861,-0.090646,-0.40119699999999997,-0.911157
1630501833871,-0.089975,-0.400404,-0.9116449999999999
1630501833880,-0.090097,-0.400465,-0.912011
1630501833890,-0.089853,-0.401563,-0.9131699999999999
1630501833899,-0.088877,-0.402173,-0.914573
1630501833909,-0.08820599999999999,-0.402478,-0.91561
1630501833919,-0.08784,-0.401868,-0.916098
1630501833928,-0.087291,-0.39967199999999997,-0.916586
1630501833938,-0.087718,-0.399611,-0.916464
1630501833947,-0.08723,-0.398574,-0.917135
1630501833957,-0.086376,-0.397476,-0.917196
1630501833967,-0.087169,-0.39772,-0.915671
1630501833976,-0.088084,-0.399733,-0.915549
1630501833986,-0.087779,-0.40211199999999997,-0.916037
1630501833995,-0.088877,-0.40302699999999997,-0.914207
1630501834005,-0.089182,-0.40363699999999997,-0.912316
1630501834015,-0.089792,-0.407419,-0.910547
1630501834024,-0.089975,-0.40790699999999996,-0.9088999999999999
1630501834034,-0.091256,-0.407114,-0.9067649999999999
1630501834043,-0.09174399999999999,-0.404186,-0.905911
1630501834053,-0.091378,-0.40199,-0.906216
1630501834063,-0.089792,-0.402783,-0.908107
1630501834072,-0.088938,-0.404125,-0.909998
1630501834082,-0.090219,-0.405711,-0.910913
1630501834091,-0.090585,-0.406016,-0.911218
1630501834101,-0.091195,-0.40626,-0.910608
1630501834111,-0.091073,-0.40516199999999997,-0.911706
1630501834120,-0.090036,-0.404735,-0.913536
1630501834130,-0.087413,-0.40455199999999997,-0.915122
1630501834139,-0.08601,-0.404308,-0.91622
1630501834149,-0.085644,-0.40333199999999997,-0.915793
1630501834159,-0.085827,-0.40119699999999997,-0.915427
1630501834168,-0.083692,-0.399794,-0.914268
1630501834178,-0.083997,-0.399001,-0.913902
1630501834187,-0.082594,-0.398208,-0.913719
1630501834197,-0.082228,-0.396439,-0.912987
1630501834207,-0.082106,-0.396378,-0.9140849999999999
1630501834216,-0.081374,-0.397598,-0.914329
1630501834226,-0.082838,-0.400343,-0.912804
1630501834235,-0.084363,-0.399428,-0.911523
1630501834245,-0.085522,-0.398574,-0.9110349999999999
1630501834255,-0.085034,-0.397842,-0.911279
1630501834264,-0.085461,-0.396744,-0.913109
1630501834274,-0.086864,-0.396622,-0.911828
1630501834283,-0.08723,-0.397293,-0.9119499999999999
1630501834293,-0.087596,-0.398452,-0.913414
1630501834303,-0.088755,-0.397964,-0.91439
1630501834312,-0.08784,-0.398818,-0.914756
1630501834322,-0.08851099999999999,-0.399123,-0.915671
1630501834331,-0.089548,-0.399123,-0.916464
1630501834341,-0.08942599999999999,-0.39967199999999997,-0.917135
1630501834351,-0.090585,-0.398513,-0.918416
1630501834360,-0.090646,-0.397842,-0.9182939999999999
1630501834370,-0.090219,-0.397354,-0.91927
1630501834379,-0.088389,-0.397232,-0.91927
1630501834389,-0.087413,-0.397781,-0.91866
1630501834399,-0.087596,-0.397781,-0.9182939999999999
1630501834408,-0.086254,-0.396134,-0.9192089999999999
1630501834418,-0.087352,-0.394853,-0.91744
1630501834427,-0.08662,-0.391376,-0.917135
1630501834437,-0.086315,-0.38948499999999997,-0.917013
1630501834447,-0.087169,-0.391254,-0.917318
1630501834456,-0.08784,-0.393267,-0.91683
1630501834466,-0.088999,-0.396622,-0.915488
1630501834475,-0.09028,-0.399855,-0.9140849999999999
1630501834485,-0.09235399999999999,-0.400953,-0.911767
1630501834495,-0.093574,-0.402966,-0.909266
1630501834504,-0.09455,-0.40333199999999997,-0.906826
1630501834514,-0.09436699999999999,-0.405284,-0.9046299999999999
1630501834523,-0.094611,-0.40626,-0.902922
1630501834533,-0.093574,-0.407358,-0.9034099999999999
1630501834543,-0.09235399999999999,-0.40638199999999997,-0.904203
1630501834552,-0.091561,-0.404003,-0.9052399999999999
1630501834562,-0.090219,-0.40180699999999997,-0.905423
1630501834571,-0.08906,-0.398879,-0.907619
1630501834581,-0.087108,-0.397171,-0.909449
1630501834591,-0.08649799999999999,-0.394731,-0.913353
1630501834600,-0.084607,-0.39436499999999997,-0.9176839999999999
1630501834610,-0.083448,-0.393206,-0.91988
1630501834619,-0.083509,-0.393633,-0.921466
1630501834629,-0.084302,-0.395341,-0.922503
1630501834639,-0.08418,-0.394792,-0.921405
1630501834648,-0.084607,-0.39558499999999996,-0.920917
1630501834658,-0.086132,-0.396561,-0.92049
1630501834667,-0.08649799999999999,-0.39558499999999996,-0.920246
1630501834677,-0.0854,-0.392352,-0.920978
1630501834687,-0.0854,-0.388692,-0.920307
1630501834696,-0.086254,-0.387716,-0.920063
1630501834706,-0.086681,-0.388204,-0.9207339999999999
1630501834715,-0.087474,-0.390888,-0.9201239999999999
1630501834725,-0.088694,-0.394548,-0.9201239999999999
1630501834735,-0.091622,-0.396622,-0.919697
1630501834744,-0.09436699999999999,-0.397842,-0.918721
1630501834754,-0.095038,-0.397598,-0.9182939999999999
1630501834763,-0.095038,-0.397415,-0.91683
1630501834773,-0.095099,-0.398879,-0.916891
1630501834783,-0.095099,-0.399794,-0.915122
1630501834792,-0.094001,-0.400526,-0.914634
1630501834802,-0.094306,-0.40077,-0.914573
1630501834811,-0.093818,-0.401258,-0.915366
1630501834821,-0.092476,-0.40016,-0.914817
1630501834831,-0.092964,-0.39894,-0.9131699999999999
1630501834840,-0.09143899999999999,-0.397476,-0.912011
1630501834850,-0.090524,-0.396744,-0.912377
1630501834859,-0.089853,-0.39711,-0.912316
1630501834869,-0.091073,-0.399245,-0.910791
1630501834879,-0.091012,-0.40150199999999997,-0.9101199999999999
1630501834888,-0.089792,-0.40199,-0.909876
1630501834898,-0.089792,-0.40382,-0.9088999999999999
1630501834907,-0.089548,-0.404186,-0.9095099999999999
1630501834917,-0.09028,-0.405223,-0.909144
1630501834927,-0.08967,-0.40382,-0.908473
1630501834936,-0.090097,-0.40394199999999997,-0.908534
1630501834946,-0.088938,-0.402966,-0.9098149999999999
1630501834955,-0.08784,-0.402478,-0.911706
1630501834965,-0.086742,-0.402478,-0.911889
1630501834975,-0.086925,-0.4026,-0.913414
1630501834984,-0.086254,-0.40058699999999997,-0.914268
1630501834994,-0.084851,-0.40028199999999997,-0.915
1630501835003,-0.08418,-0.399428,-0.916952
1630501835013,-0.083936,-0.39772,-0.918721
1630501835023,-0.083204,-0.395829,-0.918538
1630501835032,-0.082472,-0.395402,-0.9198189999999999
1630501835042,-0.081191,-0.395402,-0.92171
1630501835051,-0.081069,-0.397293,-0.920795
1630501835061,-0.081801,-0.397598,-0.921161
1630501835071,-0.082777,-0.399062,-0.9189039999999999
1630501835080,-0.08356999999999999,-0.400526,-0.918111
1630501835090,-0.084485,-0.400404,-0.916769
1630501835099,-0.085217,-0.400831,-0.913597
1630501835109,-0.086254,-0.402356,-0.913658
1630501835119,-0.08662,-0.402661,-0.912011
1630501835128,-0.087047,-0.40455199999999997,-0.910486
1630501835138,-0.08588799999999999,-0.404064,-0.909571
1630501835147,-0.086315,-0.40382,-0.909449
1630501835157,-0.08680299999999999,-0.403881,-0.909144
1630501835167,-0.08790099999999999,-0.403393,-0.909388
1630501835176,-0.08881599999999999,-0.40455199999999997,-0.908534
1630501835186,-0.088633,-0.40443,-0.909083
1630501835195,-0.090158,-0.40638199999999997,-0.909388
1630501835205,-0.089914,-0.406626,-0.909144
1630501835215,-0.089853,-0.407541,-0.910608
1630501835224,-0.089914,-0.40748,-0.911523
1630501835234,-0.08942599999999999,-0.407419,-0.9113399999999999
1630501835243,-0.088572,-0.40668699999999997,-0.911096
1630501835253,-0.088267,-0.40638199999999997,-0.9116449999999999
1630501835263,-0.08881599999999999,-0.408883,-0.911401
1630501835272,-0.089609,-0.409188,-0.909327
1630501835282,-0.089975,-0.409066,-0.907192
1630501835291,-0.090097,-0.41107899999999997,-0.905484
1630501835301,-0.089975,-0.412055,-0.904386
1630501835311,-0.089609,-0.409676,-0.9034099999999999
1630501835320,-0.087474,-0.407846,-0.901946
1630501835330,-0.08784,-0.406199,-0.9021899999999999
1630501835339,-0.087718,-0.40455199999999997,-0.904081
1630501835349,-0.087779,-0.404308,-0.906094
1630501835359,-0.08906,-0.404491,-0.907619
1630501835368,-0.08912099999999999,-0.406504,-0.9079849999999999
1630501835378,-0.08881599999999999,-0.409188,-0.909693
1630501835387,-0.08881599999999999,-0.410713,-0.911523
1630501835397,-0.08851099999999999,-0.410652,-0.912072
1630501835407,-0.087474,-0.410225,-0.912987
1630501835416,-0.08588799999999999,-0.407846,-0.9134749999999999
1630501835426,-0.0854,-0.406138,-0.914146
1630501835435,-0.084607,-0.404369,-0.9137799999999999
1630501835445,-0.084363,-0.40382,-0.914329
1630501835455,-0.08356999999999999,-0.404979,-0.915
1630501835464,-0.083631,-0.403881,-0.914939
1630501835474,-0.08265499999999999,-0.404674,-0.913963
1630501835483,-0.081557,-0.403698,-0.912804
1630501835493,-0.081252,-0.403759,-0.913048
1630501835503,-0.081923,-0.40302699999999997,-0.9125599999999999
1630501835512,-0.082106,-0.402905,-0.910181
1630501835522,-0.08295999999999999,-0.402905,-0.9092049999999999
1630501835531,-0.08356999999999999,-0.402661,-0.9095099999999999
1630501835541,-0.083509,-0.403881,-0.909876
1630501835551,-0.083814,-0.40443,-0.911523
1630501835560,-0.083753,-0.405223,-0.9137799999999999
1630501835570,-0.083631,-0.403698,-0.913536
1630501835579,-0.083326,-0.403271,-0.914817
1630501835589,-0.08234999999999999,-0.40150199999999997,-0.914756
1630501835599,-0.08265499999999999,-0.400831,-0.914817
1630501835608,-0.082228,-0.399428,-0.915
1630501835618,-0.083204,-0.40150199999999997,-0.916037
1630501835627,-0.083448,-0.40180699999999997,-0.915183
1630501835637,-0.08326499999999999,-0.402905,-0.914329
1630501835647,-0.082899,-0.40333199999999997,-0.913902
1630501835656,-0.083082,-0.40333199999999997,-0.914024
1630501835666,-0.08174,-0.403515,-0.914573
1630501835675,-0.080398,-0.402661,-0.913902
1630501835685,-0.079849,-0.401563,-0.913658
1630501835695,-0.078934,-0.40028199999999997,-0.913536
1630501835704,-0.077348,-0.398879,-0.914329
1630501835714,-0.077653,-0.397964,-0.913902
1630501835723,-0.077531,-0.397903,-0.913048
1630501835733,-0.07747,-0.397842,-0.912621
1630501835743,-0.078507,-0.39955,-0.9125599999999999
1630501835752,-0.07747,-0.401685,-0.913048
1630501835762,-0.07710399999999999,-0.401685,-0.912621
1630501835771,-0.076677,-0.400099,-0.912438
1630501835781,-0.074908,-0.396683,-0.913292
1630501835791,-0.07448099999999999,-0.39436499999999997,-0.91561
1630501835800,-0.074054,-0.39344999999999997,-0.91561
1630501835810,-0.075396,-0.393267,-0.915976
1630501835819,-0.075335,-0.392901,-0.914451
1630501835829,-0.075701,-0.39466999999999997,-0.914634
1630501835839,-0.078019,-0.395463,-0.9134749999999999
1630501835848,-0.08003199999999999,-0.397903,-0.913292
1630501835858,-0.080581,-0.399794,-0.913048
1630501835867,-0.081862,-0.40180699999999997,-0.913231
1630501835877,-0.082777,-0.402966,-0.9131699999999999
1630501835887,-0.081801,-0.402295,-0.914268
1630501835896,-0.080154,-0.40028199999999997,-0.914756
1630501835906,-0.08033699999999999,-0.396927,-0.915244
1630501835915,-0.079788,-0.396866,-0.916647
1630501835925,-0.08033699999999999,-0.396866,-0.916769
1630501835935,-0.080947,-0.3965,-0.916159
1630501835944,-0.08234999999999999,-0.397781,-0.916708
1630501835954,-0.083143,-0.398086,-0.91561
1630501835963,-0.082838,-0.396622,-0.914756
1630501835973,-0.08418,-0.393877,-0.915
1630501835983,-0.082838,-0.39161999999999997,-0.916769
1630501835992,-0.082228,-0.391559,-0.91988
1630501836002,-0.081618,-0.392779,-0.922442
1630501836011,-0.08052,-0.393938,-0.924943
1630501836021,-0.08052,-0.39497499999999997,-0.926102
1630501836031,-0.08033699999999999,-0.392779,-0.926163
1630501836040,-0.08113,-0.39070499999999997,-0.9259189999999999
1630501836050,-0.082228,-0.390766,-0.925675
1630501836059,-0.081984,-0.390827,-0.92476
1630501836069,-0.082594,-0.393694,-0.922747
1630501836079,-0.08497299999999999,-0.394853,-0.920673
1630501836088,-0.08479,-0.397842,-0.91744
1630501836098,-0.085461,-0.399611,-0.913231
1630501836107,-0.086681,-0.40180699999999997,-0.910059
1630501836117,-0.087169,-0.401136,-0.907741
1630501836127,-0.088084,-0.400831,-0.907253
1630501836136,-0.086864,-0.399855,-0.907314
1630501836146,-0.086376,-0.399062,-0.908656
1630501836155,-0.085766,-0.398879,-0.909388
1630501836165,-0.085705,-0.400709,-0.9088999999999999
1630501836175,-0.0854,-0.401136,-0.909693
1630501836184,-0.084546,-0.401014,-0.911096
1630501836194,-0.083448,-0.399306,-0.9137799999999999
1630501836203,-0.08234999999999999,-0.396866,-0.914878
1630501836213,-0.08174,-0.39466999999999997,-0.916464
1630501836223,-0.08064199999999999,-0.393572,-0.9182939999999999
1630501836232,-0.079971,-0.391071,-0.917745
1630501836242,-0.080093,-0.390278,-0.917928
1630501836251,-0.079483,-0.391498,-0.919331
1630501836261,-0.079483,-0.393572,-0.919758
1630501836271,-0.07991,-0.395219,-0.921466
1630501836280,-0.0793,-0.39711,-0.922808
1630501836290,-0.07911699999999999,-0.397232,-0.922808
1630501836299,-0.078568,-0.396134,-0.92293
1630501836309,-0.079056,-0.394731,-0.923967
1630501836319,-0.078995,-0.395097,-0.92476
1630501836328,-0.078202,-0.396805,-0.924882
1630501836338,-0.079788,-0.399428,-0.921588
1630501836347,-0.079605,-0.40150199999999997,-0.920307
1630501836357,-0.079544,-0.40089199999999997,-0.917135
1630501836367,-0.078751,-0.39955,-0.915305
1630501836376,-0.077348,-0.398879,-0.912499
1630501836386,-0.075518,-0.398574,-0.910974
1630501836395,-0.075335,-0.398452,-0.9101199999999999
1630501836405,-0.07503,-0.400099,-0.908046
1630501836415,-0.07448099999999999,-0.400465,-0.909144
1630501836424,-0.07326099999999999,-0.401441,-0.909144
1630501836434,-0.07356599999999999,-0.40199,-0.910181
1630501836443,-0.072102,-0.399855,-0.910974
1630501836453,-0.071736,-0.398452,-0.912438
1630501836463,-0.070272,-0.398513,-0.913841
1630501836472,-0.069601,-0.397659,-0.914024
1630501836482,-0.068625,-0.3965,-0.915244
1630501836491,-0.068564,-0.395463,-0.914939
1630501836501,-0.06831999999999999,-0.395219,-0.915
1630501836511,-0.067771,-0.39558499999999996,-0.913231
1630501836520,-0.067771,-0.396134,-0.915915
1630501836530,-0.067283,-0.396866,-0.916403
1630501836539,-0.068442,-0.397476,-0.91561
1630501836549,-0.069113,-0.396683,-0.915793
1630501836559,-0.068564,-0.397476,-0.917013
1630501836568,-0.068564,-0.39833,-0.9185989999999999
1630501836578,-0.068625,-0.396866,-0.91805
1630501836587,-0.067649,-0.397598,-0.918416
1630501836597,-0.06649,-0.398391,-0.917928
1630501836607,-0.067344,-0.397049,-0.917196
1630501836616,-0.067039,-0.394609,-0.91683
1630501836626,-0.067222,-0.39161999999999997,-0.916342
1630501836635,-0.067771,-0.390339,-0.916952
1630501836645,-0.066856,-0.391803,-0.918782
1630501836655,-0.06801499999999999,-0.395646,-0.9211
1630501836664,-0.06954,-0.397781,-0.920978
1630501836674,-0.07137,-0.40016,-0.920856
1630501836683,-0.072834,-0.399733,-0.920246
1630501836693,-0.073139,-0.398513,-0.918721
1630501836703,-0.073383,-0.398147,-0.917501
1630501836712,-0.074542,-0.398147,-0.916281
1630501836722,-0.074054,-0.396927,-0.915122
1630501836731,-0.07417599999999999,-0.396683,-0.915366
1630501836741,-0.07417599999999999,-0.396317,-0.914878
1630501836751,-0.07442,-0.3965,-0.915183
1630501836760,-0.07448099999999999,-0.394914,-0.915671
1630501836770,-0.074786,-0.393572,-0.915732
1630501836779,-0.075274,-0.393938,-0.91622
1630501836789,-0.075091,-0.392413,-0.918355
1630501836799,-0.07442,-0.392657,-0.919636
1630501836808,-0.07503,-0.394304,-0.920063
1630501836818,-0.076982,-0.39466999999999997,-0.9189039999999999
1630501836827,-0.078446,-0.394426,-0.9179889999999999
1630501836837,-0.07740899999999999,-0.393816,-0.918172
1630501836847,-0.077897,-0.394548,-0.917928
1630501836856,-0.078629,-0.394609,-0.916647
1630501836866,-0.078812,-0.39527999999999996,-0.917501
1630501836875,-0.079178,-0.395707,-0.91683
1630501836885,-0.079483,-0.396378,-0.916098
1630501836895,-0.08003199999999999,-0.39527999999999996,-0.917501
1630501836904,-0.080825,-0.39466999999999997,-0.917074
1630501836914,-0.07991,-0.393694,-0.916952
1630501836923,-0.08033699999999999,-0.39466999999999997,-0.917013
1630501836933,-0.079239,-0.39405999999999997,-0.917257
1630501836943,-0.07911699999999999,-0.393389,-0.917562
1630501836952,-0.0793,-0.392413,-0.9185989999999999
1630501836962,-0.078995,-0.391193,-0.91805
1630501836971,-0.078995,-0.390461,-0.918355
1630501836981,-0.077653,-0.391376,-0.919331
1630501836991,-0.07747,-0.39161999999999997,-0.920612
1630501837000,-0.079239,-0.391864,-0.920063
1630501837010,-0.081069,-0.390888,-0.919758
1630501837019,-0.081252,-0.392901,-0.91927
1630501837029,-0.082106,-0.39314499999999997,-0.920856
1630501837039,-0.082167,-0.395158,-0.92232
1630501837048,-0.080764,-0.396622,-0.923113
1630501837058,-0.08003199999999999,-0.396073,-0.923113
1630501837067,-0.079361,-0.394792,-0.923662
1630501837077,-0.080703,-0.395158,-0.922442
1630501837087,-0.081252,-0.393572,-0.921283
1630501837096,-0.080886,-0.39253499999999997,-0.920612
1630501837106,-0.08033699999999999,-0.392352,-0.921283
1630501837115,-0.080215,-0.39314499999999997,-0.9219539999999999
1630501837125,-0.080093,-0.394914,-0.923296
1630501837135,-0.079666,-0.397537,-0.92415
1630501837144,-0.079239,-0.397232,-0.924821
1630501837154,-0.079666,-0.393694,-0.924211
1630501837163,-0.078629,-0.388204,-0.9250039999999999
1630501837173,-0.0793,-0.385764,-0.9250039999999999
1630501837183,-0.079361,-0.385581,-0.92537
1630501837192,-0.079239,-0.388387,-0.92781
1630501837202,-0.078934,-0.391681,-0.928847
1630501837211,-0.079849,-0.394731,-0.930128
1630501837221,-0.081801,-0.396317,-0.928725
1630501837231,-0.082472,-0.396622,-0.9256139999999999
1630501837240,-0.085522,-0.399428,-0.921588
1630501837250,-0.088938,-0.40241699999999997,-0.916708
1630501837259,-0.09235399999999999,-0.40626,-0.912194
1630501837269,-0.094733,-0.409188,-0.907741
1630501837279,-0.096929,-0.411567,-0.902922
1630501837288,-0.097783,-0.41358,-0.901153
1630501837298,-0.096807,-0.415288,-0.900543
1630501837307,-0.095099,-0.416081,-0.901458
1630501837317,-0.094306,-0.418155,-0.902068
1630501837327,-0.092781,-0.41992399999999996,-0.903227
1630501837336,-0.09272,-0.420778,-0.903471
1630501837346,-0.091988,-0.420168,-0.903471
1630501837355,-0.091683,-0.421754,-0.903044
1630501837365,-0.090585,-0.423767,-0.902068
1630501837375,-0.091012,-0.42614599999999997,-0.900604
1630501837384,-0.090524,-0.42645099999999997,-0.899628
1630501837394,-0.090768,-0.425963,-0.898042
1630501837403,-0.090036,-0.427122,-0.898774
1630501837413,-0.089182,-0.426817,-0.900543
1630501837423,-0.08967,-0.42767099999999997,-0.901946
1630501837432,-0.08973099999999999,-0.42797599999999997,-0.903227
1630501837442,-0.089914,-0.430294,-0.9043249999999999
1630501837451,-0.089609,-0.434747,-0.9040199999999999
1630501837461,-0.088755,-0.440481,-0.902312
1630501837471,-0.088755,-0.445666,-0.8997499999999999
1630501837480,-0.087718,-0.447557,-0.898164
1630501837490,-0.08790099999999999,-0.44469,-0.896029
1630501837499,-0.087596,-0.444324,-0.894992
1630501837509,-0.088023,-0.44286,-0.894626
1630501837519,-0.08790099999999999,-0.443104,-0.896029
1630501837528,-0.08784,-0.446276,-0.895297
1630501837538,-0.087535,-0.447618,-0.895358
1630501837547,-0.087535,-0.449082,-0.894321
1630501837557,-0.08601,-0.448777,-0.89182
1630501837567,-0.08601,-0.442616,-0.886818
1630501837576,-0.087108,-0.436394,-0.88328
1630501837586,-0.08723,-0.436699,-0.884134
1630501837595,-0.086437,-0.44042,-0.886574
1630501837605,-0.086437,-0.447008,-0.888038
1630501837615,-0.086559,-0.450424,-0.887855
1630501837624,-0.086559,-0.45078999999999997,-0.888648
1630501837634,-0.085644,-0.452559,-0.889258
1630501837643,-0.085644,-0.451156,-0.889868
1630501837653,-0.084607,-0.451522,-0.8894409999999999
1630501837663,-0.08601,-0.44712999999999997,-0.885964
1630501837672,-0.088877,-0.443104,-0.882243
1630501837682,-0.09089,-0.444995,-0.883463
1630501837691,-0.08973099999999999,-0.451461,-0.885354
1630501837701,-0.090646,-0.46006199999999997,-0.884805
1630501837711,-0.091622,-0.467931,-0.884439
1630501837720,-0.090463,-0.473421,-0.885293
1630501837730,-0.08942599999999999,-0.476532,-0.883524
1630501837739,-0.088755,-0.478606,-0.882304
1630501837749,-0.087474,-0.477203,-0.879498
1630501837759,-0.08820599999999999,-0.471713,-0.876387
1630501837768,-0.085766,-0.465125,-0.87352
1630501837778,-0.08418,-0.460184,-0.873093
1630501837787,-0.08295999999999999,-0.461648,-0.874557
1630501837797,-0.081557,-0.46726,-0.876692
1630501837807,-0.081252,-0.474153,-0.878644
1630501837816,-0.08204499999999999,-0.48122899999999996,-0.8818159999999999
1630501837826,-0.080215,-0.484462,-0.884439
1630501837835,-0.079788,-0.484035,-0.884805
1630501837845,-0.078629,-0.48129,-0.882792
1630501837855,-0.078385,-0.478972,-0.88267
1630501837864,-0.077897,-0.480985,-0.880474
1630501837874,-0.07808,-0.482937,-0.8787659999999999
1630501837883,-0.078263,-0.487512,-0.87596
1630501837893,-0.079483,-0.493734,-0.873825
1630501837903,-0.08174,-0.500505,-0.870287
1630501837912,-0.085461,-0.502213,-0.865163
1630501837922,-0.086376,-0.499651,-0.862906
1630501837931,-0.089243,-0.498065,-0.859734
1630501837941,-0.092476,-0.500932,-0.854854
1630501837951,-0.099064,-0.507825,-0.8501569999999999
1630501837960,-0.106201,-0.516487,-0.843935
1630501837970,-0.11516799999999999,-0.525332,-0.839787
1630501837979,-0.122671,-0.530334,-0.836859
1630501837989,-0.126087,-0.530151,-0.837347
1630501837999,-0.12895399999999999,-0.526308,-0.837896
1630501838008,-0.12864899999999999,-0.519659,-0.842105
1630501838018,-0.127002,-0.515389,-0.844728
1630501838027,-0.127124,-0.511912,-0.848083
1630501838037,-0.125782,-0.511302,-0.8498519999999999
1630501838047,-0.12395199999999999,-0.510509,-0.851316
1630501838056,-0.121573,-0.511668,-0.8477169999999999
1630501838066,-0.120292,-0.5152059999999999,-0.843142
1630501838075,-0.119499,-0.5203909999999999,-0.840397
1630501838085,-0.11895,-0.524356,-0.8364929999999999
1630501838095,-0.119072,-0.527223,-0.83448
1630501838104,-0.117913,-0.528565,-0.833504
1630501838114,-0.1159,-0.531432,-0.835639
1630501838123,-0.11376499999999999,-0.533689,-0.837286
1630501838133,-0.110715,-0.535092,-0.83631
1630501838143,-0.109678,-0.533506,-0.8346629999999999
1630501838152,-0.10919,-0.532469,-0.831125
1630501838162,-0.110166,-0.530761,-0.827099
1630501838171,-0.110593,-0.532408,-0.8242929999999999
1630501838181,-0.113399,-0.532896,-0.8227679999999999
1630501838191,-0.113887,-0.5377149999999999,-0.820633
1630501838200,-0.114131,-0.543449,-0.817644
1630501838210,-0.11773,-0.550525,-0.817217
1630501838219,-0.119682,-0.556198,-0.816729
1630501838229,-0.120658,-0.556686,-0.816607
1630501838239,-0.120902,-0.555588,-0.8174
1630501838248,-0.120414,-0.554124,-0.818742
1630501838258,-0.119987,-0.552782,-0.819047
1630501838267,-0.117913,-0.55083,-0.820328
1630501838277,-0.118035,-0.549854,-0.820572
1630501838287,-0.11712,-0.551196,-0.819596
1630501838296,-0.117425,-0.551867,-0.81923
1630501838306,-0.116937,-0.554124,-0.82045
1630501838315,-0.117486,-0.553514,-0.819718
1630501838325,-0.117608,-0.554002,-0.819718
1630501838335,-0.117181,-0.553758,-0.821548
1630501838344,-0.11529,-0.552416,-0.823317
1630501838354,-0.116022,-0.551074,-0.825025
1630501838363,-0.116144,-0.550525,-0.827404
1630501838373,-0.116144,-0.548878,-0.829417
1630501838383,-0.1159,-0.549976,-0.8313079999999999
1630501838392,-0.117608,-0.551318,-0.829722
1630501838402,-0.11956,-0.552294,-0.827282
1630501838411,-0.123525,-0.553209,-0.824476
1630501838421,-0.12749,-0.556137,-0.820328
1630501838431,-0.130601,-0.55876,-0.8174
1630501838440,-0.132858,-0.562786,-0.814716
1630501838450,-0.13572499999999998,-0.566202,-0.812276
1630501838459,-0.138592,-0.569618,-0.8081889999999999
1630501838469,-0.142252,-0.569557,-0.803126
1630501838479,-0.144814,-0.569496,-0.8008689999999999
1630501838488,-0.146339,-0.5660189999999999,-0.801113
1630501838498,-0.146278,-0.560468,-0.801906
1630501838507,-0.144631,-0.558272,-0.8030039999999999
1630501838517,-0.143411,-0.557784,-0.804651
1630501838527,-0.145973,-0.556503,-0.804712
1630501838536,-0.148108,-0.556015,-0.805078
1630501838546,-0.149999,-0.560712,-0.804346
1630501838555,-0.14945,-0.564982,-0.805932
1630501838565,-0.15237799999999999,-0.562908,-0.805871
1630501838575,-0.152561,-0.560346,-0.806481
1630501838584,-0.152927,-0.558089,-0.807823
1630501838594,-0.152134,-0.561261,-0.807518
1630501838603,-0.15207299999999999,-0.5663239999999999,-0.806237
1630501838613,-0.15481799999999998,-0.569496,-0.8036139999999999
1630501838623,-0.156526,-0.568337,-0.804468
1630501838632,-0.157502,-0.5644939999999999,-0.8057489999999999
1630501838642,-0.156526,-0.559675,-0.811666
1630501838651,-0.153781,-0.554795,-0.819657
1630501838661,-0.149816,-0.546133,-0.8249029999999999
1630501838671,-0.143411,-0.541802,-0.826855
1630501838680,-0.138165,-0.5395449999999999,-0.829722
1630501838690,-0.133529,-0.536922,-0.829417
1630501838699,-0.130601,-0.533201,-0.830515
1630501838709,-0.12925899999999999,-0.530517,-0.833504
1630501838719,-0.127551,-0.525393,-0.8361879999999999
1630501838728,-0.125172,-0.519598,-0.838872
1630501838738,-0.12102399999999999,-0.510997,-0.842166
1630501838747,-0.117608,-0.503128,-0.8461919999999999
1630501838757,-0.113338,-0.501298,-0.8486319999999999
1630501838767,-0.10919,-0.506544,-0.846619
1630501838776,-0.111996,-0.51728,-0.84607
1630501838786,-0.113948,-0.526186,-0.84668
1630501838795,-0.11529,-0.534482,-0.845826
1630501838805,-0.11840099999999999,-0.53436,-0.845216
1630501838815,-0.121512,-0.53131,-0.845643
1630501838824,-0.12261,-0.53192,-0.84546
1630501838834,-0.12163399999999999,-0.535824,-0.844057
1630501838843,-0.119743,-0.5422899999999999,-0.841373
1630501838853,-0.11931599999999999,-0.545767,-0.838689
1630501838863,-0.117608,-0.548573,-0.8364929999999999
1630501838872,-0.115717,-0.546194,-0.8343579999999999
1630501838882,-0.11699799999999999,-0.542656,-0.832955
1630501838891,-0.119438,-0.535702,-0.826855
1630501838901,-0.124745,-0.533201,-0.820877
1630501838911,-0.128161,-0.538874,-0.818803
1630501838920,-0.131394,-0.547597,-0.8174
1630501838930,-0.133102,-0.557784,-0.817461
1630501838939,-0.133834,-0.566446,-0.816546
1630501838949,-0.136396,-0.573278,-0.8164239999999999
1630501838959,-0.139263,-0.577487,-0.814472
1630501838968,-0.140727,-0.577365,-0.8124589999999999
1630501838978,-0.143655,-0.573034,-0.809165
1630501838987,-0.145363,-0.566812,-0.810263
1630501838997,-0.144021,-0.560895,-0.814838
1630501839007,-0.141703,-0.558089,-0.821914
1630501839016,-0.138775,-0.554795,-0.828502
1630501839026,-0.13511499999999999,-0.549061,-0.835029
1630501839035,-0.133346,-0.544547,-0.840092
1630501839045,-0.12932,-0.541558,-0.84424
1630501839055,-0.125172,-0.540948,-0.8479
1630501839064,-0.122732,-0.542778,-0.84851
1630501839074,-0.120536,-0.546804,-0.849608
1630501839083,-0.119682,-0.549976,-0.84668
1630501839093,-0.12078,-0.554124,-0.842044
1630501839103,-0.122061,-0.557113,-0.83631
1630501839112,-0.12224399999999999,-0.557967,-0.8296
1630501839122,-0.12285399999999999,-0.559248,-0.824049
1630501839131,-0.122671,-0.559675,-0.819108
1630501839141,-0.121878,-0.56242,-0.816912
1630501839151,-0.120048,-0.565165,-0.815631
1630501839160,-0.11956,-0.566141,-0.8127639999999999
1630501839170,-0.119438,-0.567605,-0.811361
1630501839179,-0.11895,-0.569618,-0.810446
1630501839189,-0.120292,-0.572851,-0.809226
1630501839199,-0.11992599999999999,-0.576084,-0.807762
1630501839208,-0.11901099999999999,-0.577182,-0.805871
1630501839218,-0.117608,-0.575779,-0.803736
1630501839227,-0.114924,-0.57462,-0.803553
1630501839237,-0.113399,-0.573095,-0.804285
1630501839247,-0.11114199999999999,-0.57462,-0.806237
1630501839256,-0.109434,-0.575413,-0.807335
1630501839266,-0.107055,-0.575962,-0.808006
1630501839275,-0.104859,-0.57645,-0.8081889999999999
1630501839285,-0.103273,-0.574193,-0.806725
1630501839295,-0.101016,-0.5718139999999999,-0.807396
1630501839304,-0.09943,-0.574925,-0.811788
1630501839314,-0.096319,-0.577975,-0.81618
1630501839323,-0.094306,-0.583648,-0.817644
1630501839333,-0.090951,-0.591517,-0.818559
1630501839343,-0.090463,-0.595604,-0.816241
1630501839352,-0.091805,-0.598654,-0.81191
1630501839362,-0.094123,-0.599935,-0.80703
1630501839371,-0.097966,-0.601582,-0.798368
1630501839381,-0.102724,-0.603717,-0.790987
1630501839391,-0.10492,-0.607804,-0.786046
1630501839400,-0.109129,-0.6116469999999999,-0.784887
1630501839410,-0.113582,-0.614453,-0.787876
1630501839419,-0.115717,-0.613538,-0.791231
1630501839429,-0.118218,-0.60756,-0.793244
1630501839439,-0.119377,-0.595299,-0.795745
1630501839448,-0.120475,-0.583282,-0.797392
1630501839458,-0.119865,-0.577304,-0.80215
1630501839467,-0.12139,-0.576694,-0.8017839999999999
1630501839477,-0.12566,-0.578585,-0.801906
1630501839487,-0.126392,-0.583587,-0.802028
1630501839496,-0.127002,-0.590114,-0.800198
1630501839506,-0.128405,-0.5917,-0.798612
1630501839515,-0.12749,-0.592066,-0.798063
1630501839525,-0.12315899999999999,-0.595726,-0.799283
1630501839535,-0.119133,-0.595421,-0.798612
1630501839544,-0.11651,-0.5906629999999999,-0.796904
1630501839554,-0.111874,-0.581757,-0.796111
1630501839563,-0.105957,-0.571936,-0.797819
1630501839573,-0.100955,-0.55937,-0.797331
1630501839583,-0.097417,-0.547597,-0.794464
1630501839592,-0.095953,-0.535214,-0.791536
1630501839602,-0.096258,-0.526552,-0.788364
1630501839611,-0.098271,-0.524112,-0.786717
1630501839621,-0.102175,-0.531127,-0.787266
1630501839631,-0.104798,-0.538813,-0.793061
1630501839640,-0.10614,-0.545828,-0.7999539999999999
1630501839650,-0.10668899999999999,-0.5480849999999999,-0.807335
1630501839659,-0.106262,-0.547414,-0.813252
1630501839669,-0.107665,-0.544181,-0.819718
1630501839679,-0.10961699999999999,-0.542046,-0.824659
1630501839688,-0.111874,-0.540948,-0.831064
1630501839698,-0.113033,-0.5398499999999999,-0.8358829999999999
1630501839707,-0.115656,-0.5364949999999999,-0.839177
1630501839717,-0.117974,-0.535214,-0.84241
1630501839727,-0.12132899999999999,-0.538081,-0.84363
1630501839736,-0.122671,-0.541863,-0.8464969999999999
1630501839746,-0.12627,-0.5447299999999999,-0.845765
1630501839755,-0.134444,-0.547902,-0.841983
1630501839765,-0.139263,-0.554368,-0.839604
1630501839775,-0.141947,-0.561505,-0.834724
1630501839784,-0.145668,-0.570655,-0.824232
1630501839794,-0.14926699999999998,-0.580781,-0.8133739999999999
1630501839803,-0.154025,-0.5891379999999999,-0.803492
1630501839813,-0.155977,-0.5918829999999999,-0.796843
1630501839823,-0.1586,-0.5927979999999999,-0.789584
1630501839832,-0.157624,-0.595726,-0.788669
1630501839842,-0.159332,-0.592981,-0.789218
1630501839851,-0.163114,-0.587979,-0.790011
1630501839861,-0.16591999999999998,-0.581269,-0.796904
1630501839871,-0.167933,-0.5712039999999999,-0.8052
1630501839880,-0.16775,-0.561505,-0.8121539999999999
1630501839890,-0.166591,-0.55815,-0.8158139999999999
1630501839899,-0.169092,-0.56608,-0.821792
1630501839909,-0.169153,-0.579195,-0.828929
1630501839919,-0.170007,-0.592066,-0.835334
1630501839928,-0.169885,-0.597434,-0.8389329999999999
1630501839938,-0.169031,-0.596214,-0.8377129999999999
1630501839947,-0.16897,-0.598105,-0.828624
1630501839957,-0.162504,-0.594201,-0.8349679999999999
1630501839967,-0.158417,-0.5934079999999999,-0.831674
1630501839976,-0.153415,-0.591456,-0.822402
1630501839986,-0.152866,-0.5903579999999999,-0.8115439999999999
1630501839995,-0.155062,-0.588162,-0.79849
1630501840005,-0.156465,-0.587491,-0.788913
1630501840015,-0.159942,-0.585722,-0.780983
1630501840024,-0.166042,-0.58926,-0.775188
1630501840034,-0.17299599999999998,-0.596702,-0.773907
1630501840043,-0.17824199999999998,-0.604388,-0.770674
1630501840053,-0.187087,-0.6107319999999999,-0.765794
1630501840063,-0.19489499999999998,-0.6161,-0.76067
1630501840072,-0.200568,-0.6222,-0.754265
1630501840082,-0.20691199999999998,-0.63013,-0.744444
1630501840091,-0.212219,-0.637938,-0.73566
1630501840101,-0.218685,-0.643794,-0.728401
1630501840111,-0.22447999999999999,-0.64904,-0.718946
1630501840120,-0.230519,-0.6554449999999999,-0.709796
1630501840130,-0.23430099999999998,-0.660874,-0.700158
1630501840139,-0.235948,-0.663192,-0.692106
1630501840149,-0.238205,-0.665571,-0.685396
1630501840159,-0.239059,-0.6655099999999999,-0.681065
1630501840168,-0.241804,-0.6639849999999999,-0.680455
1630501840178,-0.243146,-0.660752,-0.6816139999999999
1630501840187,-0.241926,-0.654713,-0.6831389999999999
1630501840197,-0.241499,-0.650443,-0.6831389999999999
1630501840207,-0.240523,-0.648979,-0.684603
1630501840216,-0.237961,-0.652151,-0.686738
1630501840226,-0.23338599999999998,-0.657458,-0.686738
1630501840235,-0.232532,-0.664778,-0.6813089999999999
1630501840245,-0.235948,-0.666242,-0.67588
1630501840255,-0.24015699999999998,-0.661728,-0.670146
1630501840264,-0.24357299999999998,-0.657702,-0.667828
1630501840274,-0.24418299999999998,-0.654774,-0.669902
1630501840283,-0.245342,-0.653554,-0.674294
1630501840293,-0.244061,-0.655994,-0.678869
1630501840303,-0.239425,-0.659532,-0.684298
1630501840312,-0.238144,-0.667706,-0.68869
1630501840322,-0.24046199999999998,-0.675636,-0.693387
1630501840331,-0.242597,-0.677771,-0.701378
1630501840341,-0.241621,-0.673745,-0.710467
1630501840351,-0.243512,-0.668804,-0.718519
1630501840360,-0.244976,-0.6676449999999999,-0.723948
1630501840370,-0.245464,-0.670207,-0.728706
1630501840379,-0.24357299999999998,-0.676673,-0.729743
1630501840389,-0.23924199999999998,-0.6797839999999999,-0.7287669999999999
1630501840399,-0.236314,-0.681065,-0.724741
1630501840408,-0.23338599999999998,-0.673196,-0.7181529999999999
1630501840418,-0.231434,-0.6621549999999999,-0.711382
1630501840427,-0.231068,-0.653493,-0.706807
1630501840437,-0.229848,-0.64843,-0.70089
1630501840447,-0.228079,-0.64111,-0.695583
1630501840456,-0.226737,-0.63928,-0.6904589999999999
1630501840466,-0.224358,-0.6384259999999999,-0.688263
1630501840475,-0.223321,-0.639158,-0.68564
1630501840485,-0.221186,-0.6369009999999999,-0.684908
1630501840495,-0.220393,-0.631533,-0.687836
1630501840504,-0.21923399999999998,-0.624518,-0.6932039999999999
1630501840514,-0.217465,-0.617869,-0.700707
1630501840523,-0.216489,-0.617808,-0.709796
1630501840533,-0.214415,-0.61976,-0.718336
1630501840543,-0.21337799999999998,-0.621041,-0.72712
1630501840552,-0.215452,-0.623603,-0.733159
1630501840562,-0.21612299999999998,-0.6201869999999999,-0.738588
1630501840571,-0.217831,-0.61915,-0.74359
1630501840581,-0.21862399999999999,-0.622749,-0.746518
1630501840591,-0.219051,-0.623664,-0.749629
1630501840600,-0.221735,-0.6222,-0.74908
1630501840610,-0.222833,-0.621712,-0.750178
1630501840619,-0.22228399999999998,-0.62281,-0.75213
1630501840629,-0.220088,-0.618723,-0.751032
1630501840639,-0.217282,-0.6134769999999999,-0.746762
1630501840648,-0.21398799999999998,-0.609695,-0.740784
1630501840658,-0.211487,-0.60329,-0.734806
1630501840667,-0.210633,-0.602558,-0.731573
1630501840677,-0.210938,-0.604998,-0.730414
1630501840687,-0.21411,-0.606401,-0.728828
1630501840696,-0.215269,-0.605669,-0.720837
1630501840706,-0.212951,-0.596946,-0.710284
1630501840715,-0.223748,-0.622261,-0.720654
1630501840725,-0.226676,-0.64538,-0.72712
1630501840735,-0.230885,-0.658922,-0.731024
1630501840744,-0.23832699999999998,-0.672037,-0.73261
1630501840754,-0.239425,-0.671854,-0.7278519999999999
1630501840763,-0.241499,-0.673684,-0.723582
1630501840773,-0.245769,-0.684481,-0.725412
1630501840783,-0.247782,-0.694729,-0.721508
1630501840792,-0.250649,-0.693631,-0.713944
1630501840802,-0.25132,-0.68747,-0.706197
1630501840811,-0.24881899999999998,-0.681858,-0.701073
1630501840821,-0.247721,-0.674355,-0.697901
1630501840831,-0.24644,-0.6636799999999999,-0.696559
1630501840840,-0.246928,-0.652639,-0.695949
1630501840850,-0.250039,-0.650321,-0.696986
1630501840859,-0.254492,-0.652212,-0.69845
1630501840869,-0.25851799999999997,-0.658556,-0.699243
1630501840879,-0.260226,-0.664046,-0.700036
1630501840888,-0.26126299999999997,-0.665449,-0.698145
1630501840898,-0.26352,-0.659654,-0.697596
1630501840907,-0.26535,-0.656726,-0.696559
1630501840917,-0.265716,-0.652395,-0.696132
1630501840927,-0.268644,-0.643733,-0.696864
1630501840936,-0.271389,-0.640378,-0.700707
1630501840946,-0.273707,-0.650138,-0.7076
1630501840955,-0.27633,-0.670573,-0.715042
1630501840965,-0.27938,-0.685518,-0.7187629999999999
1630501840975,-0.286517,-0.701988,-0.719312
1630501840984,-0.291946,-0.712602,-0.716384
1630501840994,-0.293471,-0.712419,-0.709125
1630501841003,-0.291702,-0.705709,-0.700402
1630501841013,-0.28487,-0.701073,-0.693448
1630501841023,-0.274683,-0.693265,-0.687226
1630501841032,-0.26779,-0.6861889999999999,-0.688446
1630501841042,-0.262727,-0.683322,-0.6928989999999999
1630501841051,-0.25742,-0.6794789999999999,-0.696681
1630501841061,-0.256566,-0.684237,-0.69967
1630501841071,-0.255041,-0.686128,-0.696254
1630501841080,-0.254309,-0.683017,-0.685335
1630501841090,-0.253089,-0.678808,-0.67283
1630501841099,-0.252357,-0.665693,-0.661118
1630501841109,-0.253882,-0.657153,-0.651175
1630501841119,-0.25559,-0.6557499999999999,-0.644343
1630501841128,-0.255041,-0.662643,-0.639585
1630501841138,-0.251869,-0.671061,-0.635864
1630501841147,-0.24217,-0.6679499999999999,-0.629642
1630501841157,-0.23607,-0.668011,-0.631167
1630501841167,-0.224114,-0.6673399999999999,-0.6369009999999999
1630501841176,-0.212219,-0.6578849999999999,-0.641842
1630501841186,-0.203984,-0.653554,-0.654103
1630501841195,-0.200812,-0.6575799999999999,-0.671915
1630501841205,-0.199958,-0.658129,-0.695095
1630501841215,-0.202337,-0.670024,-0.7278519999999999
1630501841224,-0.199958,-0.69174,-0.762317
1630501841234,-0.194651,-0.7096129999999999,-0.790743
1630501841243,-0.186172,-0.71553,-0.8130689999999999
1630501841253,-0.181902,-0.7132729999999999,-0.83082
1630501841263,-0.179706,-0.711809,-0.856379
1630501841272,-0.182512,-0.721142,-0.892247
1630501841282,-0.18531799999999998,-0.729255,-0.92476
1630501841291,-0.187209,-0.726571,-0.942816
1630501841301,-0.184586,-0.7198,-0.947086
1630501841311,-0.180316,-0.718092,-0.940254
1630501841320,-0.168116,-0.7062579999999999,-0.928603
1630501841330,-0.15914899999999998,-0.691252,-0.917806
1630501841339,-0.149145,-0.674294,-0.904447
1630501841349,-0.141703,-0.65514,-0.893528
1630501841359,-0.133773,-0.625128,-0.884073
1630501841368,-0.124806,-0.590846,-0.8751059999999999
1630501841378,-0.1159,-0.558821,-0.86193
1630501841387,-0.105896,-0.5200859999999999,-0.849669
1630501841397,-0.104737,-0.495991,-0.835395
1630501841407,-0.10797,-0.478545,-0.821487
1630501841416,-0.112606,-0.470737,-0.80825
1630501841426,-0.1159,-0.471286,-0.803797
1630501841435,-0.116632,-0.476593,-0.807945
1630501841445,-0.115412,-0.48440099999999997,-0.818559
1630501841455,-0.112972,-0.49233099999999996,-0.819413
1630501841464,-0.113948,-0.487939,-0.809531
1630501841474,-0.121878,-0.485499,-0.789584
1630501841483,-0.1281,-0.476105,-0.772077
1630501841493,-0.130845,-0.460001,-0.756278
1630501841503,-0.127673,-0.450729,-0.755424
1630501841512,-0.111325,-0.450668,-0.772626
1630501841522,-0.08967,-0.455548,-0.79666
1630501841531,-0.071309,-0.455487,-0.818742
1630501841541,-0.055144,-0.45017999999999997,-0.8337479999999999
1630501841551,-0.038796,-0.447984,-0.843508
1630501841560,-0.027877,-0.445178,-0.851865
1630501841570,-0.020252,-0.442494,-0.861198
1630501841579,-0.014518,-0.437187,-0.869433
1630501841589,-0.00793,-0.424255,-0.874313
1630501841599,0.001464,-0.410225,-0.876448
1630501841608,0.014457,-0.39344999999999997,-0.876143
1630501841618,0.027145,-0.377651,-0.871324
1630501841627,0.039406,-0.369843,-0.865224
1630501841637,0.052216,-0.365695,-0.866749
1630501841647,0.069296,-0.352275,-0.873825
1630501841656,0.084668,-0.335134,-0.8766309999999999
1630501841666,0.089548,-0.333548,-0.8799859999999999
1630501841675,0.08967,-0.34282,-0.8876109999999999
1630501841685,0.083204,-0.357216,-0.8951749999999999
1630501841695,0.073017,-0.376614,-0.902861
1630501841704,0.073444,-0.381311,-0.904691
1630501841714,0.073932,-0.370453,-0.901519
1630501841723,0.072834,-0.359717,-0.897737
1630501841733,0.071797,-0.35160399999999997,-0.900421
1630501841743,0.072102,-0.34538199999999997,-0.913231
1630501841752,0.077043,-0.330742,-0.93025
1630501841762,0.079788,-0.315065,-0.946171
1630501841771,0.082899,-0.29487399999999997,-0.9545279999999999
1630501841781,0.079178,-0.27877,-0.955382
1630501841791,0.068747,-0.275659,-0.950746
1630501841800,0.055632,-0.288652,-0.943487
1630501841810,0.04087,-0.313113,-0.9307989999999999
1630501841819,0.026168999999999998,-0.34019699999999997,-0.916952
1630501841829,0.016592,-0.359473,-0.902373
1630501841839,0.0064659999999999995,-0.372893,-0.884683
1630501841848,-0.00122,-0.379969,-0.873825
1630501841858,-0.006405,-0.387289,-0.8735809999999999
1630501841867,-0.009637999999999999,-0.393572,-0.870714
1630501841877,-0.012993,-0.392352,-0.864553
1630501841887,-0.019154,-0.394304,-0.854854
1630501841896,-0.031659,-0.40424699999999997,-0.8461919999999999
1630501841906,-0.043676,-0.41626399999999997,-0.839482
1630501841915,-0.055144,-0.42706099999999997,-0.836066
1630501841925,-0.071187,-0.449143,-0.842471
1630501841935,-0.089792,-0.480802,-0.85827
1630501841944,-0.107116,-0.518012,-0.879254
1630501841954,-0.125355,-0.562847,-0.897188
1630501841963,-0.145302,-0.605608,-0.907314
1630501841973,-0.161406,-0.641659,-0.905911
1630501841983,-0.173789,-0.6667299999999999,-0.896029
1630501841992,-0.18422,-0.6874089999999999,-0.88389
1630501842002,-0.192272,-0.7083929999999999,-0.875655
1630501842011,-0.19763999999999998,-0.7269369999999999,-0.871873
1630501842021,-0.199592,-0.7345619999999999,-0.875167
1630501842031,-0.19458999999999999,-0.733281,-0.886269
1630501842040,-0.18379299999999998,-0.723948,-0.902068
1630501842050,-0.172935,-0.711626,-0.925065
1630501842059,-0.163297,-0.691618,-0.946354
1630501842069,-0.156587,-0.672647,-0.960811
1630501842079,-0.148535,-0.646722,-0.9612379999999999
1630501842088,-0.145241,-0.622993,-0.94916
1630501842098,-0.151219,-0.612806,-0.936716
1630501842107,-0.160247,-0.610061,-0.923052
1630501842117,-0.170129,-0.601277,-0.904081
1630501842127,-0.178486,-0.582916,-0.8842559999999999
1630501842136,-0.186111,-0.569008,-0.866139
1630501842146,-0.191723,-0.559126,-0.851194
1630501842155,-0.194468,-0.550098,-0.842227
1630501842165,-0.195017,-0.546316,-0.837042
1630501842175,-0.191845,-0.546316,-0.830271
1630501842184,-0.195566,-0.556991,-0.821853
1630501842194,-0.203008,-0.575779,-0.8072739999999999
1630501842203,-0.20935199999999998,-0.589077,-0.7878149999999999
1630501842213,-0.213439,-0.590724,-0.762622
1630501842223,-0.216794,-0.5860879999999999,-0.73444
1630501842232,-0.223016,-0.586942,-0.71065
1630501842242,-0.229238,-0.592981,-0.696864
1630501842251,-0.239303,-0.60085,-0.686128
1630501842261,-0.24759899999999999,-0.609268,-0.678198
1630501842271,-0.255712,-0.6153069999999999,-0.67283
1630501842280,-0.261385,-0.621956,-0.671183
1630501842290,-0.268766,-0.630557,-0.670268
1630501842299,-0.274927,-0.635437,-0.6676449999999999
1630501842309,-0.279136,-0.636474,-0.667157
1630501842319,-0.281088,-0.640195,-0.669292
1630501842328,-0.281698,-0.6445259999999999,-0.67039
1630501842338,-0.279136,-0.646966,-0.667523
1630501842347,-0.277733,-0.6451359999999999,-0.660386
1630501842357,-0.276452,-0.6396459999999999,-0.652639
1630501842367,-0.274622,-0.637145,-0.64904
1630501842376,-0.275232,-0.647332,-0.652883
1630501842386,-0.271389,-0.658617,-0.660081
1630501842395,-0.268156,-0.668194,-0.663009
1630501842405,-0.26474,-0.676795,-0.662521
1630501842415,-0.262971,-0.6806989999999999,-0.660386
1630501842424,-0.261446,-0.67405,-0.659044
1630501842434,-0.260287,-0.664473,-0.6600199999999999
1630501842443,-0.262239,-0.656299,-0.663497
1630501842453,-0.262666,-0.648735,-0.667462
1630501842463,-0.26047,-0.650809,-0.667706
1630501842472,-0.261507,-0.661179,-0.669048
1630501842482,-0.26870499999999997,-0.679662,-0.670451
1630501842491,-0.277428,-0.687836,-0.668804
1630501842501,-0.287371,-0.700036,-0.6691699999999999
1630501842511,-0.291641,-0.7157129999999999,-0.670695
1630501842520,-0.292678,-0.721691,-0.666242
1630501842530,-0.290726,-0.722789,-0.659349
1630501842539,-0.289506,-0.724863,-0.651175
1630501842549,-0.28853,-0.726815,-0.644709
1630501842559,-0.28731,-0.731146,-0.636779
1630501842568,-0.284809,-0.730963,-0.626409
1630501842578,-0.283223,-0.733464,-0.61549
1630501842587,-0.282003,-0.736819,-0.604266
1630501842597,-0.2806,-0.741943,-0.594384
1630501842607,-0.27938,-0.7418819999999999,-0.5873079999999999
1630501842616,-0.279441,-0.74237,-0.58499
1630501842626,-0.279014,-0.745725,-0.581879
1630501842635,-0.280844,-0.749873,-0.572607
1630501842645,-0.287493,-0.752984,-0.563335
1630501842655,-0.293471,-0.750605,-0.55571
1630501842664,-0.298595,-0.740296,-0.549244
1630501842674,-0.304268,-0.729743,-0.543998
1630501842683,-0.30628099999999997,-0.724375,-0.545584
1630501842693,-0.308904,-0.722179,-0.554063
1630501842703,-0.313052,-0.725412,-0.561505
1630501842712,-0.316529,-0.724985,-0.568093
1630501842722,-0.322934,-0.723155,-0.574254
1630501842731,-0.32452,-0.722118,-0.5842579999999999
1630501842741,-0.32787499999999997,-0.718336,-0.596214
1630501842751,-0.336232,-0.715896,-0.606645
1630501842760,-0.34343,-0.709186,-0.6150019999999999
1630501842770,-0.350994,-0.704672,-0.621163
1630501842779,-0.359778,-0.709979,-0.629886
1630501842789,-0.365329,-0.72224,-0.640012
1630501842799,-0.36697599999999997,-0.7290719999999999,-0.646661
1630501842808,-0.367708,-0.730841,-0.648369
1630501842818,-0.368379,-0.73139,-0.64599
1630501842827,-0.364719,-0.728889,-0.638853
1630501842837,-0.367037,-0.7287669999999999,-0.629032
1630501842847,-0.370209,-0.725107,-0.619943
1630501842856,-0.372283,-0.723399,-0.62098
1630501842866,-0.371734,-0.7259,-0.628727
1630501842875,-0.36758599999999997,-0.726754,-0.640134
1630501842885,-0.361852,-0.723948,-0.64355
1630501842895,-0.353312,-0.718092,-0.638975
1630501842904,-0.349408,-0.7120529999999999,-0.626775
1630501842914,-0.343735,-0.699487,-0.610793
1630501842923,-0.34172199999999997,-0.680821,-0.59658
1630501842933,-0.343064,-0.680211,-0.591395
1630501842943,-0.343003,-0.692655,-0.598898
1630501842952,-0.334524,-0.700951,-0.608048
1630501842962,-0.326838,-0.703757,-0.608048
1630501842971,-0.322812,-0.709247,-0.604022
1630501842981,-0.323361,-0.7099179999999999,-0.593469
1630501842991,-0.326533,-0.709552,-0.576938
1630501843000,-0.331474,-0.7065629999999999,-0.557662
1630501843010,-0.338245,-0.699182,-0.546804
1630501843019,-0.343186,-0.69052,-0.540887
1630501843029,-0.342576,-0.688141,-0.532408
1630501843039,-0.34294199999999997,-0.697352,-0.526064
1630501843048,-0.346175,-0.71431,-0.515572
1630501843058,-0.35312899999999997,-0.725595,-0.506178
1630501843067,-0.35807,-0.7327319999999999,-0.490257
1630501843077,-0.36362099999999997,-0.743468,-0.47726399999999997
1630501843087,-0.372954,-0.7656109999999999,-0.471042
1630501843096,-0.37777299999999997,-0.784216,-0.46585699999999997
1630501843106,-0.378505,-0.799222,-0.460184
1630501843115,-0.38112799999999997,-0.814716,-0.452254
1630501843125,-0.38173799999999997,-0.826001,-0.445117
1630501843135,-0.38143299999999997,-0.828075,-0.43859
1630501843144,-0.38082299999999997,-0.818864,-0.42889099999999997
1630501843154,-0.379847,-0.806237,-0.421449
1630501843163,-0.383629,-0.803187,-0.421083
1630501843173,-0.38795999999999997,-0.808006,-0.425963
1630501843183,-0.38948499999999997,-0.809043,-0.427244
1630501843192,-0.394426,-0.805017,-0.425719
1630501843202,-0.39711,-0.802882,-0.424377
1630501843211,-0.401746,-0.800991,-0.423889
1630501843221,-0.401624,-0.800991,-0.422608
1630501843231,-0.403759,-0.8030039999999999,-0.420168
1630501843240,-0.40748,-0.799283,-0.416996
1630501843250,-0.409066,-0.7908649999999999,-0.413946
1630501843259,-0.405833,-0.781471,-0.41541
1630501843269,-0.400465,-0.772931,-0.422242
1630501843279,-0.397476,-0.768234,-0.431148
1630501843288,-0.392291,-0.766892,-0.443165
1630501843298,-0.387228,-0.770125,-0.452742
1630501843307,-0.382836,-0.770674,-0.460489
1630501843317,-0.379359,-0.771528,-0.46707699999999996
1630501843327,-0.37759,-0.769698,-0.470737
1630501843336,-0.37637,-0.771406,-0.471652
1630501843346,-0.377712,-0.768905,-0.474397
1630501843355,-0.381555,-0.7631709999999999,-0.480192
1630501843365,-0.383751,-0.760853,-0.490074
1630501843375,-0.383385,-0.757925,-0.49959
1630501843384,-0.38051799999999997,-0.751642,-0.508191
1630501843394,-0.379664,-0.74908,-0.51423
1630501843403,-0.377895,-0.751337,-0.51911
1630501843413,-0.373015,-0.762012,-0.525942
1630501843423,-0.362645,-0.777506,-0.539423
1630501843432,-0.350079,-0.792451,-0.55266
1630501843442,-0.337513,-0.801052,-0.559858
1630501843451,-0.328912,-0.80459,-0.5641889999999999
1630501843461,-0.321165,-0.801052,-0.569496
1630501843471,-0.313235,-0.791963,-0.573705
1630501843480,-0.30597599999999997,-0.780983,-0.577182
1630501843490,-0.298168,-0.774334,-0.582489
1630501843499,-0.292617,-0.770796,-0.588711
1630501843509,-0.287371,-0.774578,-0.591456
1630501843519,-0.278404,-0.774883,-0.588467
1630501843528,-0.272853,-0.778482,-0.585844
1630501843538,-0.268156,-0.780434,-0.583709
1630501843547,-0.265228,-0.777628,-0.579073
1630501843557,-0.263337,-0.771101,-0.574742
1630501843567,-0.263337,-0.761097,-0.5727289999999999
1630501843576,-0.264496,-0.750849,-0.571631
1630501843586,-0.267119,-0.742431,-0.570533
1630501843595,-0.269498,-0.7381,-0.5705939999999999
1630501843605,-0.271633,-0.736453,-0.572302
1630501843615,-0.270108,-0.737368,-0.571997
1630501843624,-0.269071,-0.739259,-0.570533
1630501843634,-0.269132,-0.7388319999999999,-0.569557
1630501843643,-0.269559,-0.740296,-0.5681539999999999
1630501843653,-0.271816,-0.7400519999999999,-0.568398
1630501843663,-0.274439,-0.7382219999999999,-0.570167
1630501843672,-0.27633,-0.729133,-0.574376
1630501843682,-0.276452,-0.717604,-0.576694
1630501843691,-0.276818,-0.702598,-0.582245
1630501843701,-0.277428,-0.692045,-0.588406
1630501843711,-0.283833,-0.685457,-0.597617
1630501843720,-0.291092,-0.68442,-0.614026
1630501843730,-0.29670399999999997,-0.682651,-0.631777
1630501843739,-0.299754,-0.680272,-0.646417
1630501843749,-0.303414,-0.678869,-0.656604
1630501843759,-0.307867,-0.680577,-0.665266
1630501843768,-0.311832,-0.68381,-0.672281
1630501843778,-0.314821,-0.688873,-0.678625
1630501843787,-0.31585799999999997,-0.692777,-0.6828339999999999
1630501843797,-0.31799299999999997,-0.6941189999999999,-0.686372
1630501843807,-0.31842,-0.694363,-0.688202
1630501843816,-0.31646799999999997,-0.69479,-0.6874089999999999
1630501843826,-0.314272,-0.6898489999999999,-0.68869
1630501843835,-0.309392,-0.685152,-0.69296
1630501843845,-0.30561,-0.679662,-0.691923
1630501843855,-0.301584,-0.673135,-0.688873
1630501843864,-0.297497,-0.663131,-0.684908
1630501843874,-0.293593,-0.65392,-0.683017
1630501843883,-0.290055,-0.646173,-0.6861889999999999
1630501843893,-0.285419,-0.639585,-0.692838
1630501843903,-0.279258,-0.635498,-0.703269
1630501843912,-0.27633,-0.638853,-0.712724
1630501843922,-0.273036,-0.64782,-0.721386
1630501843931,-0.267668,-0.660081,-0.723338
1630501843941,-0.264374,-0.669963,-0.721935
1630501843951,-0.262544,-0.67649,-0.719861
1630501843960,-0.261812,-0.6797839999999999,-0.7163229999999999
1630501843970,-0.259799,-0.679235,-0.71187
1630501843979,-0.25760299999999997,-0.676734,-0.707722
1630501843989,-0.255529,-0.673562,-0.703147
1630501843999,-0.252662,-0.672159,-0.698816
1630501844008,-0.251137,-0.671976,-0.697657
1630501844018,-0.249856,-0.674538,-0.694302
1630501844027,-0.247416,-0.677344,-0.690215
1630501844037,-0.247355,-0.681065,-0.686433
1630501844047,-0.246257,-0.680821,-0.68381
1630501844056,-0.243024,-0.678503,-0.6828339999999999
1630501844066,-0.23912,-0.675392,-0.683627
1630501844075,-0.234972,-0.672098,-0.6852739999999999
1630501844085,-0.229848,-0.671305,-0.690398
1630501844095,-0.22386999999999999,-0.669719,-0.696742
1630501844104,-0.221003,-0.668987,-0.69967
1630501844114,-0.218563,-0.667828,-0.701988
1630501844123,-0.21777,-0.6664249999999999,-0.704062
1630501844133,-0.216733,-0.665998,-0.706014
1630501844143,-0.216733,-0.664412,-0.706014
1630501844152,-0.216672,-0.662643,-0.704977
1630501844162,-0.21831899999999999,-0.662582,-0.703147
1630501844171,-0.218868,-0.663131,-0.702781
1630501844181,-0.21520799999999998,-0.661423,-0.7071729999999999
1630501844191,-0.21490299999999998,-0.660142,-0.7117479999999999
1630501844200,-0.21411,-0.660691,-0.716445
1630501844210,-0.213866,-0.659776,-0.719434
1630501844219,-0.21398799999999998,-0.6584949999999999,-0.721508
1630501844229,-0.21429299999999998,-0.656604,-0.721447
1630501844239,-0.215086,-0.657397,-0.722728
1630501844248,-0.216367,-0.658922,-0.723155
1630501844258,-0.219173,-0.6621549999999999,-0.723643
1630501844267,-0.221125,-0.664412,-0.720959
1630501844277,-0.225273,-0.6670349999999999,-0.715164
1630501844287,-0.230519,-0.667584,-0.710345
1630501844296,-0.234667,-0.6700849999999999,-0.7068679999999999
1630501844306,-0.23668,-0.671732,-0.706624
1630501844315,-0.24034,-0.670756,-0.7074779999999999
1630501844325,-0.24174299999999999,-0.668682,-0.711504
1630501844335,-0.241987,-0.6642899999999999,-0.7135779999999999
1630501844344,-0.24278,-0.660752,-0.71309
1630501844354,-0.244122,-0.658922,-0.712114
1630501844363,-0.244,-0.657397,-0.710467
1630501844373,-0.246806,-0.657519,-0.707966
1630501844383,-0.248758,-0.659227,-0.710406
1630501844392,-0.2501,-0.658312,-0.7114429999999999
1630501844402,-0.252235,-0.657092,-0.7108329999999999
1630501844411,-0.255346,-0.656177,-0.709491
1630501844421,-0.25668799999999997,-0.655018,-0.709979
1630501844431,-0.257176,-0.657214,-0.711931
1630501844440,-0.256261,-0.6560549999999999,-0.7137
1630501844450,-0.256322,-0.656848,-0.71126
1630501844459,-0.254492,-0.652273,-0.708881
1630501844469,-0.253089,-0.647332,-0.7086979999999999
1630501844479,-0.252662,-0.645075,-0.7074779999999999
1630501844488,-0.253821,-0.645075,-0.7056479999999999
1630501844498,-0.256078,-0.646173,-0.7047329999999999
1630501844507,-0.25681,-0.646051,-0.7050379999999999
1630501844517,-0.25803,-0.646539,-0.703879
1630501844527,-0.25790799999999997,-0.648125,-0.702293
1630501844536,-0.25790799999999997,-0.650138,-0.701256
1630501844546,-0.258274,-0.650809,-0.701256
1630501844555,-0.258396,-0.651846,-0.698938
1630501844565,-0.255834,-0.650382,-0.699304
1630501844575,-0.256139,-0.649833,-0.697718
1630501844584,-0.255468,-0.649772,-0.698206
1630501844594,-0.254309,-0.64965,-0.699121
1630501844603,-0.254065,-0.650504,-0.700951
1630501844613,-0.252784,-0.651358,-0.701439
1630501844623,-0.252052,-0.653554,-0.700646
1630501844632,-0.252235,-0.653737,-0.70089
1630501844642,-0.250466,-0.649162,-0.700097
1630501844651,-0.248392,-0.643977,-0.70028
1630501844661,-0.247721,-0.641354,-0.70333
1630501844671,-0.244549,-0.641232,-0.706746
1630501844680,-0.241865,-0.641293,-0.712419
1630501844690,-0.241377,-0.642818,-0.716994
1630501844699,-0.241316,-0.644282,-0.720654
1630501844709,-0.23985199999999998,-0.644404,-0.723033
1630501844719,-0.23973,-0.642757,-0.724314
1630501844728,-0.23863199999999998,-0.641232,-0.72651
1630501844738,-0.23710699999999998,-0.639829,-0.727608
1630501844747,-0.23607,-0.639463,-0.7299869999999999
1630501844757,-0.235216,-0.642147,-0.732915
1630501844767,-0.234118,-0.6423909999999999,-0.733098
1630501844776,-0.235094,-0.641598,-0.733098
1630501844786,-0.234728,-0.64233,-0.733769
1630501844795,-0.233508,-0.642269,-0.735538
1630501844805,-0.232654,-0.644282,-0.734989
1630501844815,-0.23125099999999998,-0.644648,-0.73627
1630501844824,-0.230092,-0.645502,-0.7348669999999999
1630501844834,-0.230519,-0.6451359999999999,-0.734623
1630501844843,-0.227774,-0.64538,-0.734684
1630501844853,-0.225883,-0.6451359999999999,-0.732793
1630501844863,-0.224968,-0.643855,-0.730048
1630501844872,-0.224541,-0.643184,-0.728035
1630501844882,-0.224114,-0.643672,-0.728584
1630501844891,-0.22136899999999998,-0.643977,-0.7296819999999999
1630501844901,-0.219966,-0.643062,-0.728889
1630501844911,-0.21801399999999999,-0.642208,-0.730475
1630501844920,-0.21490299999999998,-0.641415,-0.7324269999999999
1630501844930,-0.213927,-0.638304,-0.735965
1630501844939,-0.213744,-0.628178,-0.743346
1630501844949,-0.209779,-0.623603,-0.751459
1630501844959,-0.202825,-0.623237,-0.7604259999999999
1630501844968,-0.196359,-0.625982,-0.765794
1630501844978,-0.190137,-0.629764,-0.768112
1630501844987,-0.186721,-0.635254,-0.769271
1630501844997,-0.186416,-0.64294,-0.766648
1630501845007,-0.189161,-0.647942,-0.762012
1630501845016,-0.191906,-0.648308,-0.756644
1630501845026,-0.194102,-0.648003,-0.749019
1630501845035,-0.194834,-0.648796,-0.743712
1630501845045,-0.196054,-0.64965,-0.738771
1630501845055,-0.196481,-0.649406,-0.734135
1630501845064,-0.195749,-0.650992,-0.7278519999999999
1630501845074,-0.194956,-0.651724,-0.721874
1630501845083,-0.195139,-0.653188,-0.716689
