timestamp,ax,ay,az
1630501999729,-0.001403,-0.350811,-0.997594
1630501999738,0.000488,-0.347944,-0.994483
1630501999748,-0.000305,-0.343796,-0.990274
1630501999757,-0.0035989999999999998,-0.340929,-0.982588
1630501999767,-0.005856,-0.337391,-0.97539
1630501999777,-0.010248,-0.334036,-0.971059
1630501999786,-0.012565999999999999,-0.330742,-0.9694119999999999
1630501999796,-0.015921,-0.326716,-0.9678869999999999
1630501999805,-0.019154,-0.321165,-0.9666669999999999
1630501999815,-0.021655,-0.313418,-0.963739
1630501999825,-0.025071,-0.304268,-0.959591
1630501999834,-0.025193,-0.29585,-0.9545279999999999
1630501999844,-0.027694,-0.289018,-0.947147
1630501999853,-0.029585,-0.284016,-0.94367
1630501999863,-0.030195,-0.279197,-0.940803
1630501999873,-0.031598,-0.274744,-0.934886
1630501999882,-0.032208,-0.268644,-0.9314089999999999
1630501999892,-0.032574,-0.264557,-0.9311039999999999
1630501999901,-0.0305,-0.261995,-0.933117
1630501999911,-0.027145,-0.260531,-0.938302
1630501999921,-0.024949,-0.261751,-0.941535
1630501999930,-0.02196,-0.264801,-0.943914
1630501999940,-0.019093,-0.268583,-0.942267
1630501999949,-0.016347999999999998,-0.271084,-0.9435479999999999
1630501999959,-0.012383,-0.275171,-0.944036
1630501999969,-0.009637999999999999,-0.276513,-0.9447679999999999
1630501999978,-0.004758,-0.275232,-0.946964
1630501999988,-0.0017079999999999999,-0.274622,-0.947757
1630501999997,0.00042699999999999997,-0.272487,-0.9499529999999999
1630502000007,0.002806,-0.26992499999999997,-0.953369
1630502000017,0.003294,-0.268766,-0.955504
1630502000026,0.004148,-0.271328,-0.956602
1630501821553,0.0046359999999999995,-0.258152,-0.955199
1630501821562,0.002562,-0.256932,-0.9530029999999999
1630501821572,0.00549,-0.25925,-0.953064
1630501821581,0.007686,-0.25986,-0.95343
1630501821591,0.009455,-0.2562,-0.954589
1630501821601,0.013969,-0.247233,-0.955992
1630501821610,0.012871,-0.240706,-0.9536129999999999
1630501821620,0.009271999999999999,-0.237961,-0.9502579999999999
1630501821629,0.005307,-0.239425,-0.9469029999999999
1630501821639,0.002074,-0.244854,-0.942816
1630501821649,-0.00061,-0.252357,-0.938363
1630501821658,-0.002745,-0.25864,-0.9368989999999999
1630501821668,-0.00042699999999999997,-0.25790799999999997,-0.939888
1630501821677,0.000183,-0.255956,-0.937936
1630501821687,-0.0028669999999999998,-0.255529,-0.936411
1630501821697,-0.004392,-0.256932,-0.9384239999999999
1630501821706,-0.005978,-0.262056,-0.935557
1630501821716,-0.010126,-0.271023,-0.932507
1630501821725,-0.007686,-0.28426,-0.9277489999999999
1630501821735,-0.006222,-0.299144,-0.9256139999999999
1630501821745,-0.002623,-0.316956,-0.927261
1630501821754,0.000915,-0.331474,-0.930067
1630501821764,0.004026,-0.343918,-0.933361
1630501821773,0.0073809999999999995,-0.358131,-0.935801
1630501821783,0.010126,-0.36575599999999997,-0.935252
1630501821793,0.008845,-0.369172,-0.9338489999999999
1630501821802,0.008235,-0.371673,-0.930433
1630501821812,0.00488,-0.37685799999999997,-0.931348
1630501821821,0.005612,-0.387228,-0.934642
1630501821831,0.0053679999999999995,-0.396866,-0.93879
1630501821841,0.005307,-0.40668699999999997,-0.939888
1630501821850,0.003294,-0.412726,-0.938973
1630501821860,0.00061,-0.416752,-0.937326
1630501821869,0.001586,-0.418582,-0.937143
1630501821879,0.000732,-0.417057,-0.9359839999999999
1630501821889,0.002196,-0.41107899999999997,-0.938912
1630501821898,0.004758,-0.403698,-0.939949
1630501821908,0.0064659999999999995,-0.39833,-0.940437
1630501821917,0.0048189999999999995,-0.39588999999999996,-0.939095
1630501821927,0.0037819999999999998,-0.396256,-0.9307989999999999
1630501821937,0.0006709999999999999,-0.394609,-0.924272
1630501821946,0.0006709999999999999,-0.393328,-0.921283
1630501821956,0.003477,-0.388082,-0.9219539999999999
1630501821965,0.0053679999999999995,-0.378444,-0.927078
1630501821975,0.0062829999999999995,-0.36819599999999997,-0.93025
1630501821985,0.0070149999999999995,-0.36417,-0.9323239999999999
1630501821994,0.004941,-0.36417,-0.929457
1630501822004,0.004758,-0.365024,-0.927383
1630501822013,0.005246,-0.365939,-0.924821
1630501822023,0.004514,-0.366915,-0.922747
1630501822033,0.002013,-0.367159,-0.9219539999999999
1630501822042,-0.003172,-0.366244,-0.92049
1630501822052,-0.007442,-0.362889,-0.9207339999999999
1630501822061,-0.010614,-0.359046,-0.921832
1630501822071,-0.012688,-0.353983,-0.926773
1630501822081,-0.013786,-0.35075,-0.933727
1630501822090,-0.014701,-0.347639,-0.9372039999999999
1630501822100,-0.016165,-0.351482,-0.939888
1630501822109,-0.015372,-0.355752,-0.938973
1630501822119,-0.01464,-0.35502,-0.936045
1630501822129,-0.013969,-0.357033,-0.9353739999999999
1630501822138,-0.009211,-0.354471,-0.9350689999999999
1630501822148,-0.006161,-0.35014,-0.932141
1630501822157,-0.005429,-0.34568699999999997,-0.9314089999999999
1630501822167,-0.002745,-0.34629699999999997,-0.929701
1630501822177,-0.002806,-0.350384,-0.923906
1630501822186,-0.0034159999999999998,-0.355447,-0.920246
1630501822196,-0.0034159999999999998,-0.360022,-0.920856
1630501822205,-0.000732,-0.361425,-0.9222589999999999
1630501822215,0.00061,-0.359839,-0.9243939999999999
1630501822225,0.000183,-0.353861,-0.925553
1630501822234,-0.00122,-0.349652,-0.925492
1630501822244,-0.0011589999999999999,-0.349408,-0.925858
1630501822253,-0.002928,-0.350384,-0.926041
1630501822263,-0.0032329999999999998,-0.35251899999999997,-0.925797
1630501822273,-0.003294,-0.351726,-0.9265289999999999
1630501822282,-0.0034159999999999998,-0.350018,-0.9265289999999999
1630501822292,-0.003904,-0.349713,-0.929701
1630501822301,-0.004697,-0.348981,-0.926651
1630501822311,-0.006405,-0.350384,-0.924882
1630501822321,-0.0066489999999999995,-0.35197,-0.929396
1630501822330,-0.0040869999999999995,-0.35526399999999997,-0.933178
1630501822340,-0.004331,-0.360266,-0.931592
1630501822349,-0.0035989999999999998,-0.362706,-0.932141
1630501822359,-0.0021349999999999997,-0.365817,-0.932995
1630501822369,-0.002074,-0.367037,-0.932812
1630501822378,-0.002074,-0.365695,-0.9320189999999999
1630501822388,-0.002806,-0.360022,-0.931226
1630501822397,-0.005124,-0.354227,-0.932812
1630501822407,-0.006893,-0.350384,-0.9329339999999999
1630501822417,-0.008173999999999999,-0.348005,-0.932202
1630501822426,-0.008418,-0.345565,-0.9341539999999999
1630501822436,-0.007442,-0.345321,-0.935862
1630501822445,-0.006771,-0.344955,-0.93635
1630501822455,-0.006039,-0.344894,-0.936228
1630501822465,-0.005063,-0.342454,-0.934581
1630501822474,-0.0026839999999999998,-0.340014,-0.934886
1630501822484,0.0,-0.33916,-0.934947
1630501822493,0.003843,-0.340868,-0.9359839999999999
1630501822503,0.0055509999999999995,-0.345748,-0.936228
1630501822513,0.009821,-0.35404399999999997,-0.93574
1630501822522,0.01098,-0.361669,-0.931592
1630501822532,0.012627,-0.366244,-0.927261
1630501822541,0.012444,-0.36850099999999997,-0.924028
1630501822551,0.013115,-0.36758599999999997,-0.9222589999999999
1630501822561,0.014884,-0.365939,-0.9213439999999999
1630501822570,0.015616,-0.362462,-0.920917
1630501822580,0.01586,-0.360388,-0.920856
1630501822589,0.017385,-0.358863,-0.9204289999999999
1630501822599,0.017751,-0.357521,-0.922503
1630501822609,0.017446,-0.35502,-0.92293
1630501822618,0.017141,-0.354776,-0.922808
1630501822628,0.016897,-0.355508,-0.923845
1630501822637,0.017446,-0.354898,-0.925736
1630501822647,0.017751,-0.355691,-0.926041
1630501822657,0.015982,-0.35678899999999997,-0.925492
1630501822666,0.017446,-0.360205,-0.925126
1630501822676,0.018666,-0.363987,-0.92415
1630501822685,0.020252,-0.368379,-0.923357
1630501822695,0.021655,-0.37271,-0.925797
1630501822705,0.023972999999999998,-0.376919,-0.927322
1630501822714,0.024644,-0.380274,-0.925675
1630501822724,0.023546,-0.381677,-0.925736
1630501822733,0.023363,-0.382836,-0.9246989999999999
1630501822743,0.023424,-0.38387299999999996,-0.924272
1630501822753,0.024522,-0.38125,-0.92293
1630501822762,0.024583,-0.380152,-0.922747
1630501822772,0.025681,-0.378322,-0.92232
1630501822781,0.025559,-0.376797,-0.919941
1630501822791,0.025986,-0.374906,-0.921161
1630501822801,0.025559,-0.376797,-0.920246
1630501822810,0.026718,-0.378322,-0.919941
1630501822820,0.027938,-0.379054,-0.918416
1630501822829,0.028182,-0.37838299999999997,-0.918782
1630501822839,0.029951,-0.377041,-0.9179889999999999
1630501822849,0.031293,-0.376797,-0.917379
1630501822858,0.030866,-0.376126,-0.917013
1630501822868,0.030987999999999998,-0.377041,-0.916586
1630501822877,0.030560999999999998,-0.37807799999999997,-0.915915
1630501822887,0.028791999999999998,-0.3782,-0.915
1630501822897,0.027632999999999998,-0.378322,-0.915061
1630501822906,0.02745,-0.37716299999999997,-0.914573
1630501822916,0.026779,-0.373564,-0.912804
1630501822925,0.024461,-0.370575,-0.912987
1630501822935,0.023667999999999998,-0.368074,-0.913658
1630501822945,0.022265,-0.367464,-0.917013
1630501822954,0.024217,-0.370758,-0.9213439999999999
1630501822964,0.022935999999999998,-0.375089,-0.920673
1630501822973,0.022509,-0.380152,-0.920307
1630501822983,0.02318,-0.384666,-0.91988
1630501822993,0.021411,-0.38674,-0.919575
1630501823002,0.020984,-0.389058,-0.91866
1630501823012,0.020496,-0.390888,-0.917806
1630501823021,0.021106,-0.391559,-0.917013
1630501823031,0.020739999999999998,-0.391742,-0.91683
1630501823041,0.020435,-0.391864,-0.917623
1630501823050,0.019947,-0.391681,-0.916891
1630501823060,0.019275999999999998,-0.390339,-0.917196
1630501823069,0.01891,-0.388631,-0.916708
1630501823079,0.019154,-0.386557,-0.917562
1630501823089,0.018971,-0.389302,-0.91683
1630501823098,0.019093,-0.39222999999999997,-0.917379
1630501823108,0.017934,-0.39527999999999996,-0.918538
1630501823117,0.019764,-0.398818,-0.916647
1630501823127,0.019825,-0.400221,-0.918416
1630501823137,0.019581,-0.400709,-0.917318
1630501823146,0.019459,-0.40028199999999997,-0.915183
1630501823156,0.019032,-0.398452,-0.913353
1630501823165,0.019947,-0.396195,-0.915183
1630501823175,0.020923,-0.393938,-0.91622
1630501823185,0.022021,-0.393206,-0.915488
1630501823194,0.021655,-0.392596,-0.914817
1630501823204,0.023851,-0.393328,-0.916159
1630501823213,0.025131999999999998,-0.392413,-0.917806
1630501823223,0.025559,-0.39039999999999997,-0.915976
1630501823233,0.02379,-0.388936,-0.915366
1630501823242,0.023424,-0.388814,-0.912926
1630501823252,0.021655,-0.388387,-0.912316
1630501823261,0.021899,-0.386679,-0.911706
1630501823271,0.021838,-0.384483,-0.9137799999999999
1630501823281,0.022509,-0.380884,-0.91561
1630501823290,0.022692,-0.378017,-0.914634
1630501823300,0.022814,-0.379786,-0.913536
1630501823309,0.022203999999999998,-0.381189,-0.914268
1630501823319,0.02318,-0.384788,-0.914817
1630501823329,0.023972999999999998,-0.389668,-0.912011
1630501823338,0.023607,-0.392779,-0.9128649999999999
1630501823348,0.024888,-0.395402,-0.914878
1630501823357,0.024583,-0.396378,-0.915549
1630501823367,0.027572,-0.395646,-0.917562
1630501823377,0.026474,-0.394914,-0.916159
1630501823386,0.025071,-0.393267,-0.916037
1630501823396,0.023607,-0.393938,-0.916159
1630501823405,0.022692,-0.392352,-0.914817
1630501823415,0.020557,-0.392108,-0.913902
1630501823425,0.019947,-0.394426,-0.917013
1630501823434,0.021594,-0.395951,-0.918172
1630501823444,0.022875,-0.394243,-0.917562
1630501823453,0.023667999999999998,-0.393877,-0.919758
1630501823463,0.025315,-0.39405999999999997,-0.919392
1630501823473,0.025925,-0.393084,-0.920002
1630501823482,0.025315,-0.391193,-0.9182939999999999
1630501823492,0.024644,-0.388448,-0.916891
1630501823501,0.02379,-0.385642,-0.915183
1630501823511,0.02257,-0.3843,-0.914512
1630501823521,0.022997,-0.383324,-0.915122
1630501823530,0.022692,-0.38112799999999997,-0.915
1630501823540,0.021838,-0.37868799999999997,-0.916159
1630501823549,0.021899,-0.377956,-0.916586
1630501823559,0.02257,-0.378017,-0.920063
1630501823569,0.022143,-0.38204299999999997,-0.9210389999999999
1630501823578,0.022997,-0.386496,-0.9211
1630501823588,0.023546,-0.389424,-0.919026
1630501823597,0.025071,-0.391742,-0.9198189999999999
1630501823607,0.026168999999999998,-0.392108,-0.918538
1630501823617,0.025436999999999998,-0.393206,-0.917806
1630501823626,0.027877,-0.391986,-0.917928
1630501823636,0.029402,-0.39070499999999997,-0.916342
1630501823645,0.031049,-0.390461,-0.915427
1630501823655,0.03172,-0.389363,-0.913963
1630501823665,0.033549999999999996,-0.38948499999999997,-0.914268
1630501823674,0.033428,-0.388997,-0.913353
1630501823684,0.033428,-0.388753,-0.911401
1630501823693,0.034648,-0.390766,-0.911767
1630501823703,0.034526,-0.389729,-0.910974
1630501823713,0.034465,-0.388936,-0.910913
1630501823722,0.036173,-0.387533,-0.912682
1630501823732,0.03721,-0.387106,-0.914817
1630501823741,0.036417,-0.386496,-0.915183
1630501823751,0.036234,-0.38674,-0.916464
1630501823761,0.036295,-0.389058,-0.915427
1630501823770,0.035746,-0.389607,-0.915427
1630501823780,0.03477,-0.389241,-0.9137799999999999
1630501823789,0.035502,-0.388387,-0.9131699999999999
1630501823799,0.035075,-0.387777,-0.912926
1630501823809,0.033733,-0.388753,-0.911767
1630501823818,0.034282,-0.387716,-0.912804
1630501823828,0.034343,-0.38552,-0.914878
1630501823837,0.032818,-0.385215,-0.916769
1630501823847,0.031598,-0.385032,-0.917867
1630501823857,0.030866,-0.38369,-0.918111
1630501823866,0.032879,-0.38356799999999996,-0.917013
1630501823876,0.031903,-0.385276,-0.915488
1630501823885,0.033672,-0.386252,-0.914268
1630501823895,0.032879,-0.386923,-0.913963
1630501823905,0.032390999999999996,-0.388631,-0.914268
1630501823914,0.033428,-0.392108,-0.912499
1630501823924,0.033489,-0.393511,-0.912804
1630501823933,0.032025,-0.392718,-0.916098
1630501823943,0.031537,-0.392474,-0.91744
1630501823953,0.0305,-0.390156,-0.916525
1630501823962,0.028059999999999998,-0.385032,-0.917318
1630501823972,0.027938,-0.381494,-0.918416
1630501823981,0.027999,-0.380396,-0.91866
1630501823991,0.028121,-0.380945,-0.917196
1630501824001,0.027755,-0.383629,-0.915183
1630501824010,0.027389,-0.385459,-0.91622
1630501824020,0.028364999999999998,-0.388082,-0.917074
1630501824029,0.028121,-0.389607,-0.916708
1630501824039,0.027572,-0.390339,-0.916342
1630501824049,0.027511,-0.390766,-0.915244
1630501824058,0.027999,-0.39131499999999997,-0.914939
1630501824068,0.028364999999999998,-0.390644,-0.914451
1630501824077,0.028914,-0.39222999999999997,-0.915122
1630501824087,0.031659,-0.392413,-0.914512
1630501824097,0.030805,-0.393389,-0.913902
1630501824106,0.029646,-0.391498,-0.913536
1630501824116,0.02928,-0.393267,-0.914756
1630501824125,0.028975,-0.394243,-0.913658
1630501824135,0.026108,-0.392108,-0.914512
1630501824145,0.025315,-0.390522,-0.913719
1630501824154,0.025131999999999998,-0.389119,-0.913902
1630501824164,0.024522,-0.387228,-0.912133
1630501824173,0.024583,-0.385276,-0.912926
1630501824183,0.02257,-0.386374,-0.915488
1630501824193,0.021533,-0.387716,-0.913658
1630501824202,0.020191,-0.39039999999999997,-0.911157
1630501824212,0.019398,-0.393877,-0.912011
1630501824221,0.01952,-0.395402,-0.915
1630501824231,0.01952,-0.39466999999999997,-0.916342
1630501824241,0.019825,-0.393938,-0.917318
1630501824250,0.020557,-0.391742,-0.917745
1630501824260,0.020313,-0.38887499999999997,-0.917074
1630501824269,0.020435,-0.387777,-0.91744
1630501824279,0.019459,-0.387228,-0.915854
1630501824289,0.018361,-0.38795999999999997,-0.913597
1630501824298,0.018788,-0.38795999999999997,-0.9140849999999999
1630501824308,0.019275999999999998,-0.387472,-0.91622
1630501824317,0.018971,-0.389729,-0.916952
1630501824327,0.018727,-0.391071,-0.917745
1630501824337,0.0183,-0.391986,-0.918538
1630501824346,0.01952,-0.393694,-0.918782
1630501824356,0.020862,-0.39497499999999997,-0.917867
1630501824365,0.022448,-0.396988,-0.917623
1630501824375,0.022631,-0.398086,-0.917379
1630501824385,0.023667999999999998,-0.397659,-0.91744
1630501824394,0.024704999999999998,-0.397232,-0.915
1630501824404,0.024766,-0.395036,-0.914817
1630501824413,0.025863999999999998,-0.39588999999999996,-0.916464
1630501824423,0.027145,-0.395768,-0.917074
1630501824433,0.02745,-0.395463,-0.91622
1630501824442,0.027572,-0.396744,-0.916525
1630501824452,0.027999,-0.395951,-0.916159
1630501824461,0.027023,-0.392657,-0.915122
1630501824471,0.026657,-0.389912,-0.914329
1630501824481,0.026413,-0.388814,-0.915061
1630501824490,0.026108,-0.388082,-0.915122
1630501824500,0.027572,-0.387594,-0.914573
1630501824509,0.026168999999999998,-0.386618,-0.912621
1630501824519,0.026413,-0.386862,-0.912987
1630501824529,0.026962,-0.389241,-0.913109
1630501824538,0.028059999999999998,-0.39039999999999997,-0.912072
1630501824548,0.02867,-0.391071,-0.912377
1630501824557,0.029036,-0.38917999999999997,-0.915244
1630501824567,0.029402,-0.387777,-0.915488
1630501824577,0.026352,-0.38795999999999997,-0.914146
1630501824586,0.024704999999999998,-0.387045,-0.914207
1630501824596,0.023119,-0.386069,-0.913841
1630501824605,0.024217,-0.386313,-0.9140849999999999
1630501824615,0.024827,-0.385581,-0.915061
1630501824625,0.024704999999999998,-0.385581,-0.913902
1630501824634,0.024217,-0.386801,-0.912194
1630501824644,0.025071,-0.389302,-0.911462
1630501824653,0.024766,-0.390217,-0.910486
1630501824663,0.025436999999999998,-0.391437,-0.911096
1630501824673,0.026962,-0.393206,-0.912194
1630501824682,0.029646,-0.39466999999999997,-0.913841
1630501824692,0.029646,-0.393999,-0.913658
1630501824701,0.029158,-0.394548,-0.913719
1630501824711,0.029158,-0.395707,-0.913658
1630501824721,0.028121,-0.394487,-0.912804
1630501824730,0.028426,-0.393633,-0.911096
1630501824740,0.028182,-0.39497499999999997,-0.910242
1630501824749,0.028243,-0.397842,-0.910608
1630501824759,0.027206,-0.401441,-0.911462
1630501824769,0.02745,-0.40577199999999997,-0.910181
1630501824778,0.026718,-0.406931,-0.910791
1630501824788,0.027267,-0.40607699999999997,-0.912194
1630501824797,0.027938,-0.404918,-0.914146
1630501824807,0.027389,-0.403698,-0.914146
1630501824817,0.026657,-0.401624,-0.91439
1630501824826,0.026168999999999998,-0.399916,-0.912926
1630501824836,0.024827,-0.398696,-0.912377
1630501824845,0.024827,-0.397537,-0.911218
1630501824855,0.025193,-0.398391,-0.911096
1630501824865,0.025131999999999998,-0.398208,-0.910303
1630501824874,0.025742,-0.398025,-0.909937
1630501824884,0.024888,-0.396317,-0.9113399999999999
1630501824893,0.025131999999999998,-0.395158,-0.912133
1630501824903,0.024704999999999998,-0.394121,-0.9113399999999999
1630501824913,0.024949,-0.394548,-0.910669
1630501824922,0.025498,-0.395219,-0.910608
1630501824932,0.025925,-0.396439,-0.910364
1630501824941,0.027267,-0.398879,-0.9095099999999999
1630501824951,0.028791999999999998,-0.398391,-0.910852
1630501824961,0.028731,-0.400465,-0.911584
1630501824970,0.02989,-0.403393,-0.912377
1630501824980,0.030195,-0.40668699999999997,-0.9119499999999999
1630501824989,0.029463,-0.408639,-0.911706
1630501824999,0.028364999999999998,-0.41138399999999997,-0.9122549999999999
1630501825009,0.028364999999999998,-0.413153,-0.911462
1630501825018,0.027877,-0.41229899999999997,-0.910242
1630501825028,0.027694,-0.410042,-0.909327
1630501825037,0.027938,-0.408395,-0.909998
1630501825047,0.027632999999999998,-0.404186,-0.910974
1630501825057,0.027511,-0.399916,-0.912194
1630501825066,0.027632999999999998,-0.396134,-0.912926
1630501825076,0.028182,-0.39405999999999997,-0.912926
1630501825085,0.026718,-0.393877,-0.912377
1630501825095,0.025131999999999998,-0.394182,-0.911523
1630501825105,0.026047,-0.394731,-0.911279
1630501825114,0.024949,-0.39405999999999997,-0.910181
1630501825124,0.024095,-0.393572,-0.909388
1630501825133,0.023607,-0.39222999999999997,-0.910791
1630501825143,0.023667999999999998,-0.390644,-0.911218
1630501825153,0.024522,-0.390461,-0.912133
1630501825162,0.023912,-0.390461,-0.9134749999999999
1630501825172,0.024034,-0.389851,-0.915427
1630501825181,0.024827,-0.39283999999999997,-0.914634
1630501825191,0.02379,-0.394914,-0.91439
1630501825201,0.024278,-0.395341,-0.914512
1630501825210,0.026291,-0.396317,-0.913658
1630501825220,0.027389,-0.3965,-0.914268
1630501825229,0.029402,-0.39833,-0.914878
1630501825239,0.032452,-0.39997699999999997,-0.914573
1630501825249,0.033977,-0.402051,-0.914756
1630501825258,0.035013999999999997,-0.40199,-0.912438
1630501825268,0.036234,-0.401563,-0.9125599999999999
1630501825277,0.038308,-0.400038,-0.911889
1630501825287,0.038796,-0.398086,-0.912133
1630501825297,0.038674,-0.394792,-0.910608
1630501825306,0.039589,-0.39497499999999997,-0.909022
1630501825316,0.040992,-0.397537,-0.908107
1630501825325,0.040199,-0.398574,-0.905606
1630501825335,0.040138,-0.399733,-0.9064599999999999
1630501825345,0.040320999999999996,-0.400404,-0.908412
1630501825354,0.040809,-0.40089199999999997,-0.909998
1630501825364,0.039406,-0.401563,-0.910669
1630501825373,0.038857,-0.402234,-0.913109
1630501825383,0.038369,-0.402966,-0.913963
1630501825393,0.036356,-0.40272199999999997,-0.9131699999999999
1630501825402,0.035441,-0.40077,-0.911218
1630501825412,0.035013999999999997,-0.397598,-0.910608
1630501825421,0.034038,-0.395036,-0.910669
1630501825431,0.033184,-0.394487,-0.909876
1630501825441,0.031903,-0.393389,-0.909144
1630501825450,0.031049,-0.392657,-0.911889
1630501825460,0.03111,-0.39222999999999997,-0.914878
1630501825469,0.031049,-0.391376,-0.91561
1630501825479,0.03111,-0.389729,-0.916098
1630501825489,0.029768,-0.389546,-0.915122
1630501825498,0.029523999999999998,-0.388692,-0.912499
1630501825508,0.029828999999999998,-0.388753,-0.914024
1630501825517,0.031476,-0.390888,-0.9131699999999999
1630501825527,0.033062,-0.39375499999999997,-0.913658
1630501825537,0.034038,-0.397171,-0.913414
1630501825546,0.0366,-0.399916,-0.913231
1630501825556,0.037087999999999996,-0.402173,-0.912316
1630501825565,0.036966,-0.40333199999999997,-0.911889
1630501825575,0.037881,-0.404491,-0.911584
1630501825585,0.038674,-0.404491,-0.911584
1630501825594,0.037942,-0.405406,-0.909693
1630501825604,0.037332,-0.40485699999999997,-0.909998
1630501825613,0.037759,-0.404186,-0.910913
1630501825623,0.037271,-0.40516199999999997,-0.911828
1630501825633,0.038308,-0.405101,-0.913658
1630501825642,0.038551999999999996,-0.40455199999999997,-0.913414
1630501825652,0.036417,-0.40211199999999997,-0.911889
1630501825661,0.03599,-0.39894,-0.9107299999999999
1630501825671,0.035441,-0.398208,-0.911584
1630501825681,0.035075,-0.39711,-0.912438
1630501825690,0.034404,-0.395402,-0.911584
1630501825700,0.03477,-0.394548,-0.912316
1630501825709,0.034159999999999996,-0.394548,-0.9125599999999999
1630501825719,0.034159999999999996,-0.394426,-0.9134749999999999
1630501825729,0.03477,-0.393938,-0.9110349999999999
1630501825738,0.034953,-0.393572,-0.910669
1630501825748,0.034831,-0.395097,-0.909388
1630501825757,0.033794,-0.396866,-0.908412
1630501825767,0.03477,-0.39894,-0.908107
1630501825777,0.034953,-0.400099,-0.908656
1630501825786,0.035013999999999997,-0.40016,-0.910181
1630501825796,0.035136,-0.39894,-0.910608
1630501825805,0.033794,-0.398818,-0.908961
1630501825815,0.033672,-0.397781,-0.909632
1630501825825,0.033977,-0.397354,-0.912804
1630501825834,0.033672,-0.397903,-0.9131699999999999
1630501825844,0.033672,-0.398025,-0.913536
1630501825853,0.034587,-0.397354,-0.912011
1630501825863,0.035258,-0.397781,-0.912072
1630501825873,0.035746,-0.398147,-0.9113399999999999
1630501825882,0.037027,-0.398818,-0.911462
1630501825892,0.038308,-0.400404,-0.911889
1630501825901,0.038796,-0.399428,-0.9122549999999999
1630501825911,0.039589,-0.399245,-0.9104249999999999
1630501825921,0.042029,-0.400099,-0.910364
1630501825930,0.041602,-0.402051,-0.9088999999999999
1630501825940,0.041907,-0.402844,-0.907863
1630501825949,0.041602,-0.403881,-0.907436
1630501825959,0.042456,-0.40516199999999997,-0.905728
1630501825969,0.040992,-0.403454,-0.905362
1630501825978,0.040565,-0.40333199999999997,-0.907802
1630501825988,0.040504,-0.402295,-0.9101199999999999
1630501825997,0.03965,-0.4026,-0.912316
1630501826007,0.038918,-0.40302699999999997,-0.913292
1630501826017,0.038125,-0.403515,-0.911523
1630501826026,0.035502,-0.40272199999999997,-0.909754
1630501826036,0.034648,-0.402539,-0.910791
1630501826045,0.034282,-0.404125,-0.909632
1630501826055,0.033123,-0.403881,-0.909937
1630501826065,0.033428,-0.403881,-0.910974
1630501826074,0.034038,-0.400526,-0.910852
1630501826084,0.033549999999999996,-0.398391,-0.9119499999999999
1630501826093,0.032695999999999996,-0.395646,-0.911767
1630501826103,0.032085999999999996,-0.394426,-0.910791
1630501826113,0.031354,-0.39314499999999997,-0.910242
1630501826122,0.030134,-0.39314499999999997,-0.908412
1630501826132,0.032085999999999996,-0.393267,-0.908534
1630501826141,0.030683,-0.393084,-0.909388
1630501826151,0.029158,-0.393328,-0.908778
1630501826161,0.02928,-0.394914,-0.9098149999999999
1630501826170,0.030317,-0.396256,-0.909937
1630501826180,0.028975,-0.397232,-0.911157
1630501826189,0.027938,-0.39833,-0.912438
1630501826199,0.02745,-0.397842,-0.9131699999999999
1630501826209,0.027877,-0.39955,-0.914329
1630501826218,0.028426,-0.400038,-0.915976
1630501826228,0.028426,-0.399733,-0.915366
1630501826237,0.028364999999999998,-0.399306,-0.914634
1630501826247,0.027632999999999998,-0.399245,-0.9125599999999999
1630501826257,0.028304,-0.398086,-0.910913
1630501826266,0.027632999999999998,-0.397781,-0.912133
1630501826276,0.027877,-0.39711,-0.911584
1630501826285,0.027145,-0.396439,-0.912926
1630501826295,0.027938,-0.39558499999999996,-0.9134749999999999
1630501826305,0.027999,-0.395951,-0.913536
1630501826314,0.028791999999999998,-0.395158,-0.913048
1630501826324,0.028121,-0.395097,-0.913292
1630501826333,0.027938,-0.395036,-0.9131699999999999
1630501826343,0.028182,-0.394731,-0.9128649999999999
1630501826353,0.027938,-0.395646,-0.9131699999999999
1630501826362,0.028731,-0.396012,-0.912682
1630501826372,0.027327999999999998,-0.396073,-0.913536
1630501826381,0.026474,-0.397354,-0.913048
1630501826391,0.026595999999999998,-0.397781,-0.911157
1630501826401,0.026108,-0.397964,-0.911523
1630501826410,0.025376,-0.39588999999999996,-0.916342
1630501826420,0.025193,-0.39527999999999996,-0.915
1630501826429,0.023241,-0.395341,-0.913536
1630501826439,0.022753,-0.395829,-0.914146
1630501826449,0.024339,-0.394914,-0.915488
1630501826458,0.025498,-0.393023,-0.915671
1630501826468,0.025131999999999998,-0.390827,-0.916586
1630501826477,0.028121,-0.392474,-0.915366
1630501826487,0.029219,-0.392901,-0.913231
1630501826497,0.028059999999999998,-0.395219,-0.910547
1630501826506,0.028304,-0.39833,-0.9088999999999999
1630501826516,0.028121,-0.39955,-0.9076799999999999
1630501826525,0.028975,-0.399489,-0.907436
1630501826535,0.027511,-0.398208,-0.907619
1630501826545,0.028548,-0.398879,-0.908412
1630501826554,0.026657,-0.398635,-0.909083
1630501826564,0.025559,-0.39772,-0.909754
1630501826573,0.024399999999999998,-0.398757,-0.910547
1630501826583,0.022631,-0.398086,-0.910974
1630501826593,0.021471999999999998,-0.397354,-0.912072
1630501826602,0.021838,-0.397476,-0.9128649999999999
1630501826612,0.02196,-0.399306,-0.913353
1630501826621,0.021655,-0.400526,-0.911767
1630501826631,0.021106,-0.40028199999999997,-0.9110349999999999
1630501826641,0.018788,-0.400648,-0.909327
1630501826650,0.018117,-0.400099,-0.911157
1630501826660,0.017934,-0.40016,-0.912194
1630501826669,0.017263,-0.400221,-0.9122549999999999
1630501826679,0.017811999999999998,-0.39772,-0.9113399999999999
1630501826689,0.016347999999999998,-0.396744,-0.911889
1630501826698,0.016836,-0.396439,-0.910669
1630501826708,0.017995,-0.397781,-0.911584
1630501826717,0.018788,-0.401014,-0.912194
1630501826727,0.018605,-0.401258,-0.910181
1630501826737,0.018056,-0.4026,-0.909754
1630501826746,0.018483,-0.40394199999999997,-0.9101199999999999
1630501826756,0.018543999999999998,-0.40516199999999997,-0.9110349999999999
1630501826765,0.019032,-0.40748,-0.912316
1630501826775,0.018971,-0.407785,-0.912194
1630501826785,0.019032,-0.40821199999999996,-0.911523
1630501826794,0.019275999999999998,-0.406809,-0.912438
1630501826804,0.019398,-0.40668699999999997,-0.911462
1630501826813,0.019886,-0.406504,-0.910913
1630501826823,0.020252,-0.40607699999999997,-0.909449
1630501826833,0.020984,-0.407358,-0.909876
1630501826842,0.022265,-0.40809,-0.909388
1630501826852,0.024034,-0.407053,-0.909754
1630501826861,0.022448,-0.40546699999999997,-0.910181
1630501826871,0.023241,-0.404491,-0.911096
1630501826881,0.022631,-0.403088,-0.911157
1630501826890,0.023607,-0.402478,-0.910303
1630501826900,0.024644,-0.402295,-0.911096
1630501826909,0.02501,-0.403271,-0.910974
1630501826919,0.024095,-0.402295,-0.911523
1630501826929,0.024644,-0.402234,-0.910242
1630501826938,0.024888,-0.401868,-0.909693
1630501826948,0.025742,-0.403149,-0.9095099999999999
1630501826957,0.026595999999999998,-0.403454,-0.9095099999999999
1630501826967,0.027816,-0.40321,-0.909022
1630501826977,0.028914,-0.402173,-0.907741
1630501826986,0.028487,-0.40089199999999997,-0.907924
1630501826996,0.029219,-0.400526,-0.908534
1630501827005,0.02928,-0.402234,-0.907436
1630501827015,0.030378,-0.402844,-0.908229
1630501827025,0.030744,-0.402661,-0.909632
1630501827034,0.02989,-0.401624,-0.909693
1630501827044,0.02867,-0.401319,-0.908351
1630501827053,0.028121,-0.399611,-0.910547
1630501827063,0.028364999999999998,-0.398696,-0.910913
1630501827073,0.02867,-0.399611,-0.9113399999999999
1630501827082,0.030805,-0.399611,-0.9104249999999999
1630501827092,0.032879,-0.40077,-0.910059
1630501827101,0.033306,-0.401075,-0.910242
1630501827111,0.033489,-0.401319,-0.909876
1630501827121,0.033428,-0.401441,-0.9082899999999999
1630501827130,0.033672,-0.401075,-0.908778
1630501827140,0.035197,-0.39936699999999997,-0.909144
1630501827149,0.036478,-0.400343,-0.909266
1630501827159,0.036844,-0.400221,-0.908656
1630501827169,0.037454,-0.40016,-0.908473
1630501827178,0.036356,-0.400648,-0.907253
1630501827188,0.036478,-0.401868,-0.906826
1630501827197,0.037576,-0.403698,-0.906704
1630501827207,0.036844,-0.40565,-0.906094
1630501827217,0.036539,-0.408334,-0.905667
1630501827226,0.036782999999999996,-0.410957,-0.906948
1630501827236,0.037027,-0.411018,-0.909083
1630501827245,0.036661,-0.41199399999999997,-0.9095099999999999
1630501827255,0.034648,-0.410835,-0.9088999999999999
1630501827265,0.033854999999999996,-0.408273,-0.909266
1630501827274,0.033428,-0.40687,-0.909998
1630501827284,0.03172,-0.40687,-0.9095099999999999
1630501827293,0.030683,-0.404796,-0.9092049999999999
1630501827303,0.030987999999999998,-0.40272199999999997,-0.9095099999999999
1630501827313,0.031293,-0.40150199999999997,-0.909693
1630501827322,0.030927,-0.400831,-0.910303
1630501827332,0.030378,-0.40058699999999997,-0.909083
1630501827341,0.030378,-0.399916,-0.908534
1630501827351,0.030987999999999998,-0.401136,-0.908534
1630501827361,0.03172,-0.402478,-0.909144
1630501827370,0.030683,-0.40241699999999997,-0.909022
1630501827380,0.030317,-0.40150199999999997,-0.908107
1630501827389,0.029828999999999998,-0.4026,-0.907802
1630501827399,0.030439,-0.40333199999999997,-0.907619
1630501827409,0.029402,-0.404186,-0.9076799999999999
1630501827418,0.030622,-0.404674,-0.909266
1630501827428,0.030134,-0.405711,-0.9085949999999999
1630501827437,0.030317,-0.406016,-0.908473
1630501827447,0.030195,-0.404735,-0.9107299999999999
1630501827457,0.02989,-0.406138,-0.910364
1630501827466,0.028426,-0.404674,-0.910791
1630501827476,0.028914,-0.405345,-0.911584
1630501827485,0.028364999999999998,-0.40504,-0.9113399999999999
1630501827495,0.029036,-0.406748,-0.910303
1630501827505,0.030073,-0.40565,-0.910791
1630501827514,0.029219,-0.405528,-0.910242
1630501827524,0.029951,-0.40565,-0.909022
1630501827533,0.030255999999999998,-0.405894,-0.909144
1630501827543,0.030073,-0.40668699999999997,-0.909083
1630501827553,0.030012,-0.406138,-0.9079849999999999
1630501827562,0.030195,-0.405955,-0.907741
1630501827572,0.030073,-0.40516199999999997,-0.909022
1630501827581,0.030439,-0.40424699999999997,-0.908839
1630501827591,0.030439,-0.40394199999999997,-0.908473
1630501827601,0.028975,-0.40382,-0.907497
1630501827610,0.028548,-0.403759,-0.908107
1630501827620,0.028731,-0.40504,-0.907863
1630501827629,0.027327999999999998,-0.40760199999999996,-0.907131
1630501827639,0.027389,-0.40748,-0.909693
1630501827649,0.027877,-0.407053,-0.910242
1630501827658,0.026413,-0.40565,-0.9085949999999999
1630501827668,0.025254,-0.402539,-0.9092049999999999
1630501827677,0.023729,-0.39955,-0.908534
1630501827687,0.023546,-0.399062,-0.909266
1630501827697,0.023363,-0.399001,-0.909632
1630501827706,0.023851,-0.398818,-0.911584
1630501827716,0.024156,-0.399062,-0.912011
1630501827725,0.023607,-0.398818,-0.912072
1630501827735,0.023058,-0.399001,-0.911706
1630501827745,0.023851,-0.400038,-0.909632
1630501827754,0.023912,-0.40180699999999997,-0.909266
1630501827764,0.025863999999999998,-0.403088,-0.910303
1630501827773,0.026718,-0.402844,-0.909632
1630501827783,0.027632999999999998,-0.402966,-0.909022
1630501827793,0.029036,-0.40382,-0.907741
1630501827802,0.02928,-0.40394199999999997,-0.907009
1630501827812,0.030012,-0.405284,-0.907314
1630501827821,0.029951,-0.405833,-0.906399
1630501827831,0.028914,-0.407724,-0.906216
1630501827841,0.028364999999999998,-0.408761,-0.906643
1630501827850,0.027327999999999998,-0.41138399999999997,-0.906582
1630501827860,0.026291,-0.413092,-0.9061549999999999
1630501827869,0.026718,-0.414617,-0.907314
1630501827879,0.025254,-0.414678,-0.9082899999999999
1630501827889,0.024827,-0.411628,-0.909693
1630501827898,0.024034,-0.409249,-0.910608
1630501827908,0.022814,-0.406138,-0.9113399999999999
1630501827917,0.022082,-0.40333199999999997,-0.9104249999999999
1630501827927,0.020435,-0.402234,-0.908717
1630501827937,0.020923,-0.403149,-0.907863
1630501827946,0.019642,-0.39833,-0.908778
1630501827956,0.019947,-0.40016,-0.905728
1630501827965,0.019947,-0.401258,-0.907314
1630501827975,0.020374,-0.403698,-0.9082899999999999
1630501827985,0.02196,-0.404308,-0.9073749999999999
1630501827994,0.021228,-0.40455199999999997,-0.907863
1630501828004,0.021594,-0.404491,-0.906948
1630501828013,0.020496,-0.406016,-0.906094
1630501828023,0.019093,-0.40668699999999997,-0.905118
1630501828033,0.01952,-0.408517,-0.9058499999999999
1630501828042,0.019764,-0.409127,-0.908534
1630501828052,0.020923,-0.410652,-0.910486
1630501828061,0.020801,-0.411567,-0.912011
1630501828071,0.01952,-0.41168899999999997,-0.912682
1630501828081,0.019886,-0.410835,-0.911462
1630501828090,0.019032,-0.410835,-0.9098149999999999
1630501828100,0.018971,-0.411933,-0.9085949999999999
1630501828109,0.019398,-0.41358,-0.908168
1630501828119,0.020739999999999998,-0.415715,-0.9073749999999999
1630501828129,0.019825,-0.415227,-0.906704
1630501828138,0.020374,-0.415593,-0.907863
1630501828148,0.020923,-0.41351899999999997,-0.908778
1630501828157,0.020984,-0.410896,-0.9107299999999999
1630501828167,0.020679,-0.40790699999999996,-0.911523
1630501828177,0.02135,-0.40687,-0.9110349999999999
1630501828186,0.019764,-0.40577199999999997,-0.9095099999999999
1630501828196,0.01952,-0.405284,-0.907924
1630501828205,0.019947,-0.406016,-0.907314
1630501828215,0.020007999999999998,-0.40638199999999997,-0.907497
1630501828225,0.021228,-0.40626,-0.906704
1630501828234,0.02196,-0.406321,-0.9064599999999999
1630501828244,0.021594,-0.407236,-0.907314
1630501828253,0.021655,-0.407541,-0.906277
1630501828263,0.021471999999999998,-0.407663,-0.9046299999999999
1630501828273,0.020007999999999998,-0.40748,-0.906399
1630501828282,0.020862,-0.407968,-0.907863
1630501828292,0.019764,-0.409249,-0.9070699999999999
1630501828301,0.018605,-0.4087,-0.907924
1630501828311,0.019581,-0.40748,-0.910852
1630501828321,0.019642,-0.407175,-0.913292
1630501828330,0.021289,-0.407358,-0.911462
1630501828340,0.02013,-0.407724,-0.911462
1630501828349,0.019703,-0.407663,-0.909632
1630501828359,0.018483,-0.406809,-0.907497
1630501828369,0.018788,-0.406931,-0.906704
1630501828378,0.01952,-0.40565,-0.906216
1630501828388,0.021106,-0.40455199999999997,-0.9082899999999999
1630501828397,0.022814,-0.403271,-0.909388
1630501828407,0.023424,-0.40180699999999997,-0.909022
1630501828417,0.024339,-0.402295,-0.907314
1630501828426,0.025254,-0.401441,-0.906338
1630501828436,0.026047,-0.403271,-0.9058499999999999
1630501828445,0.025742,-0.40607699999999997,-0.9052399999999999
1630501828455,0.027084,-0.409859,-0.904508
1630501828465,0.028487,-0.413641,-0.903471
1630501828474,0.028548,-0.416203,-0.903837
1630501828484,0.029036,-0.416752,-0.904691
1630501828493,0.030987999999999998,-0.41602,-0.907131
1630501828503,0.030255999999999998,-0.414678,-0.907314
1630501828513,0.02684,-0.41114,-0.905911
1630501828522,0.025925,-0.40931,-0.906094
1630501828532,0.023424,-0.40699199999999996,-0.906826
1630501828541,0.022448,-0.40565,-0.908473
1630501828551,0.020739999999999998,-0.40516199999999997,-0.910486
1630501828561,0.021655,-0.403149,-0.912926
1630501828570,0.021228,-0.40077,-0.912804
1630501828580,0.020496,-0.40199,-0.911889
1630501828589,0.019764,-0.401136,-0.910852
1630501828599,0.01891,-0.401258,-0.908717
1630501828609,0.019398,-0.403088,-0.907009
1630501828618,0.019947,-0.405894,-0.908168
1630501828628,0.021716,-0.406931,-0.9088999999999999
1630501828637,0.022875,-0.407236,-0.909083
1630501828647,0.02318,-0.406748,-0.908351
1630501828657,0.023485,-0.40687,-0.907802
1630501828666,0.022935999999999998,-0.405833,-0.907558
1630501828676,0.022875,-0.405833,-0.908839
1630501828685,0.02379,-0.406016,-0.908656
1630501828695,0.023363,-0.404979,-0.9098149999999999
1630501828705,0.023546,-0.404186,-0.9101199999999999
1630501828714,0.024704999999999998,-0.403149,-0.912682
1630501828724,0.023972999999999998,-0.40272199999999997,-0.912804
1630501828733,0.022935999999999998,-0.40199,-0.912499
1630501828743,0.023546,-0.40089199999999997,-0.911462
1630501828753,0.023972999999999998,-0.40119699999999997,-0.9110349999999999
1630501828762,0.024644,-0.400221,-0.908839
1630501828772,0.024461,-0.401014,-0.9061549999999999
1630501828781,0.023607,-0.401319,-0.904142
1630501828791,0.022692,-0.40443,-0.9037149999999999
1630501828801,0.024644,-0.406321,-0.905301
1630501828810,0.023972999999999998,-0.408273,-0.906094
1630501828820,0.022935999999999998,-0.409615,-0.907863
1630501828829,0.02318,-0.409188,-0.908412
1630501828839,0.022082,-0.409859,-0.907497
1630501828849,0.021838,-0.409188,-0.907863
1630501828858,0.020313,-0.407846,-0.908168
1630501828868,0.019093,-0.408761,-0.909388
1630501828877,0.020739999999999998,-0.407724,-0.910242
1630501828887,0.020007999999999998,-0.407419,-0.909937
1630501828897,0.018178,-0.407785,-0.9095099999999999
1630501828906,0.01769,-0.40687,-0.912926
1630501828916,0.017079999999999998,-0.404979,-0.911584
1630501828925,0.013725,-0.402783,-0.909449
1630501828935,0.01342,-0.400526,-0.909937
1630501828945,0.014701,-0.398879,-0.911706
1630501828954,0.017079999999999998,-0.397659,-0.913963
1630501828964,0.01769,-0.397964,-0.913353
1630501828973,0.0183,-0.40150199999999997,-0.911279
1630501828983,0.019398,-0.405406,-0.909632
1630501828993,0.018849,-0.407968,-0.908351
1630501829002,0.019581,-0.408883,-0.908778
1630501829012,0.020923,-0.407846,-0.909022
1630501829021,0.022143,-0.407968,-0.908534
1630501829031,0.022326,-0.406931,-0.907619
1630501829041,0.023424,-0.406626,-0.906216
1630501829050,0.02257,-0.406016,-0.904142
1630501829060,0.022082,-0.407724,-0.902556
1630501829069,0.022203999999999998,-0.406321,-0.903166
1630501829079,0.022143,-0.40668699999999997,-0.903288
1630501829089,0.022082,-0.40638199999999997,-0.9046299999999999
1630501829098,0.021471999999999998,-0.40516199999999997,-0.9070699999999999
1630501829108,0.021106,-0.404674,-0.908229
1630501829117,0.021289,-0.403454,-0.909083
1630501829127,0.019398,-0.404491,-0.908351
1630501829137,0.017934,-0.403576,-0.9076799999999999
1630501829146,0.018178,-0.403576,-0.909327
1630501829156,0.018543999999999998,-0.40565,-0.910181
1630501829165,0.019154,-0.407724,-0.910364
1630501829175,0.020252,-0.408883,-0.910486
1630501829185,0.019459,-0.409554,-0.909937
1630501829194,0.021533,-0.409432,-0.9101199999999999
1630501829204,0.019642,-0.409188,-0.910059
1630501829213,0.020739999999999998,-0.408029,-0.9076799999999999
1630501829223,0.020557,-0.40809,-0.907497
1630501829233,0.022997,-0.406199,-0.906277
1630501829242,0.022692,-0.404979,-0.906216
1630501829252,0.023424,-0.405223,-0.906033
1630501829261,0.024034,-0.407236,-0.9070699999999999
1630501829271,0.025071,-0.408578,-0.906948
1630501829281,0.024522,-0.409859,-0.906216
1630501829290,0.02379,-0.412665,-0.905667
1630501829300,0.024399999999999998,-0.412238,-0.906033
1630501829309,0.024522,-0.41260399999999997,-0.906094
1630501829319,0.025071,-0.41358,-0.906887
1630501829329,0.024278,-0.414495,-0.9076799999999999
1630501829338,0.023972999999999998,-0.414983,-0.9088999999999999
1630501829348,0.024156,-0.413092,-0.908168
1630501829357,0.023851,-0.411323,-0.907558
1630501829367,0.023058,-0.40992,-0.9064599999999999
1630501829377,0.023058,-0.410103,-0.906704
1630501829386,0.022935999999999998,-0.410774,-0.906521
1630501829396,0.024522,-0.41114,-0.904996
1630501829405,0.023424,-0.409493,-0.906033
1630501829415,0.024399999999999998,-0.409798,-0.905728
1630501829425,0.025681,-0.410652,-0.906338
1630501829434,0.02501,-0.409676,-0.906277
1630501829444,0.024399999999999998,-0.40760199999999996,-0.905484
1630501829453,0.023546,-0.407419,-0.904569
1630501829463,0.022021,-0.406565,-0.904447
1630501829473,0.021594,-0.40748,-0.903166
1630501829482,0.020618,-0.407724,-0.903288
1630501829492,0.020496,-0.410652,-0.904813
1630501829501,0.021167,-0.413153,-0.905667
1630501829511,0.022692,-0.417667,-0.907924
1630501829521,0.023424,-0.419497,-0.908534
1630501829530,0.024888,-0.41931399999999996,-0.909693
1630501829540,0.023729,-0.418582,-0.907924
1630501829549,0.023241,-0.416142,-0.907131
1630501829559,0.021777,-0.413397,-0.905301
1630501829569,0.020435,-0.412482,-0.906277
1630501829578,0.022387,-0.41199399999999997,-0.907436
1630501829588,0.02257,-0.41168899999999997,-0.907924
1630501829597,0.023851,-0.41114,-0.908473
1630501829607,0.02379,-0.41114,-0.908351
1630501829617,0.024644,-0.411323,-0.907192
1630501829626,0.024704999999999998,-0.411506,-0.906399
1630501829636,0.024461,-0.410347,-0.905606
1630501829645,0.026474,-0.410408,-0.905362
1630501829655,0.026779,-0.411506,-0.904996
1630501829665,0.028059999999999998,-0.410896,-0.904569
1630501829674,0.027267,-0.409859,-0.903227
1630501829684,0.02684,-0.40931,-0.9037149999999999
1630501829693,0.027327999999999998,-0.410164,-0.904142
1630501829703,0.027632999999999998,-0.410225,-0.904203
1630501829713,0.027084,-0.410469,-0.906094
1630501829722,0.027084,-0.410896,-0.906277
1630501829732,0.027572,-0.412665,-0.905484
1630501829741,0.025925,-0.413763,-0.904386
1630501829751,0.026779,-0.414617,-0.903471
1630501829761,0.026474,-0.416813,-0.903166
1630501829770,0.026474,-0.41663,-0.9037149999999999
1630501829780,0.026718,-0.41565399999999997,-0.905667
1630501829789,0.027023,-0.414861,-0.906399
1630501829799,0.026291,-0.413946,-0.905789
1630501829809,0.02562,-0.414007,-0.905423
1630501829818,0.026657,-0.413031,-0.9058499999999999
1630501829828,0.025863999999999998,-0.413275,-0.9070699999999999
1630501829837,0.02501,-0.41260399999999997,-0.907863
1630501829847,0.024034,-0.412543,-0.906643
1630501829857,0.023119,-0.410896,-0.905362
1630501829866,0.022326,-0.410408,-0.905118
1630501829876,0.022814,-0.408517,-0.9058499999999999
1630501829885,0.022203999999999998,-0.409127,-0.904813
1630501829895,0.022509,-0.410835,-0.904386
1630501829905,0.022997,-0.411262,-0.904996
1630501829914,0.023058,-0.413275,-0.9043249999999999
1630501829924,0.021411,-0.414861,-0.903898
1630501829933,0.020739999999999998,-0.416081,-0.903898
1630501829943,0.019032,-0.41687399999999997,-0.904569
1630501829953,0.018971,-0.41687399999999997,-0.9043249999999999
1630501829962,0.018788,-0.416325,-0.906826
1630501829972,0.018666,-0.41419,-0.9092049999999999
1630501829981,0.019154,-0.412116,-0.909571
1630501829991,0.018788,-0.411323,-0.909327
1630501830001,0.017934,-0.410713,-0.909144
1630501830010,0.017811999999999998,-0.410408,-0.907253
1630501830020,0.018543999999999998,-0.409737,-0.907253
1630501830029,0.018605,-0.409493,-0.906338
1630501830039,0.019398,-0.41053,-0.905972
1630501830049,0.019764,-0.411018,-0.906582
1630501830058,0.020739999999999998,-0.411506,-0.9076799999999999
1630501830068,0.021106,-0.412848,-0.909022
1630501830077,0.023302,-0.413885,-0.909144
1630501830087,0.02562,-0.413763,-0.910181
1630501830097,0.027267,-0.413153,-0.9085949999999999
1630501830106,0.028791999999999998,-0.414922,-0.906704
1630501830116,0.029341,-0.41687399999999997,-0.903776
1630501830125,0.029523999999999998,-0.421144,-0.900787
1630501830135,0.030927,-0.423462,-0.8991399999999999
1630501830145,0.031171,-0.424865,-0.8982249999999999
1630501830154,0.030927,-0.424377,-0.8994449999999999
1630501830164,0.030987999999999998,-0.422425,-0.901336
1630501830173,0.031415,-0.41992399999999996,-0.900787
1630501830183,0.029951,-0.418216,-0.899872
1630501830193,0.029158,-0.415898,-0.900482
1630501830202,0.028243,-0.41473899999999997,-0.9009699999999999
1630501830212,0.026352,-0.41382399999999997,-0.9021899999999999
1630501830221,0.02623,-0.41443399999999997,-0.903898
1630501830231,0.025498,-0.413946,-0.904813
1630501830241,0.02257,-0.410347,-0.904996
1630501830250,0.019703,-0.407541,-0.905179
1630501830260,0.019398,-0.406626,-0.905728
1630501830269,0.019275999999999998,-0.406199,-0.9073749999999999
1630501830279,0.019398,-0.40546699999999997,-0.9076799999999999
1630501830289,0.019093,-0.404369,-0.9092049999999999
1630501830298,0.019764,-0.407114,-0.908107
1630501830308,0.02013,-0.40992,-0.906643
1630501830317,0.020313,-0.41175,-0.904142
1630501830327,0.021228,-0.415166,-0.902556
1630501830337,0.022387,-0.41846,-0.902007
1630501830346,0.023485,-0.419436,-0.903898
1630501830356,0.024522,-0.420961,-0.9049349999999999
1630501830365,0.022935999999999998,-0.420412,-0.905118
1630501830375,0.02196,-0.420778,-0.903471
1630501830385,0.019886,-0.41968,-0.904386
1630501830394,0.019581,-0.417606,-0.9046299999999999
1630501830404,0.019275999999999998,-0.415227,-0.9049349999999999
1630501830413,0.018056,-0.41504399999999997,-0.906033
1630501830423,0.018117,-0.414251,-0.907009
1630501830433,0.018543999999999998,-0.413763,-0.907436
1630501830442,0.017811999999999998,-0.412543,-0.908046
1630501830452,0.017506999999999998,-0.410957,-0.908107
1630501830461,0.018178,-0.409798,-0.907558
1630501830471,0.018117,-0.409981,-0.905911
1630501830481,0.01769,-0.409127,-0.904569
1630501830490,0.018239,-0.407846,-0.904569
1630501830500,0.018178,-0.408395,-0.9058499999999999
1630501830509,0.017811999999999998,-0.408517,-0.905911
1630501830519,0.018422,-0.408761,-0.905972
1630501830529,0.018117,-0.410408,-0.906094
1630501830538,0.019337,-0.412421,-0.904996
1630501830548,0.020679,-0.41260399999999997,-0.905301
1630501830557,0.021838,-0.413458,-0.9070699999999999
1630501830567,0.023058,-0.41358,-0.906887
1630501830577,0.022753,-0.416508,-0.906643
1630501830586,0.023363,-0.418948,-0.906704
1630501830596,0.023729,-0.42029,-0.9058499999999999
1630501830605,0.022875,-0.421998,-0.905667
1630501830615,0.022387,-0.422852,-0.904874
1630501830625,0.021167,-0.420839,-0.905728
1630501830634,0.02013,-0.418826,-0.905606
1630501830644,0.019581,-0.416386,-0.905484
1630501830653,0.020007999999999998,-0.413336,-0.905423
1630501830663,0.020007999999999998,-0.41107899999999997,-0.906704
1630501830673,0.020374,-0.40809,-0.907619
1630501830682,0.020801,-0.40638199999999997,-0.907192
1630501830692,0.021167,-0.405894,-0.907192
1630501830701,0.021594,-0.40626,-0.905911
1630501830711,0.022326,-0.408822,-0.904203
1630501830721,0.023972999999999998,-0.411323,-0.903532
1630501830730,0.025436999999999998,-0.413946,-0.902312
1630501830740,0.027632999999999998,-0.415166,-0.9021899999999999
1630501830749,0.028182,-0.415471,-0.9031049999999999
1630501830759,0.029646,-0.416081,-0.902007
1630501830769,0.029219,-0.41785,-0.9027999999999999
1630501830778,0.029707,-0.41992399999999996,-0.902922
1630501830788,0.029585,-0.421388,-0.901763
1630501830797,0.02928,-0.421693,-0.902312
1630501830807,0.028304,-0.422242,-0.904752
1630501830817,0.02867,-0.423462,-0.904264
1630501830826,0.025925,-0.422791,-0.903593
1630501830836,0.024461,-0.420046,-0.902983
1630501830845,0.023851,-0.417118,-0.906216
1630501830855,0.022875,-0.413336,-0.907802
1630501830865,0.022143,-0.410591,-0.907558
1630501830874,0.021899,-0.407724,-0.907131
1630501830884,0.020618,-0.406138,-0.906948
1630501830893,0.01952,-0.405833,-0.905484
1630501830903,0.018056,-0.407236,-0.903288
1630501830913,0.018788,-0.40607699999999997,-0.904874
1630501830922,0.018483,-0.405345,-0.9076799999999999
1630501830932,0.020007999999999998,-0.405406,-0.908778
1630501830941,0.020191,-0.407175,-0.9095099999999999
1630501830951,0.02135,-0.407053,-0.910059
1630501830961,0.02196,-0.408578,-0.908778
1630501830970,0.022143,-0.410896,-0.906643
1630501830980,0.022997,-0.412848,-0.904386
1630501830989,0.022692,-0.41565399999999997,-0.902312
1630501830999,0.022692,-0.418887,-0.898957
1630501831009,0.023972999999999998,-0.421815,-0.897371
1630501831018,0.024949,-0.423035,-0.896883
1630501831028,0.025254,-0.42309599999999997,-0.897798
1630501831037,0.026168999999999998,-0.421388,-0.899506
1630501831047,0.025559,-0.420534,-0.9012749999999999
1630501831057,0.025131999999999998,-0.41839899999999997,-0.903959
1630501831066,0.024461,-0.416752,-0.906216
1630501831076,0.022631,-0.41419,-0.906216
1630501831085,0.021411,-0.412421,-0.907131
1630501831095,0.020862,-0.410408,-0.907253
1630501831105,0.020496,-0.409798,-0.908046
1630501831114,0.019947,-0.409676,-0.9070699999999999
1630501831124,0.019886,-0.407358,-0.907741
1630501831133,0.020923,-0.406626,-0.907497
1630501831143,0.021045,-0.405894,-0.9073749999999999
1630501831153,0.021167,-0.403881,-0.906826
1630501831162,0.021167,-0.405101,-0.903959
1630501831172,0.021716,-0.409005,-0.901031
1630501831181,0.021838,-0.413763,-0.9003599999999999
1630501831191,0.022814,-0.417972,-0.900848
1630501831201,0.024827,-0.419375,-0.902861
1630501831210,0.025376,-0.421449,-0.9052399999999999
1630501831220,0.025315,-0.420351,-0.905972
1630501831229,0.023241,-0.417667,-0.9067649999999999
1630501831239,0.022875,-0.415898,-0.906338
1630501831249,0.02135,-0.413458,-0.903959
1630501831258,0.018849,-0.411201,-0.902068
1630501831268,0.017446,-0.40992,-0.903532
1630501831277,0.017811999999999998,-0.409676,-0.904996
1630501831287,0.016531,-0.409188,-0.905606
1630501831297,0.015067,-0.410042,-0.905789
1630501831306,0.014884,-0.410835,-0.906582
1630501831316,0.015372,-0.412177,-0.906277
1630501831325,0.014884,-0.411323,-0.906338
1630501831335,0.016042999999999998,-0.41260399999999997,-0.906887
1630501831345,0.016774999999999998,-0.41534899999999997,-0.907558
1630501831354,0.017019,-0.418216,-0.907741
1630501831364,0.018056,-0.418582,-0.907619
1630501831373,0.020252,-0.419192,-0.9070699999999999
1630501831383,0.020557,-0.418277,-0.906521
1630501831393,0.019703,-0.418582,-0.905362
1630501831402,0.019398,-0.416508,-0.904752
1630501831412,0.019093,-0.41656899999999997,-0.9058499999999999
1630501831421,0.019337,-0.41663,-0.906277
1630501831431,0.018849,-0.418216,-0.9046299999999999
1630501831441,0.019459,-0.420778,-0.907192
1630501831450,0.02013,-0.420351,-0.909388
1630501831460,0.019032,-0.42151,-0.907802
1630501831469,0.018422,-0.42212,-0.905667
1630501831479,0.018605,-0.420961,-0.9067649999999999
1630501831489,0.020739999999999998,-0.41907,-0.907619
1630501831498,0.022509,-0.41602,-0.908717
1630501831508,0.023424,-0.414312,-0.908046
1630501831517,0.024095,-0.413397,-0.905606
1630501831527,0.023912,-0.411811,-0.903227
1630501831537,0.020496,-0.409005,-0.901031
1630501831546,0.020435,-0.406504,-0.899811
1630501831556,0.021106,-0.405833,-0.899018
1630501831565,0.023058,-0.407358,-0.900726
1630501831575,0.024034,-0.408822,-0.900848
1630501831585,0.02501,-0.411811,-0.9006649999999999
1630501831594,0.027145,-0.41412899999999997,-0.900848
1630501831604,0.026962,-0.417911,-0.901519
1630501831613,0.028791999999999998,-0.41968,-0.901824
1630501831623,0.030255999999999998,-0.420961,-0.903532
1630501831633,0.029523999999999998,-0.422669,-0.905789
1630501831642,0.029523999999999998,-0.421022,-0.9049349999999999
1630501831652,0.029646,-0.42022899999999996,-0.9046299999999999
1630501831661,0.028548,-0.418826,-0.904264
1630501831671,0.027389,-0.418582,-0.902434
1630501831681,0.025863999999999998,-0.418826,-0.901519
1630501831690,0.024704999999999998,-0.41846,-0.9018849999999999
1630501831700,0.026474,-0.420839,-0.902617
1630501831709,0.025863999999999998,-0.422486,-0.902922
1630501831719,0.02501,-0.424255,-0.902373
1630501831729,0.025986,-0.422425,-0.903288
1630501831738,0.026168999999999998,-0.420534,-0.902922
1630501831748,0.026047,-0.41870399999999997,-0.902861
1630501831757,0.02501,-0.416447,-0.901458
1630501831767,0.023058,-0.4148,-0.900421
1630501831777,0.02257,-0.415105,-0.900421
1630501831786,0.021777,-0.413885,-0.900604
1630501831796,0.022082,-0.413763,-0.899689
1630501831805,0.021533,-0.415532,-0.899201
1630501831815,0.021594,-0.417545,-0.899506
1630501831825,0.022021,-0.41992399999999996,-0.900177
1630501831834,0.022935999999999998,-0.422242,-0.900909
1630501831844,0.023241,-0.423035,-0.902129
1630501831853,0.023424,-0.42492599999999997,-0.902678
1630501831863,0.024766,-0.425902,-0.903593
1630501831873,0.024156,-0.426085,-0.904142
1630501831882,0.023667999999999998,-0.425292,-0.9034099999999999
1630501831892,0.022814,-0.424804,-0.902434
1630501831901,0.022631,-0.42517,-0.901702
1630501831911,0.022814,-0.424743,-0.901702
1630501831921,0.022997,-0.425963,-0.902251
1630501831930,0.022448,-0.42584099999999997,-0.902129
1630501831940,0.022265,-0.42523099999999997,-0.9021899999999999
1630501831949,0.021289,-0.425902,-0.903044
1630501831959,0.022692,-0.42639,-0.9018849999999999
1630501831969,0.022326,-0.425963,-0.901458
1630501831978,0.022143,-0.425109,-0.900848
1630501831988,0.021411,-0.425414,-0.900299
1630501831997,0.021533,-0.425902,-0.900909
1630501832007,0.021655,-0.424133,-0.9009699999999999
1630501832017,0.022021,-0.425292,-0.900543
1630501832026,0.023424,-0.424804,-0.900238
1630501832036,0.022692,-0.42309599999999997,-0.9003599999999999
1630501832045,0.023119,-0.423462,-0.900116
1630501832055,0.023302,-0.425109,-0.899628
1630501832065,0.022997,-0.42675599999999997,-0.899384
1630501832074,0.022875,-0.426695,-0.900482
1630501832084,0.02257,-0.42675599999999997,-0.901336
1630501832093,0.02196,-0.425658,-0.8991399999999999
1630501832103,0.020069,-0.42517,-0.899384
1630501832113,0.019398,-0.42401099999999997,-0.901458
1630501832122,0.020252,-0.421815,-0.902312
1630501832132,0.019459,-0.420961,-0.902678
1630501832141,0.020618,-0.420717,-0.903776
1630501832151,0.020618,-0.421754,-0.905362
1630501832161,0.020252,-0.421754,-0.904874
1630501832170,0.019703,-0.422608,-0.903776
1630501832180,0.020313,-0.422303,-0.904874
1630501832189,0.020984,-0.422669,-0.904081
1630501832199,0.021838,-0.422913,-0.9040199999999999
1630501832209,0.021838,-0.421144,-0.902678
1630501832218,0.022692,-0.42029,-0.900909
1630501832228,0.023302,-0.419436,-0.899262
1630501832237,0.024522,-0.41968,-0.897981
1630501832247,0.024217,-0.418155,-0.898896
1630501832257,0.025498,-0.417606,-0.899079
1630501832266,0.025742,-0.418216,-0.898286
1630501832276,0.025742,-0.418948,-0.898469
1630501832285,0.025559,-0.419375,-0.897493
1630501832295,0.026718,-0.421937,-0.897493
1630501832305,0.025436999999999998,-0.422364,-0.8979199999999999
1630501832314,0.025742,-0.424072,-0.897737
1630501832324,0.025071,-0.421937,-0.898774
1630501832333,0.024888,-0.421388,-0.899811
1630501832343,0.024095,-0.419802,-0.900787
1630501832353,0.022143,-0.418765,-0.902678
1630501832362,0.019154,-0.416447,-0.903349
1630501832372,0.018483,-0.415898,-0.9052399999999999
1630501832381,0.018361,-0.415776,-0.905789
1630501832391,0.017202,-0.415898,-0.9061549999999999
1630501832401,0.016226,-0.414922,-0.907802
1630501832410,0.017202,-0.415532,-0.907314
1630501832420,0.016226,-0.416081,-0.907436
1630501832429,0.017019,-0.41541,-0.905972
1630501832439,0.016592,-0.416081,-0.905057
1630501832449,0.018422,-0.41785,-0.9027999999999999
1630501832458,0.01891,-0.418948,-0.901702
1630501832468,0.020069,-0.41931399999999996,-0.902373
1630501832477,0.021899,-0.42029,-0.9024949999999999
1630501832487,0.022143,-0.420168,-0.902678
1630501832497,0.023058,-0.421632,-0.903593
1630501832506,0.023851,-0.421937,-0.903837
1630501832516,0.022631,-0.42370599999999997,-0.903227
1630501832525,0.021655,-0.42334,-0.904508
1630501832535,0.021716,-0.421937,-0.904264
1630501832545,0.02135,-0.422181,-0.906277
1630501832554,0.02196,-0.421754,-0.906643
1630501832564,0.020739999999999998,-0.420839,-0.9058499999999999
1630501832573,0.018543999999999998,-0.41839899999999997,-0.903227
1630501832583,0.020435,-0.418033,-0.903654
1630501832593,0.019947,-0.417667,-0.901763
1630501832602,0.021411,-0.41846,-0.9015799999999999
1630501832612,0.022203999999999998,-0.418643,-0.902434
1630501832621,0.02257,-0.41907,-0.904081
1630501832631,0.022265,-0.418033,-0.904264
1630501832641,0.021167,-0.416508,-0.9031049999999999
1630501832650,0.019947,-0.41504399999999997,-0.903166
1630501832660,0.020252,-0.414495,-0.902007
1630501832669,0.020252,-0.411933,-0.901763
1630501832679,0.018666,-0.411445,-0.901397
1630501832689,0.019275999999999998,-0.411018,-0.902007
1630501832698,0.019093,-0.41199399999999997,-0.901458
1630501832708,0.018605,-0.412787,-0.902922
1630501832717,0.018422,-0.412726,-0.9046299999999999
1630501832727,0.017934,-0.412665,-0.904752
1630501832737,0.01647,-0.41229899999999997,-0.904691
1630501832746,0.016226,-0.412482,-0.9046299999999999
1630501832756,0.015982,-0.412543,-0.904752
1630501832765,0.015372,-0.41382399999999997,-0.904813
1630501832775,0.016774999999999998,-0.41626399999999997,-0.905179
1630501832785,0.018056,-0.418826,-0.904996
1630501832794,0.019032,-0.41992399999999996,-0.905484
1630501832804,0.018605,-0.420168,-0.9064599999999999
1630501832813,0.019093,-0.419375,-0.9046299999999999
1630501832823,0.019825,-0.419375,-0.904813
1630501832833,0.020923,-0.418521,-0.905667
1630501832842,0.023058,-0.419192,-0.905362
1630501832852,0.023302,-0.41961899999999996,-0.903593
1630501832861,0.02501,-0.41961899999999996,-0.9024949999999999
1630501832871,0.026413,-0.420839,-0.901336
1630501832881,0.02623,-0.421571,-0.901336
1630501832890,0.028121,-0.421571,-0.900604
1630501832900,0.027267,-0.421144,-0.901397
1630501832909,0.027816,-0.420595,-0.903044
1630501832919,0.025559,-0.420046,-0.9015799999999999
1630501832929,0.024278,-0.420412,-0.900299
1630501832938,0.024704999999999998,-0.419863,-0.900543
1630501832948,0.023241,-0.420778,-0.8994449999999999
1630501832957,0.022509,-0.420778,-0.900299
1630501832967,0.022509,-0.421937,-0.9012749999999999
1630501832977,0.022082,-0.42395,-0.901641
1630501832986,0.02257,-0.424499,-0.9027999999999999
1630501832996,0.02196,-0.424133,-0.902068
1630501833005,0.022935999999999998,-0.423889,-0.902373
1630501833015,0.022203999999999998,-0.421449,-0.901824
1630501833025,0.021899,-0.41968,-0.901763
1630501833034,0.022082,-0.41846,-0.9012749999999999
1630501833044,0.021411,-0.418033,-0.9015799999999999
1630501833053,0.020984,-0.415532,-0.900604
1630501833063,0.021289,-0.41321399999999997,-0.899994
1630501833073,0.021411,-0.413275,-0.898896
1630501833082,0.020374,-0.414068,-0.898469
1630501833092,0.0183,-0.41412899999999997,-0.897798
1630501833101,0.018605,-0.415898,-0.898713
1630501833111,0.018178,-0.41687399999999997,-0.899323
1630501833121,0.018178,-0.417667,-0.9015799999999999
1630501833130,0.018971,-0.420168,-0.9027999999999999
1630501833140,0.019154,-0.422852,-0.9046299999999999
1630501833149,0.018849,-0.424377,-0.9043249999999999
1630501833159,0.01891,-0.425414,-0.905301
1630501833169,0.01891,-0.427427,-0.905301
1630501833178,0.018666,-0.42761,-0.904386
1630501833188,0.020007999999999998,-0.426268,-0.903166
1630501833197,0.020191,-0.425109,-0.903532
1630501833207,0.020557,-0.42401099999999997,-0.902678
1630501833217,0.021045,-0.422791,-0.901458
1630501833226,0.02196,-0.424194,-0.9009699999999999
1630501833236,0.022631,-0.424072,-0.899262
1630501833245,0.02318,-0.424804,-0.899994
1630501833255,0.023302,-0.426024,-0.901519
1630501833265,0.024399999999999998,-0.42645099999999997,-0.901336
1630501833274,0.024217,-0.425048,-0.901092
1630501833284,0.025131999999999998,-0.424377,-0.902678
1630501833293,0.024522,-0.42492599999999997,-0.903593
1630501833303,0.024278,-0.42456,-0.9024949999999999
1630501833313,0.023667999999999998,-0.423584,-0.901519
1630501833322,0.023363,-0.424987,-0.901031
1630501833332,0.024278,-0.42401099999999997,-0.900482
1630501833341,0.023302,-0.42553599999999997,-0.8997499999999999
1630501833351,0.021594,-0.424438,-0.899262
1630501833361,0.01952,-0.422669,-0.901214
1630501833370,0.018666,-0.421205,-0.904569
1630501833380,0.017751,-0.419741,-0.904081
1630501833389,0.01586,-0.416081,-0.904447
1630501833399,0.015311,-0.414068,-0.9079849999999999
1630501833409,0.016897,-0.412177,-0.9088999999999999
1630501833418,0.017995,-0.41229899999999997,-0.909022
1630501833428,0.018971,-0.412482,-0.908168
1630501833437,0.020618,-0.415166,-0.904996
1630501833447,0.020862,-0.416508,-0.903654
1630501833457,0.021106,-0.419558,-0.901519
1630501833466,0.021533,-0.421266,-0.899262
1630501833476,0.022814,-0.41992399999999996,-0.899933
1630501833485,0.02379,-0.42029,-0.9006649999999999
1630501833495,0.025559,-0.420473,-0.899872
1630501833505,0.024827,-0.41992399999999996,-0.901702
1630501833514,0.025803,-0.418643,-0.902678
1630501833524,0.025254,-0.418887,-0.903227
1630501833533,0.024583,-0.41626399999999997,-0.9021899999999999
1630501833543,0.023546,-0.413702,-0.901214
1630501833553,0.022387,-0.412787,-0.899628
1630501833562,0.02257,-0.412848,-0.8991399999999999
1630501833572,0.021228,-0.414068,-0.899262
1630501833581,0.020618,-0.41541,-0.901214
1630501833591,0.021167,-0.41687399999999997,-0.903837
1630501833601,0.020739999999999998,-0.417606,-0.905423
1630501833610,0.020191,-0.415166,-0.9064599999999999
1630501833620,0.020923,-0.413885,-0.906948
1630501833629,0.019703,-0.413458,-0.906826
1630501833639,0.020007999999999998,-0.413092,-0.9064599999999999
1630501833649,0.019886,-0.412116,-0.905728
1630501833658,0.021228,-0.413092,-0.906582
1630501833668,0.021899,-0.41358,-0.904752
1630501833677,0.02318,-0.41541,-0.902556
1630501833687,0.02501,-0.417972,-0.901153
1630501833697,0.025071,-0.418521,-0.900299
1630501833706,0.02562,-0.419863,-0.900177
1630501833716,0.025436999999999998,-0.421266,-0.899628
1630501833725,0.02684,-0.42029,-0.900421
1630501833735,0.026900999999999998,-0.421144,-0.900238
1630501833745,0.026047,-0.42273,-0.901519
1630501833754,0.025193,-0.424255,-0.902068
1630501833764,0.024644,-0.422913,-0.9021899999999999
1630501833773,0.024034,-0.422852,-0.904508
1630501833783,0.024704999999999998,-0.420351,-0.9067649999999999
1630501833793,0.024827,-0.418216,-0.908107
1630501833802,0.024644,-0.41663,-0.907192
1630501833812,0.023607,-0.415105,-0.904264
1630501833821,0.022814,-0.41473899999999997,-0.902434
1630501833831,0.021228,-0.415471,-0.902068
1630501833841,0.022082,-0.415166,-0.901702
1630501833850,0.022935999999999998,-0.415105,-0.901641
1630501833860,0.023667999999999998,-0.41473899999999997,-0.902373
1630501833869,0.024278,-0.414556,-0.904142
1630501833879,0.025681,-0.414251,-0.9049349999999999
1630501833889,0.025131999999999998,-0.412726,-0.905606
1630501833898,0.024522,-0.415776,-0.904386
1630501833908,0.024949,-0.417667,-0.902983
1630501833917,0.024949,-0.420046,-0.902434
1630501833927,0.026047,-0.422974,-0.9018849999999999
1630501833937,0.025925,-0.424438,-0.901824
1630501833946,0.026535,-0.423218,-0.901519
1630501833956,0.026595999999999998,-0.422242,-0.902007
1630501833965,0.027816,-0.420534,-0.902373
1630501833975,0.026291,-0.419802,-0.9027999999999999
1630501833985,0.025986,-0.419985,-0.902251
1630501833994,0.025254,-0.4209,-0.901458
1630501834004,0.025498,-0.42022899999999996,-0.903837
1630501834013,0.024461,-0.419497,-0.902739
1630501834023,0.022692,-0.420473,-0.902373
1630501834033,0.021716,-0.420046,-0.901824
1630501834042,0.022753,-0.418826,-0.903288
1630501834052,0.022021,-0.41626399999999997,-0.904996
1630501834061,0.022509,-0.415898,-0.905423
1630501834071,0.023546,-0.417545,-0.903532
1630501834081,0.02318,-0.418582,-0.900848
1630501834090,0.022875,-0.418887,-0.901214
1630501834100,0.02318,-0.419436,-0.900848
1630501834109,0.023058,-0.41961899999999996,-0.900848
1630501834119,0.023667999999999998,-0.421449,-0.9021899999999999
1630501834129,0.024888,-0.421388,-0.901946
1630501834138,0.023607,-0.422364,-0.901153
1630501834148,0.023546,-0.42370599999999997,-0.900787
1630501834157,0.022753,-0.425048,-0.901336
1630501834167,0.023424,-0.424194,-0.900787
1630501834177,0.022935999999999998,-0.42395,-0.900238
1630501834186,0.02318,-0.42431599999999997,-0.900482
1630501834196,0.022692,-0.424499,-0.9006649999999999
1630501834205,0.022509,-0.42273,-0.9009699999999999
1630501834215,0.021594,-0.422974,-0.9009699999999999
1630501834225,0.022448,-0.424194,-0.8997499999999999
1630501834234,0.021289,-0.424255,-0.8985299999999999
1630501834244,0.021411,-0.422486,-0.898652
1630501834253,0.021228,-0.420595,-0.901458
1630501834263,0.02135,-0.421754,-0.903654
1630501834273,0.021716,-0.42022899999999996,-0.9040199999999999
1630501834282,0.023424,-0.420534,-0.903898
1630501834292,0.02379,-0.420534,-0.903532
1630501834301,0.023667999999999998,-0.42029,-0.9034099999999999
1630501834311,0.025254,-0.422242,-0.900848
1630501834321,0.025742,-0.42309599999999997,-0.8997499999999999
1630501834330,0.026291,-0.42401099999999997,-0.899262
1630501834340,0.028243,-0.424865,-0.898164
1630501834349,0.029341,-0.426512,-0.898408
1630501834359,0.029036,-0.42578,-0.898896
1630501834369,0.030012,-0.42706099999999997,-0.898164
1630501834378,0.030560999999999998,-0.42761,-0.898042
1630501834388,0.031476,-0.42883,-0.896151
1630501834397,0.030134,-0.43127,-0.895358
1630501834407,0.029463,-0.432124,-0.895358
1630501834417,0.029707,-0.432856,-0.897554
1630501834426,0.030560999999999998,-0.432124,-0.898774
1630501834436,0.029158,-0.430294,-0.900726
1630501834445,0.029158,-0.42828099999999997,-0.901519
1630501834455,0.029341,-0.427488,-0.901946
1630501834465,0.028853,-0.42736599999999997,-0.901031
1630501834474,0.028304,-0.428525,-0.901031
1630501834484,0.028975,-0.428159,-0.8997499999999999
1630501834493,0.027816,-0.428037,-0.899262
1630501834503,0.02745,-0.427,-0.899018
1630501834513,0.026413,-0.42614599999999997,-0.898469
1630501834522,0.025681,-0.42462099999999997,-0.898713
1630501834532,0.025193,-0.422974,-0.897432
1630501834541,0.02379,-0.422242,-0.897371
1630501834551,0.022203999999999998,-0.424194,-0.8991399999999999
1630501834561,0.022997,-0.42456,-0.9003599999999999
1630501834570,0.022021,-0.423645,-0.9015799999999999
1630501834580,0.022265,-0.423523,-0.901458
1630501834589,0.023119,-0.423584,-0.902129
1630501834599,0.022935999999999998,-0.421571,-0.9012749999999999
1630501834609,0.023058,-0.420656,-0.9021899999999999
1630501834618,0.023424,-0.42151,-0.9015799999999999
1630501834628,0.023972999999999998,-0.420839,-0.901458
1630501834637,0.023424,-0.418948,-0.901702
1630501834647,0.022997,-0.419375,-0.901153
1630501834657,0.024156,-0.418765,-0.899811
1630501834666,0.023119,-0.41846,-0.901519
1630501834676,0.023912,-0.418887,-0.902556
1630501834685,0.025193,-0.419985,-0.9031049999999999
1630501834695,0.026413,-0.422303,-0.903959
1630501834705,0.028182,-0.423767,-0.903837
1630501834714,0.029402,-0.425597,-0.902373
1630501834724,0.029219,-0.426817,-0.901458
1630501834733,0.028364999999999998,-0.427427,-0.8997499999999999
1630501834743,0.029768,-0.427488,-0.898957
1630501834753,0.030317,-0.42706099999999997,-0.899994
1630501834762,0.030744,-0.42492599999999997,-0.8991399999999999
1630501834772,0.031781,-0.423462,-0.897981
1630501834781,0.031415,-0.423828,-0.8982249999999999
1630501834791,0.03172,-0.424682,-0.897066
1630501834801,0.03111,-0.426207,-0.895602
1630501834810,0.0305,-0.425414,-0.896578
1630501834820,0.028853,-0.42645099999999997,-0.897188
1630501834829,0.028791999999999998,-0.427244,-0.898408
1630501834839,0.02745,-0.426024,-0.898896
1630501834849,0.025254,-0.424499,-0.898286
1630501834858,0.024217,-0.422425,-0.899262
1630501834868,0.023972999999999998,-0.422181,-0.901214
1630501834877,0.023058,-0.420168,-0.8988349999999999
1630501834887,0.02135,-0.418338,-0.899323
1630501834897,0.021533,-0.418216,-0.900421
1630501834906,0.020984,-0.419131,-0.899994
1630501834916,0.019337,-0.420778,-0.899933
1630501834925,0.019337,-0.420595,-0.9009699999999999
1630501834935,0.019398,-0.420778,-0.902373
1630501834945,0.019032,-0.420412,-0.902678
1630501834954,0.0183,-0.421388,-0.902312
1630501834964,0.019215,-0.423584,-0.901946
1630501834973,0.018849,-0.42553599999999997,-0.902556
1630501834983,0.018483,-0.425902,-0.902556
1630501834993,0.018971,-0.424499,-0.901458
1630501835002,0.019886,-0.424804,-0.901519
1630501835012,0.020313,-0.425719,-0.901214
1630501835021,0.020007999999999998,-0.425048,-0.9006649999999999
1630501835031,0.019886,-0.42456,-0.900421
1630501835041,0.020069,-0.424804,-0.899567
1630501835050,0.020374,-0.426939,-0.9003599999999999
1630501835060,0.020496,-0.427305,-0.901397
1630501835069,0.019581,-0.428464,-0.901946
1630501835079,0.019581,-0.428708,-0.901397
1630501835089,0.017934,-0.428098,-0.9027999999999999
1630501835098,0.017934,-0.426878,-0.9031049999999999
1630501835108,0.017202,-0.425475,-0.904264
1630501835117,0.016653,-0.424438,-0.903898
1630501835127,0.016897,-0.423462,-0.903959
1630501835137,0.015799,-0.422791,-0.903837
1630501835146,0.01647,-0.423584,-0.902312
1630501835156,0.015555,-0.423462,-0.900787
1630501835165,0.01647,-0.423645,-0.899872
1630501835175,0.016897,-0.421815,-0.901641
1630501835185,0.016774999999999998,-0.421937,-0.901031
1630501835194,0.017751,-0.419741,-0.901214
1630501835204,0.01647,-0.418521,-0.899506
1630501835213,0.016958,-0.417362,-0.899933
1630501835223,0.017019,-0.418948,-0.899201
1630501835233,0.016592,-0.419192,-0.899262
1630501835242,0.016774999999999998,-0.42029,-0.900177
1630501835252,0.017079999999999998,-0.421388,-0.901092
1630501835261,0.016592,-0.421693,-0.9003599999999999
1630501835271,0.016287,-0.421022,-0.900909
1630501835281,0.015127999999999999,-0.41931399999999996,-0.902861
1630501835290,0.014884,-0.418948,-0.901031
1630501835300,0.012871,-0.41778899999999997,-0.9009699999999999
1630501835309,0.011773,-0.41626399999999997,-0.901946
1630501835319,0.011529,-0.416081,-0.9024949999999999
1630501835329,0.011895,-0.415166,-0.904447
1630501835338,0.012139,-0.415898,-0.904691
1630501835348,0.012749,-0.41534899999999997,-0.903593
1630501835357,0.013176,-0.415837,-0.904081
1630501835367,0.013725,-0.416935,-0.902434
1630501835377,0.013297999999999999,-0.417606,-0.902129
1630501835386,0.013663999999999999,-0.418033,-0.899567
1630501835396,0.015067,-0.418521,-0.899689
1630501835405,0.014884,-0.419802,-0.900604
1630501835415,0.015311,-0.420595,-0.900116
1630501835425,0.015006,-0.421083,-0.9003599999999999
1630501835434,0.015921,-0.422791,-0.900421
1630501835444,0.016409,-0.42334,-0.899872
1630501835453,0.016347999999999998,-0.42334,-0.899018
1630501835463,0.015799,-0.422242,-0.900604
1630501835473,0.015677,-0.42456,-0.900604
1630501835482,0.015127999999999999,-0.424682,-0.901519
1630501835492,0.015067,-0.42639,-0.902556
1630501835501,0.014029999999999999,-0.426634,-0.901946
1630501835511,0.013847,-0.428098,-0.903349
1630501835521,0.014518,-0.428342,-0.9012749999999999
1630501835530,0.013542,-0.425475,-0.902556
1630501835540,0.013908,-0.423462,-0.903288
1630501835549,0.014395999999999999,-0.421449,-0.9018849999999999
1630501835559,0.014457,-0.420473,-0.902068
1630501835569,0.014213,-0.421205,-0.900787
1630501835578,0.015311,-0.421693,-0.900543
1630501835588,0.015921,-0.423157,-0.9000549999999999
1630501835597,0.016347999999999998,-0.424499,-0.8973099999999999
1630501835607,0.017751,-0.424499,-0.896578
1630501835617,0.017385,-0.424072,-0.897798
1630501835626,0.017811999999999998,-0.424072,-0.897066
1630501835636,0.017873,-0.42334,-0.897066
1630501835645,0.017629,-0.424865,-0.897371
1630501835655,0.017446,-0.425475,-0.898347
1630501835665,0.017506999999999998,-0.42797599999999997,-0.897249
1630501835674,0.017079999999999998,-0.431209,-0.897676
1630501835684,0.017079999999999998,-0.433527,-0.897371
1630501835693,0.016531,-0.435296,-0.898164
1630501835703,0.017506999999999998,-0.436821,-0.898469
1630501835713,0.016897,-0.43633299999999997,-0.898896
1630501835722,0.015189,-0.43541799999999997,-0.899018
1630501835732,0.015493999999999999,-0.434137,-0.899201
1630501835741,0.014945,-0.431148,-0.897859
1630501835751,0.01464,-0.43005,-0.8991399999999999
1630501835761,0.013359,-0.429745,-0.898591
1630501835770,0.012749,-0.43041599999999997,-0.896273
1630501835780,0.012261,-0.431514,-0.895724
1630501835789,0.014274,-0.432734,-0.897859
1630501835799,0.01525,-0.433954,-0.898042
1630501835809,0.016104,-0.435174,-0.898103
1630501835818,0.016347999999999998,-0.434442,-0.898103
1630501835828,0.016836,-0.433039,-0.897371
1630501835837,0.015982,-0.432124,-0.897127
1630501835847,0.016347999999999998,-0.431697,-0.896212
1630501835857,0.016226,-0.429135,-0.8954799999999999
1630501835866,0.016409,-0.429318,-0.896273
1630501835876,0.015799,-0.430538,-0.896761
1630501835885,0.016226,-0.430233,-0.895724
1630501835895,0.01464,-0.432612,-0.895968
1630501835905,0.017202,-0.434686,-0.896578
1630501835914,0.019337,-0.437675,-0.8973099999999999
1630501835924,0.019093,-0.438895,-0.898042
1630501835933,0.019947,-0.436882,-0.899628
1630501835943,0.020557,-0.434259,-0.898286
1630501835953,0.019093,-0.43188,-0.897493
1630501835962,0.018727,-0.43005,-0.897432
1630501835972,0.01891,-0.427732,-0.897981
1630501835981,0.020618,-0.426512,-0.897798
1630501835991,0.020618,-0.427854,-0.898774
1630501836001,0.021899,-0.42950099999999997,-0.898286
1630501836010,0.022082,-0.431392,-0.897127
1630501836020,0.02196,-0.433466,-0.896456
1630501836029,0.022082,-0.435052,-0.896456
1630501836039,0.022509,-0.435967,-0.896212
1630501836049,0.024583,-0.43724799999999997,-0.8963949999999999
1630501836058,0.025254,-0.43554,-0.896761
1630501836068,0.025803,-0.433588,-0.898469
1630501836077,0.02501,-0.433832,-0.897981
1630501836087,0.023667999999999998,-0.43224599999999996,-0.896212
1630501836097,0.022997,-0.432856,-0.895541
1630501836106,0.021838,-0.432429,-0.8945649999999999
1630501836116,0.020679,-0.431392,-0.893772
1630501836125,0.019886,-0.43011099999999997,-0.893345
1630501836135,0.018666,-0.428769,-0.893894
1630501836145,0.018117,-0.42858599999999997,-0.8948699999999999
1630501836154,0.018239,-0.42761,-0.8966999999999999
1630501836164,0.01891,-0.427305,-0.8973099999999999
1630501836173,0.017019,-0.426878,-0.897188
1630501836183,0.016774999999999998,-0.42645099999999997,-0.8963949999999999
1630501836193,0.016531,-0.425353,-0.897249
1630501836202,0.01586,-0.426085,-0.896883
1630501836212,0.016714,-0.42614599999999997,-0.898286
1630501836221,0.017873,-0.426878,-0.899323
1630501836231,0.01769,-0.426939,-0.8991399999999999
1630501836241,0.018178,-0.426573,-0.899262
1630501836250,0.018239,-0.42614599999999997,-0.897859
1630501836260,0.0183,-0.426878,-0.896029
1630501836269,0.019032,-0.427854,-0.8960899999999999
1630501836279,0.018117,-0.430538,-0.896212
1630501836289,0.018543999999999998,-0.432734,-0.8960899999999999
1630501836298,0.0183,-0.43371,-0.896212
1630501836308,0.019337,-0.433893,-0.895846
1630501836317,0.019275999999999998,-0.4331,-0.895724
1630501836327,0.019275999999999998,-0.433771,-0.896456
1630501836337,0.018483,-0.433588,-0.895846
1630501836346,0.017263,-0.433588,-0.895541
1630501836356,0.014823,-0.434015,-0.896029
1630501836365,0.015189,-0.435906,-0.896334
1630501836375,0.014945,-0.435357,-0.8970049999999999
1630501836385,0.013603,-0.437309,-0.896456
1630501836394,0.013542,-0.437492,-0.896761
1630501836404,0.01281,-0.43877299999999997,-0.896151
1630501836413,0.011346,-0.43816299999999997,-0.895846
1630501836423,0.009394,-0.436882,-0.8954799999999999
1630501836433,0.008662,-0.435357,-0.8939549999999999
1630501836442,0.0077469999999999995,-0.434686,-0.893223
1630501836452,0.006954,-0.435479,-0.894138
1630501836461,0.007503,-0.437431,-0.895968
1630501836471,0.007442,-0.438285,-0.897371
1630501836481,0.007869,-0.438712,-0.8970049999999999
1630501836490,0.0073809999999999995,-0.438285,-0.896029
1630501836500,0.007442,-0.437675,-0.8957849999999999
1630501836509,0.0060999999999999995,-0.437004,-0.8951749999999999
1630501836519,0.0070149999999999995,-0.43572299999999997,-0.893833
1630501836529,0.006527,-0.436089,-0.891881
1630501836538,0.007076,-0.437065,-0.891088
1630501836548,0.007503,-0.437309,-0.890417
1630501836557,0.0077469999999999995,-0.438041,-0.890905
1630501836567,0.008418,-0.439932,-0.890661
1630501836577,0.008418,-0.443714,-0.890905
1630501836586,0.009882,-0.444629,-0.8960899999999999
1630501836596,0.008784,-0.445178,-0.894504
1630501836605,0.006771,-0.444324,-0.892247
1630501836615,0.006954,-0.443897,-0.892796
1630501836625,0.007869,-0.442616,-0.8948699999999999
1630501836634,0.008173999999999999,-0.441762,-0.896212
1630501836644,0.009699,-0.441152,-0.8976149999999999
1630501836653,0.010369999999999999,-0.44243299999999997,-0.896456
1630501836663,0.010492,-0.444873,-0.894687
1630501836673,0.009516,-0.446886,-0.894016
1630501836682,0.010919,-0.448716,-0.894138
1630501836692,0.012017,-0.449997,-0.895053
1630501836701,0.013969,-0.449753,-0.896456
1630501836711,0.013786,-0.449692,-0.895541
1630501836721,0.014152,-0.447618,-0.895053
1630501836730,0.013663999999999999,-0.445666,-0.893833
1630501836740,0.013297999999999999,-0.44469,-0.892064
1630501836749,0.013359,-0.44286,-0.89121
1630501836759,0.014761999999999999,-0.441945,-0.890661
1630501836769,0.015127999999999999,-0.442494,-0.890356
1630501836778,0.015982,-0.44347,-0.890234
1630501836788,0.016958,-0.443226,-0.890478
1630501836797,0.016226,-0.442494,-0.892308
1630501836807,0.017506999999999998,-0.443592,-0.892796
1630501836817,0.017506999999999998,-0.442799,-0.892247
1630501836826,0.016958,-0.441274,-0.892552
1630501836836,0.016714,-0.43877299999999997,-0.893711
1630501836845,0.016897,-0.438956,-0.894321
1630501836855,0.016653,-0.43755299999999997,-0.8945649999999999
1630501836865,0.018422,-0.436699,-0.893528
1630501836874,0.017995,-0.435601,-0.892491
1630501836884,0.017202,-0.435479,-0.893467
1630501836893,0.017629,-0.43572299999999997,-0.892552
1630501836903,0.017751,-0.434015,-0.89182
1630501836913,0.017141,-0.433344,-0.891881
1630501836922,0.017019,-0.433039,-0.893772
1630501836932,0.018422,-0.433039,-0.89304
1630501836941,0.016897,-0.4331,-0.893589
1630501836951,0.016836,-0.432673,-0.894138
1630501836961,0.017506999999999998,-0.433527,-0.894687
1630501836970,0.017995,-0.43432,-0.8945649999999999
1630501836980,0.018543999999999998,-0.434808,-0.8954799999999999
1630501836989,0.019032,-0.433649,-0.895053
1630501836999,0.018178,-0.434686,-0.895846
1630501837009,0.018239,-0.43432,-0.894748
1630501837018,0.018605,-0.433832,-0.895114
1630501837028,0.018605,-0.432124,-0.896334
1630501837037,0.018361,-0.432307,-0.8957849999999999
1630501837047,0.017324,-0.433832,-0.8966999999999999
1630501837057,0.018666,-0.435235,-0.896883
1630501837066,0.019398,-0.43676,-0.896822
1630501837076,0.019459,-0.439017,-0.895541
1630501837085,0.019459,-0.441091,-0.896822
1630501837095,0.019154,-0.438529,-0.896761
1630501837105,0.019825,-0.43737,-0.896456
1630501837114,0.019154,-0.43663799999999997,-0.897371
1630501837124,0.018849,-0.436089,-0.897249
1630501837133,0.018056,-0.435784,-0.896212
1630501837143,0.016287,-0.436394,-0.897066
1630501837153,0.016897,-0.43615,-0.897188
1630501837162,0.016104,-0.435357,-0.897676
1630501837172,0.018117,-0.434198,-0.8985299999999999
1630501837181,0.018971,-0.431514,-0.899018
1630501837191,0.018788,-0.429562,-0.8991399999999999
1630501837201,0.019642,-0.429989,-0.898591
1630501837210,0.019215,-0.432368,-0.898042
1630501837220,0.018849,-0.434503,-0.8979199999999999
1630501837229,0.018239,-0.433893,-0.900604
1630501837239,0.01952,-0.433954,-0.901397
1630501837249,0.018239,-0.43066,-0.900116
1630501837258,0.016714,-0.425475,-0.8988349999999999
1630501837268,0.015311,-0.421144,-0.9009699999999999
1630501837277,0.013359,-0.417118,-0.902739
1630501837287,0.012199999999999999,-0.413031,-0.904691
1630501837297,0.011101999999999999,-0.41107899999999997,-0.904508
1630501837306,0.009516,-0.410286,-0.9015799999999999
1630501837316,0.008113,-0.411262,-0.900848
1630501837325,0.006771,-0.415227,-0.900543
1630501837335,0.006344,-0.417972,-0.899628
1630501837345,0.006344,-0.420046,-0.900787
1630501837354,0.006405,-0.421144,-0.9018849999999999
1630501837364,0.006039,-0.422425,-0.903532
1630501837373,0.003843,-0.420351,-0.904569
1630501837383,0.0017079999999999999,-0.41846,-0.903532
1630501837393,-0.000732,-0.417301,-0.903593
1630501837402,-0.003111,-0.415105,-0.904569
1630501837412,-0.004575,-0.41290899999999997,-0.906582
1630501837421,-0.005063,-0.410957,-0.908351
1630501837431,-0.0057339999999999995,-0.408456,-0.910669
1630501837441,-0.00732,-0.406504,-0.913292
1630501837450,-0.007442,-0.405406,-0.915
1630501837460,-0.008784,-0.404918,-0.915488
1630501837469,-0.01159,-0.403698,-0.9137799999999999
1630501837479,-0.015372,-0.40180699999999997,-0.910547
1630501837489,-0.018422,-0.40077,-0.906582
1630501837498,-0.019459,-0.40241699999999997,-0.903593
1630501837508,-0.017995,-0.401014,-0.905911
1630501837517,-0.019764,-0.399184,-0.9101199999999999
1630501837527,-0.020007999999999998,-0.396317,-0.914207
1630501837537,-0.023119,-0.392962,-0.916891
1630501837546,-0.024644,-0.389729,-0.9179889999999999
1630501837556,-0.026718,-0.388692,-0.918477
1630501837565,-0.02745,-0.388387,-0.915976
1630501837575,-0.02867,-0.387106,-0.913109
1630501837585,-0.026108,-0.38326299999999996,-0.911706
1630501837594,-0.025863999999999998,-0.38064,-0.912804
1630501837604,-0.026291,-0.381677,-0.9119499999999999
1630501837613,-0.027145,-0.382714,-0.9113399999999999
1630501837623,-0.028364999999999998,-0.385947,-0.910242
1630501837633,-0.028426,-0.389302,-0.910303
1630501837642,-0.028182,-0.391376,-0.909266
1630501837652,-0.027572,-0.394304,-0.909144
1630501837661,-0.027389,-0.395707,-0.910486
1630501837671,-0.026168999999999998,-0.394426,-0.908839
1630501837681,-0.025681,-0.389607,-0.909632
1630501837690,-0.024766,-0.386679,-0.914268
1630501837700,-0.026168999999999998,-0.38826499999999997,-0.91439
1630501837709,-0.027023,-0.391437,-0.915915
1630501837719,-0.030805,-0.39344999999999997,-0.915183
1630501837729,-0.033489,-0.397659,-0.914756
1630501837738,-0.035441,-0.40302699999999997,-0.91439
1630501837748,-0.03782,-0.40516199999999997,-0.916281
1630501837757,-0.038003,-0.406138,-0.917074
1630501837767,-0.038735,-0.404918,-0.91622
1630501837777,-0.037332,-0.401929,-0.915061
1630501837786,-0.036722,-0.400099,-0.91439
1630501837796,-0.037149,-0.39936699999999997,-0.913719
1630501837805,-0.039101,-0.399489,-0.911889
1630501837815,-0.043493,-0.396622,-0.913292
1630501837825,-0.047030999999999996,-0.397537,-0.915488
1630501837834,-0.048739,-0.398025,-0.917379
1630501837844,-0.050142,-0.398452,-0.919026
1630501837853,-0.050935,-0.399123,-0.920368
1630501837863,-0.051606,-0.398086,-0.920795
1630501837873,-0.051606,-0.398208,-0.921405
1630501837882,-0.052582,-0.396317,-0.922991
1630501837892,-0.054778,-0.397537,-0.920673
1630501837901,-0.05734,-0.399855,-0.91866
1630501837911,-0.058804,-0.40058699999999997,-0.921893
1630501837921,-0.06039,-0.40138,-0.922503
1630501837930,-0.059719,-0.401563,-0.924333
1630501837940,-0.05734,-0.401563,-0.926102
1630501837949,-0.056364,-0.402234,-0.927871
1630501837959,-0.056608,-0.400465,-0.9283589999999999
1630501837969,-0.056303,-0.397354,-0.929457
1630501837978,-0.057583999999999996,-0.395524,-0.930128
1630501837988,-0.054595,-0.395829,-0.9311039999999999
1630501837997,-0.052948,-0.39131499999999997,-0.929762
1630501838007,-0.052094,-0.383629,-0.927078
1630501838017,-0.049958999999999996,-0.37716299999999997,-0.928725
1630501838026,-0.048922,-0.366732,-0.9301889999999999
1630501838036,-0.051057,-0.353861,-0.928786
1630501838045,-0.052337999999999996,-0.343369,-0.9292739999999999
1630501838055,-0.056181,-0.332877,-0.930738
1630501838065,-0.060329,-0.322507,-0.93086
1630501838074,-0.064538,-0.313418,-0.928176
1630501838084,-0.071065,-0.305732,-0.92537
1630501838093,-0.076616,-0.297802,-0.9250039999999999
1630501838103,-0.081862,-0.290787,-0.925187
1630501838113,-0.085644,-0.28407699999999997,-0.928725
1630501838122,-0.089182,-0.28133199999999997,-0.930982
1630501838132,-0.092232,-0.2806,-0.934093
1630501838141,-0.095404,-0.278953,-0.938668
1630501838151,-0.097173,-0.278648,-0.94001
1630501838161,-0.097722,-0.278221,-0.940925
1630501838170,-0.098271,-0.275354,-0.940376
1630501838180,-0.099308,-0.273158,-0.940071
1630501838189,-0.099735,-0.270596,-0.94184
1630501838199,-0.10052799999999999,-0.268278,-0.943792
1630501838209,-0.102236,-0.26535,-0.94306
1630501838218,-0.105408,-0.261934,-0.943365
1630501838228,-0.10760399999999999,-0.259494,-0.947269
1630501838237,-0.108946,-0.260226,-0.94916
1630501838247,-0.107726,-0.262361,-0.949404
1630501838257,-0.10577399999999999,-0.264923,-0.9505629999999999
1630501838266,-0.105042,-0.267058,-0.950807
1630501838276,-0.104005,-0.268522,-0.9514779999999999
1630501838285,-0.102358,-0.270596,-0.95099
1630501838295,-0.10187,-0.269864,-0.951234
1630501838305,-0.103273,-0.271328,-0.949465
1630501838314,-0.10498099999999999,-0.271023,-0.9496479999999999
1630501838324,-0.105591,-0.26870499999999997,-0.95099
1630501838333,-0.10638399999999999,-0.266814,-0.953247
1630501838343,-0.106628,-0.265289,-0.954284
1630501838353,-0.108397,-0.265838,-0.955504
1630501838362,-0.10614,-0.266326,-0.956907
1630501838372,-0.105652,-0.266326,-0.959652
1630501838381,-0.104005,-0.267058,-0.961421
1630501838391,-0.10376099999999999,-0.268827,-0.963312
1630501838401,-0.101931,-0.269376,-0.960872
1630501838410,-0.100894,-0.26992499999999997,-0.960262
1630501838420,-0.098332,-0.271084,-0.958615
1630501838429,-0.096197,-0.273036,-0.9566629999999999
1630501838439,-0.093574,-0.274378,-0.953491
1630501838449,-0.092232,-0.277245,-0.950014
1630501838458,-0.092476,-0.279258,-0.948794
1630501838468,-0.09211,-0.278099,-0.9490379999999999
1630501838477,-0.092903,-0.273646,-0.947757
1630501838487,-0.092537,-0.267729,-0.949709
1630501838497,-0.09272,-0.262971,-0.953369
1630501838506,-0.090646,-0.26169,-0.9575779999999999
1630501838516,-0.088572,-0.26108,-0.957395
1630501838525,-0.088023,-0.262666,-0.953674
1630501838535,-0.088572,-0.260897,-0.953674
1630501838545,-0.08527799999999999,-0.255407,-0.957639
1630501838554,-0.08588799999999999,-0.252174,-0.957212
1630501838564,-0.087474,-0.25071,-0.9542229999999999
1630501838573,-0.085705,-0.248636,-0.9526979999999999
1630501838583,-0.084119,-0.248392,-0.9516
1630501838593,-0.082289,-0.250039,-0.950807
1630501838602,-0.080093,-0.250405,-0.9487329999999999
1630501838612,-0.08174,-0.251747,-0.947696
1630501838621,-0.083753,-0.2501,-0.9455
1630501838631,-0.08479,-0.246562,-0.947452
1630501838641,-0.084729,-0.24418299999999998,-0.952332
1630501838650,-0.083387,-0.243817,-0.957517
1630501838660,-0.080093,-0.24766,-0.9624579999999999
1630501838669,-0.07679899999999999,-0.252296,-0.963922
1630501838679,-0.07356599999999999,-0.258152,-0.963495
1630501838689,-0.073505,-0.265045,-0.9587979999999999
1630501838698,-0.073444,-0.270352,-0.95465
1630501838708,-0.073322,-0.274561,-0.950807
1630501838717,-0.0732,-0.278831,-0.950807
1630501838727,-0.072346,-0.282064,-0.953186
1630501838737,-0.071126,-0.284748,-0.955626
1630501838746,-0.068503,-0.288652,-0.956114
1630501838756,-0.065514,-0.292495,-0.9548329999999999
1630501838765,-0.062891,-0.295667,-0.952759
1630501838775,-0.061854,-0.300242,-0.946842
1630501838785,-0.065453,-0.297985,-0.933117
1630501838794,-0.067954,-0.296033,-0.9268339999999999
1630501838804,-0.06893,-0.299205,-0.922991
1630501838813,-0.06954,-0.303414,-0.918233
1630501838823,-0.067527,-0.307318,-0.921283
1630501838833,-0.064599,-0.312076,-0.929091
1630501838842,-0.066185,-0.317627,-0.93574
1630501838852,-0.068442,-0.323117,-0.9394
1630501838861,-0.0732,-0.32574,-0.941291
1630501838871,-0.077348,-0.326838,-0.9450729999999999
1630501838881,-0.078141,-0.32939999999999997,-0.948489
1630501838890,-0.08064199999999999,-0.329034,-0.953491
1630501838900,-0.07869,-0.323483,-0.958005
1630501838909,-0.07808,-0.312625,-0.964044
1630501838919,-0.08003199999999999,-0.30073,-0.967765
1630501838929,-0.084851,-0.291336,-0.969046
1630501838938,-0.090646,-0.285785,-0.9678869999999999
1630501838948,-0.092232,-0.283406,-0.964044
1630501838957,-0.094428,-0.285236,-0.957151
1630501838967,-0.093391,-0.288042,-0.95404
1630501838977,-0.091073,-0.290299,-0.951661
1630501838986,-0.089609,-0.29097,-0.9481229999999999
1630501838996,-0.08558299999999999,-0.289506,-0.94855
1630501839005,-0.080947,-0.289872,-0.951356
1630501839015,-0.079788,-0.286883,-0.95282
1630501839025,-0.07991,-0.28609,-0.954589
1630501839034,-0.07808,-0.286334,-0.9554429999999999
1630501839044,-0.076738,-0.286151,-0.954101
1630501839053,-0.07649399999999999,-0.284748,-0.953491
1630501839063,-0.07618899999999999,-0.286578,-0.949404
1630501839073,-0.076006,-0.289872,-0.9447679999999999
1630501839082,-0.078019,-0.291519,-0.94184
1630501839092,-0.079971,-0.291214,-0.939095
1630501839101,-0.082106,-0.290604,-0.9378139999999999
1630501839111,-0.085522,-0.289811,-0.937143
1630501839121,-0.088145,-0.28792,-0.938058
1630501839130,-0.09028,-0.286456,-0.939461
1630501839140,-0.09272,-0.285114,-0.9414129999999999
1630501839149,-0.096136,-0.283406,-0.945012
1630501839159,-0.098454,-0.284016,-0.94855
1630501839169,-0.10187,-0.284565,-0.948916
1630501839178,-0.10406599999999999,-0.285358,-0.949221
1630501839188,-0.105469,-0.28468699999999997,-0.952027
1630501839197,-0.107665,-0.28304,-0.9520879999999999
1630501839207,-0.110349,-0.280295,-0.9533079999999999
1630501839217,-0.112667,-0.278099,-0.953369
1630501839226,-0.114314,-0.273524,-0.95343
1630501839236,-0.116815,-0.27205999999999997,-0.950441
1630501839245,-0.11901099999999999,-0.26931499999999997,-0.949526
1630501839255,-0.119987,-0.269132,-0.95038
1630501839265,-0.122671,-0.269681,-0.950685
1630501839274,-0.125477,-0.269803,-0.952515
1630501839284,-0.126514,-0.270474,-0.949892
1630501839293,-0.12749,-0.269681,-0.95038
1630501839303,-0.129198,-0.270596,-0.950014
1630501839313,-0.131028,-0.272609,-0.951234
1630501839322,-0.133041,-0.276513,-0.95587
1630501839332,-0.135542,-0.281454,-0.9600179999999999
1630501839341,-0.137555,-0.286944,-0.96136
1630501839351,-0.143045,-0.289933,-0.95953
1630501839361,-0.146095,-0.288286,-0.958737
1630501839370,-0.149694,-0.279258,-0.963556
1630501839380,-0.152622,-0.268827,-0.965081
1630501839389,-0.156099,-0.255895,-0.963739
1630501839399,-0.158478,-0.243695,-0.9609329999999999
1630501839409,-0.161467,-0.23649699999999999,-0.956541
1630501839418,-0.16165,-0.229116,-0.954955
1630501839428,-0.16043,-0.225517,-0.957517
1630501839437,-0.155428,-0.22106399999999998,-0.959225
1630501839447,-0.150426,-0.218502,-0.9600179999999999
1630501839457,-0.14249599999999998,-0.21770899999999999,-0.9624579999999999
1630501839466,-0.136579,-0.219722,-0.96258
1630501839476,-0.13078399999999998,-0.22228399999999998,-0.964288
1630501839485,-0.12864899999999999,-0.225761,-0.963983
1630501839495,-0.126636,-0.230763,-0.962336
1630501839505,-0.125294,-0.237351,-0.959957
1630501839514,-0.124928,-0.245586,-0.954772
1630501839524,-0.12261,-0.259799,-0.951234
1630501839533,-0.12071899999999999,-0.275415,-0.951722
1630501839543,-0.118584,-0.291214,-0.950014
1630501839553,-0.116876,-0.30256,-0.947757
1630501839562,-0.11577799999999999,-0.312198,-0.946476
1630501839572,-0.112606,-0.31964,-0.946415
1630501839581,-0.10919,-0.325252,-0.945317
1630501839591,-0.105408,-0.328424,-0.940376
1630501839601,-0.102175,-0.327326,-0.938485
1630501839610,-0.098332,-0.323788,-0.9350689999999999
1630501839620,-0.096746,-0.316956,-0.9341539999999999
1630501839629,-0.096014,-0.309392,-0.9329339999999999
1630501839639,-0.099186,-0.302926,-0.933422
1630501839649,-0.09991799999999999,-0.30195,-0.933788
1630501839658,-0.098759,-0.30378,-0.9333
1630501839668,-0.096502,-0.306647,-0.931775
1630501839677,-0.093147,-0.308843,-0.93147
1630501839687,-0.089182,-0.306403,-0.9347639999999999
1630501839697,-0.086986,-0.302804,-0.939339
1630501839706,-0.085949,-0.297802,-0.943182
1630501839716,-0.08295999999999999,-0.292922,-0.945561
1630501839725,-0.07991,-0.28792,-0.949587
1630501839735,-0.078019,-0.282735,-0.950807
1630501839745,-0.078812,-0.27938,-0.9505629999999999
1630501839754,-0.076555,-0.276635,-0.950502
1630501839764,-0.074237,-0.270718,-0.94977
1630501839773,-0.072651,-0.264618,-0.954101
1630501839783,-0.072529,-0.265228,-0.955931
1630501839793,-0.072407,-0.265472,-0.954894
1630501839802,-0.076921,-0.269498,-0.94855
1630501839812,-0.081923,-0.272487,-0.946476
1630501839821,-0.088328,-0.272487,-0.945805
1630501839831,-0.08912099999999999,-0.270291,-0.9484279999999999
1630501839841,-0.091012,-0.267607,-0.954406
1630501839850,-0.093513,-0.262727,-0.963373
1630501839860,-0.09204899999999999,-0.254858,-0.97234
1630501839869,-0.092537,-0.244427,-0.97783
1630501839879,-0.09211,-0.235399,-0.9852719999999999
1630501839889,-0.083936,-0.228933,-0.9882
1630501839898,-0.081191,-0.220515,-0.992348
1630501839908,-0.079666,-0.21716,-0.99125
1630501839917,-0.081191,-0.21899,-0.985821
1630501839927,-0.0854,-0.22021,-0.9816119999999999
1630501839937,-0.086925,-0.222406,-0.979599
1630501839946,-0.088999,-0.225212,-0.978196
1630501839956,-0.089792,-0.22082,-0.9819169999999999
1630501839965,-0.086132,-0.230153,-0.972218
1630501839975,-0.09028,-0.234911,-0.965691
1630501839985,-0.091927,-0.234179,-0.957944
1630501839994,-0.096075,-0.227408,-0.954284
1630501840004,-0.097966,-0.21838,-0.955199
1630501840013,-0.099674,-0.209291,-0.9520879999999999
1630501840023,-0.10437099999999999,-0.199653,-0.953674
1630501840033,-0.10607899999999999,-0.192638,-0.9584929999999999
1630501840042,-0.108885,-0.186599,-0.964166
1630501840052,-0.111447,-0.180743,-0.969473
1630501840061,-0.11345999999999999,-0.173667,-0.976915
1630501840071,-0.114802,-0.167323,-0.984296
1630501840081,-0.116571,-0.160125,-0.9897859999999999
1630501840090,-0.118218,-0.152012,-0.991494
1630501840100,-0.121573,-0.144509,-0.989908
1630501840109,-0.12425699999999999,-0.13541999999999998,-0.989298
1630501840119,-0.125538,-0.129015,-0.987834
1630501840129,-0.126209,-0.120658,-0.986919
1630501840138,-0.129198,-0.115046,-0.981856
1630501840148,-0.131272,-0.109251,-0.9749019999999999
1630501840157,-0.132431,-0.106445,-0.967826
1630501840167,-0.130967,-0.106201,-0.964471
1630501840177,-0.13115,-0.10729899999999999,-0.963983
1630501840186,-0.12956399999999998,-0.106811,-0.966728
1630501840196,-0.126758,-0.10797,-0.970388
1630501840205,-0.123586,-0.108702,-0.970388
1630501840215,-0.122,-0.111203,-0.9700219999999999
1630501840225,-0.121146,-0.112362,-0.9681919999999999
1630501840234,-0.122915,-0.115107,-0.964227
1630501840244,-0.12627,-0.119438,-0.954955
1630501840253,-0.131089,-0.113948,-0.948184
1630501840263,-0.132736,-0.10174799999999999,-0.950685
1630501840273,-0.133529,-0.087474,-0.957151
1630501840282,-0.136152,-0.075579,-0.964105
1630501840292,-0.137677,-0.06527,-0.97234
1630501840301,-0.13908,-0.057462,-0.977586
1630501840311,-0.14158099999999998,-0.056119999999999996,-0.975451
1630501840321,-0.145302,-0.058498999999999995,-0.974109
1630501840330,-0.149755,-0.058498999999999995,-0.978318
1630501840340,-0.151646,-0.06039,-0.985638
1630501840349,-0.149694,-0.062280999999999996,-0.998082
1630501840359,-0.146339,-0.062159,-1.008269
1630501840369,-0.143716,-0.063501,-1.018212
1630501840378,-0.141764,-0.06539199999999999,-1.022482
1630501840388,-0.14152,-0.069967,-1.021323
1630501840397,-0.141459,-0.075945,-1.012722
1630501840407,-0.14097099999999999,-0.085766,-0.998509
1630501840417,-0.138958,-0.093757,-0.986065
1630501840426,-0.13541999999999998,-0.10022299999999999,-0.97539
1630501840436,-0.130418,-0.10577399999999999,-0.968924
1630501840445,-0.127856,-0.106811,-0.968619
1630501840455,-0.124745,-0.107238,-0.965691
1630501840465,-0.124074,-0.106262,-0.9609329999999999
1630501840474,-0.125111,-0.108641,-0.955565
1630501840484,-0.127368,-0.10858,-0.954955
1630501840493,-0.127246,-0.111569,-0.9530029999999999
1630501840503,-0.126514,-0.114314,-0.953186
1630501840513,-0.123708,-0.116754,-0.9597129999999999
1630501840522,-0.11779099999999999,-0.121756,-0.9638
1630501840532,-0.11376499999999999,-0.127185,-0.964593
1630501840541,-0.110654,-0.134139,-0.963556
1630501840551,-0.108702,-0.139446,-0.961482
1630501840561,-0.106567,-0.14280099999999998,-0.9609329999999999
1630501840570,-0.10284599999999999,-0.144814,-0.961726
1630501840580,-0.099125,-0.146034,-0.963373
1630501840589,-0.099308,-0.14518,-0.966545
1630501840599,-0.098393,-0.14249599999999998,-0.96929
1630501840609,-0.097722,-0.139446,-0.9700219999999999
1630501840618,-0.097661,-0.134993,-0.970083
1630501840628,-0.098149,-0.133834,-0.970693
1630501840637,-0.09638,-0.132431,-0.971425
1630501840647,-0.095343,-0.132248,-0.966423
1630501840657,-0.095343,-0.132492,-0.95587
1630501840666,-0.096502,-0.134261,-0.943121
1630501840676,-0.094489,-0.136457,-0.937326
1630501840685,-0.095038,-0.136701,-0.938973
1630501840695,-0.098454,-0.133895,-0.945439
1630501840705,-0.098332,-0.12871,-0.9569679999999999
1630501840714,-0.096197,-0.126575,-0.9481229999999999
1630501840724,-0.102907,-0.129747,-0.933483
1630501840733,-0.112301,-0.12566,-0.967826
1630501840743,-0.113216,-0.128222,-0.978745
1630501840753,-0.120841,-0.124684,-0.99125
1630501840762,-0.12395199999999999,-0.122,-1.001986
1630501840772,-0.125477,-0.116266,-1.000461
1630501840781,-0.131455,-0.11053199999999999,-1.007903
1630501840791,-0.137616,-0.098698,-1.021201
1630501840801,-0.144753,-0.084912,-1.024251
1630501840810,-0.149633,-0.072712,-1.021018
1630501840820,-0.151951,-0.065026,-1.017846
1630501840829,-0.152134,-0.058682,-1.01565
1630501840839,-0.15067,-0.054717,-1.017541
1630501840849,-0.145119,-0.05124,-1.014735
1630501840858,-0.14005599999999999,-0.048007,-1.010648
1630501840868,-0.135359,-0.042883,-1.012661
1630501840877,-0.132309,-0.040504,-1.009184
1630501840887,-0.131028,-0.039710999999999996,-1.001864
1630501840897,-0.129686,-0.042212,-0.990335
1630501840906,-0.126636,-0.045323,-0.979721
1630501840916,-0.118462,-0.047335999999999996,-0.975573
1630501840925,-0.113582,-0.05124,-0.970144
1630501840935,-0.106567,-0.055754,-0.961787
1630501840945,-0.097783,-0.059597,-0.9594079999999999
1630501840954,-0.093208,-0.065758,-0.957761
1630501840964,-0.095709,-0.073322,-0.965569
1630501840973,-0.10004,-0.07649399999999999,-0.973926
1630501840983,-0.10675,-0.074359,-0.982893
1630501840993,-0.115534,-0.067222,-1.000156
1630501841002,-0.120597,-0.058804,-1.011441
1630501841012,-0.12425699999999999,-0.051972,-1.012844
1630501841021,-0.128222,-0.049409999999999996,-1.010953
1630501841031,-0.131333,-0.051057,-1.003389
1630501841041,-0.133285,-0.05978,-0.99186
1630501841050,-0.134017,-0.06466,-0.996557
1630501841060,-0.133712,-0.070089,-1.005036
1630501841069,-0.136274,-0.073383,-1.013332
1630501841079,-0.139263,-0.068259,-1.022787
1630501841089,-0.142252,-0.061305,-1.019249
1630501841098,-0.144387,-0.056059,-1.004304
1630501841108,-0.144814,-0.050996,-0.98698
1630501841117,-0.139446,-0.041236,-0.971974
1630501841127,-0.139324,-0.029646,-0.960506
1630501841137,-0.1403,-0.022203999999999998,-0.953491
1630501841146,-0.144082,-0.020496,-0.9465979999999999
1630501841156,-0.146888,-0.025436999999999998,-0.932995
1630501841165,-0.149877,-0.038674,-0.917196
1630501841175,-0.15268299999999999,-0.05551,-0.915305
1630501841185,-0.151036,-0.075579,-0.91561
1630501841194,-0.149023,-0.096624,-0.915732
1630501841204,-0.149023,-0.114619,-0.932202
1630501841213,-0.146644,-0.127917,-0.958432
1630501841223,-0.145729,-0.141947,-0.986004
1630501841233,-0.147376,-0.15738,-1.0310219999999999
1630501841242,-0.151829,-0.176473,-1.059814
1630501841252,-0.15420799999999998,-0.19519999999999998,-1.070001
1630501841261,-0.155306,-0.216184,-1.074942
1630501841271,-0.152256,-0.22942099999999999,-1.083604
1630501841281,-0.15237799999999999,-0.244,-1.108492
1630501841290,-0.14804699999999998,-0.253455,-1.150338
1630501841300,-0.141703,-0.259555,-1.182912
1630501841309,-0.13572499999999998,-0.26352,-1.1904759999999999
1630501841319,-0.13419999999999999,-0.26095799999999997,-1.178825
1630501841329,-0.13602999999999998,-0.264801,-1.152839
1630501841338,-0.133834,-0.27755,-1.114348
1630501841348,-0.127185,-0.289506,-1.0867149999999999
1630501841357,-0.116876,-0.302621,-1.059875
1630501841367,-0.108946,-0.310185,-1.040721
1630501841377,-0.094428,-0.314638,-1.024495
1630501841386,-0.082472,-0.311466,-1.010404
1630501841396,-0.069784,-0.307623,-0.9852719999999999
1630501841405,-0.05856,-0.303414,-0.95648
1630501841415,-0.047458,-0.29219,-0.939461
1630501841425,-0.039406,-0.276086,-0.921588
1630501841434,-0.034404,-0.266448,-0.897981
1630501841444,-0.033306,-0.265533,-0.879864
1630501841453,-0.031476,-0.266936,-0.8744959999999999
1630501841463,-0.029707,-0.2745,-0.8790709999999999
1630501841473,-0.027327999999999998,-0.275842,-0.877668
1630501841482,-0.027511,-0.26779,-0.869738
1630501841492,-0.026779,-0.260836,-0.867481
1630501841501,-0.022021,-0.25729799999999997,-0.862845
1630501841511,-0.017079999999999998,-0.261446,-0.853268
1630501841521,-0.01586,-0.28121,-0.8522919999999999
1630501841530,-0.017019,-0.310429,-0.857355
1630501841540,-0.017751,-0.33916,-0.865712
1630501841549,-0.020618,-0.358436,-0.869799
1630501841559,-0.025925,-0.37088,-0.87535
1630501841569,-0.029036,-0.385215,-0.870714
1630501841578,-0.031964,-0.396378,-0.86437
1630501841588,-0.032147,-0.408761,-0.8605269999999999
1630501841597,-0.027206,-0.42029,-0.859124
1630501841607,-0.021471999999999998,-0.428037,-0.856379
1630501841617,-0.018056,-0.437492,-0.848815
1630501841626,-0.014029999999999999,-0.44591,-0.835395
1630501841636,-0.013054,-0.456219,-0.817949
1630501841645,-0.014213,-0.474031,-0.797636
1630501841655,-0.012565999999999999,-0.49580799999999997,-0.783911
1630501841665,-0.009516,-0.512644,-0.773968
1630501841674,-0.0071979999999999995,-0.523014,-0.765489
1630501841684,-0.012565999999999999,-0.528016,-0.771406
1630501841693,-0.01769,-0.523319,-0.787632
1630501841703,-0.025376,-0.51362,-0.810568
1630501841713,-0.031171,-0.508313,-0.831552
1630501841722,-0.029402,-0.513193,-0.8355779999999999
1630501841732,-0.024949,-0.5237459999999999,-0.8322229999999999
1630501841741,-0.016836,-0.537654,-0.833077
1630501841751,-0.009089,-0.552538,-0.837225
1630501841761,0.002928,-0.57035,-0.842105
1630501841770,0.014579,-0.5860879999999999,-0.848876
1630501841780,0.028059999999999998,-0.596397,-0.851316
1630501841789,0.042395,-0.595421,-0.8480219999999999
1630501841799,0.05124,-0.578707,-0.84119
1630501841809,0.053436,-0.558028,-0.8282579999999999
1630501841818,0.049227,-0.532896,-0.815631
1630501841828,0.041541,-0.512644,-0.8045289999999999
1630501841837,0.033733,-0.494832,-0.794891
1630501841847,0.027267,-0.48318099999999997,-0.785436
1630501841857,0.019703,-0.472567,-0.783728
1630501841866,0.015189,-0.466406,-0.792634
1630501841876,0.012444,-0.461038,-0.809775
1630501841885,0.012688,-0.457683,-0.818803
1630501841895,0.011529,-0.45170499999999997,-0.822036
1630501841905,0.0071979999999999995,-0.436821,-0.826062
1630501841914,-0.001037,-0.411933,-0.838384
1630501841924,-0.008052,-0.387838,-0.849303
1630501841933,-0.017385,-0.36453599999999997,-0.865407
1630501841943,-0.028975,-0.34599199999999997,-0.898774
1630501841953,-0.039284,-0.331291,-0.946354
1630501841962,-0.050873999999999996,-0.320372,-0.997533
1630501841972,-0.065819,-0.307257,-1.042185
1630501841981,-0.080398,-0.292556,-1.074942
1630501841991,-0.093879,-0.273707,-1.091229
1630501842001,-0.108641,-0.257176,-1.091717
1630501842010,-0.123098,-0.24235299999999999,-1.092754
1630501842020,-0.137189,-0.23033599999999999,-1.101843
1630501842029,-0.14701,-0.224358,-1.114653
1630501842039,-0.151646,-0.228689,-1.125877
1630501842049,-0.151341,-0.24339,-1.1375279999999999
1630501842058,-0.14621699999999999,-0.267058,-1.144604
1630501842068,-0.136396,-0.286822,-1.157536
1630501842077,-0.123891,-0.303536,-1.166381
1630501842087,-0.110776,-0.31232,-1.1694309999999999
1630501842097,-0.097051,-0.315065,-1.146556
1630501842106,-0.091927,-0.310612,-1.119228
1630501842116,-0.086376,-0.297192,-1.105625
1630501842125,-0.08052,-0.280478,-1.092754
1630501842135,-0.071858,-0.261446,-1.0748199999999999
1630501842145,-0.06283,-0.243756,-1.055788
1630501842154,-0.055022,-0.22875,-1.0365119999999999
1630501842164,-0.047640999999999996,-0.218868,-1.016687
1630501842173,-0.041174999999999996,-0.216611,-1.000583
1630501842183,-0.035075,-0.220332,-0.9861869999999999
1630501842193,-0.031842,-0.223626,-0.967155
1630501842202,-0.037942,-0.216794,-0.95892
1630501842212,-0.046543,-0.202703,-0.956724
1630501842221,-0.052094,-0.187331,-0.9469029999999999
1630501842231,-0.058865,-0.17025099999999999,-0.929213
1630501842241,-0.066673,-0.15006,-0.912133
1630501842250,-0.074664,-0.128832,-0.909144
1630501842260,-0.082228,-0.108397,-0.918416
1630501842269,-0.088999,-0.087779,-0.932812
1630501842279,-0.093879,-0.072224,-0.942389
1630501842289,-0.097051,-0.060207,-0.9472079999999999
1630501842298,-0.098698,-0.050691,-0.951295
1630501842308,-0.099186,-0.040565,-0.957395
1630501842317,-0.10065,-0.031964,-0.958859
1630501842327,-0.101931,-0.027511,-0.959347
1630501842337,-0.103578,-0.025071,-0.962702
1630501842346,-0.10467599999999999,-0.023667999999999998,-0.9627629999999999
1630501842356,-0.10699399999999999,-0.021899,-0.955199
1630501842365,-0.109251,-0.019154,-0.948611
1630501842375,-0.109495,-0.016104,-0.940559
1630501842385,-0.113521,-0.015006,-0.939644
1630501842394,-0.117547,-0.019275999999999998,-0.948306
1630501842404,-0.119682,-0.026657,-0.951295
1630501842413,-0.123708,-0.036051,-0.949404
1630501842423,-0.127246,-0.04514,-0.9465979999999999
1630501842433,-0.127368,-0.052826,-0.94489
1630501842442,-0.124318,-0.05795,-0.947574
1630501842452,-0.120109,-0.061488,-0.954772
1630501842461,-0.115534,-0.062159,-0.965203
1630501842471,-0.110044,-0.064233,-0.970388
1630501842481,-0.109861,-0.066368,-0.960994
1630501842490,-0.117059,-0.064294,-0.957456
1630501842500,-0.120902,-0.054655999999999996,-0.96258
1630501842509,-0.124074,-0.038674,-0.970876
1630501842519,-0.132797,-0.025559,-0.98454
1630501842529,-0.139202,-0.014152,-0.993019
1630501842538,-0.145119,-0.004026,-0.988932
1630501842548,-0.153171,0.0037819999999999998,-0.983015
1630501842557,-0.159698,0.011895,-0.9821
1630501842567,-0.167628,0.019154,-0.9837469999999999
1630501842577,-0.174887,0.028182,-0.98637
1630501842586,-0.181109,0.034648,-0.986919
1630501842596,-0.189832,0.040809,-0.987956
1630501842605,-0.197518,0.043798,-0.987834
1630501842615,-0.203984,0.044774,-0.988627
1630501842625,-0.206241,0.043493,-0.9897859999999999
1630501842634,-0.20782699999999998,0.036417,-0.991189
1630501842644,-0.206363,0.034282,-0.99308
1630501842653,-0.208681,0.036782999999999996,-0.987834
1630501842663,-0.210694,0.046176999999999996,-0.992592
1630501842673,-0.208925,0.054655999999999996,-0.999058
1630501842682,-0.20410599999999998,0.060207,-1.002657
1630501842692,-0.199226,0.06466,-1.004609
1630501842701,-0.194773,0.06447699999999999,-1.008574
1630501842711,-0.189405,0.063135,-1.014125
1630501842721,-0.183244,0.061,-1.016992
1630501842730,-0.173362,0.057279,-1.010831
1630501842740,-0.163846,0.049898,-1.001315
1630501842749,-0.151097,0.040687,-0.992348
1630501842759,-0.139385,0.032452,-0.986614
1630501842769,-0.127368,0.03172,-0.988383
1630501842778,-0.113521,0.033794,-0.987346
1630501842788,-0.107177,0.035623999999999996,-0.98698
1630501842797,-0.104798,0.036722,-0.9952759999999999
1630501842807,-0.103395,0.0366,-1.001498
1630501842817,-0.101199,0.033123,-1.0004
1630501842826,-0.099857,0.02989,-0.9974109999999999
1630501842836,-0.099491,0.027267,-0.993934
1630501842845,-0.100345,0.030622,-0.9846619999999999
1630501842855,-0.103578,0.045079,-0.97905
1630501842865,-0.107482,0.056791,-0.974048
1630501842874,-0.108824,0.06161,-0.980514
1630501842884,-0.110715,0.064111,-0.989725
1630501842893,-0.112118,0.066307,-0.99796
1630501842903,-0.112362,0.071492,-0.9964959999999999
1630501842913,-0.116876,0.084851,-0.982588
1630501842922,-0.123037,0.10668899999999999,-0.966484
1630501842932,-0.127856,0.12688,-0.9453779999999999
1630501842941,-0.130357,0.143289,-0.934032
1630501842951,-0.138592,0.15207299999999999,-0.9359839999999999
1630501842961,-0.145363,0.14945,-0.946842
1630501842970,-0.145302,0.136518,-0.9516
1630501842980,-0.144692,0.119438,-0.946659
1630501842989,-0.145119,0.109556,-0.94306
1630501842999,-0.142008,0.10492,-0.939644
1630501843009,-0.14066599999999999,0.102297,-0.931897
1630501843018,-0.139812,0.104249,-0.922808
1630501843028,-0.136701,0.10797,-0.925675
1630501843037,-0.131089,0.10992199999999999,-0.9335439999999999
1630501843047,-0.131638,0.106323,-0.934276
1630501843057,-0.139324,0.10961699999999999,-0.934337
1630501843066,-0.148535,0.120902,-0.937021
1630501843076,-0.157197,0.138592,-0.940376
1630501843085,-0.166103,0.157502,-0.938973
1630501843095,-0.180011,0.171593,-0.94001
1630501843105,-0.19428499999999999,0.18812399999999999,-0.949831
1630501843114,-0.206424,0.203374,-0.956907
1630501843124,-0.217038,0.21167,-0.959774
1630501843133,-0.229909,0.218685,-0.9621529999999999
1630501843143,-0.239425,0.226249,-0.959957
1630501843153,-0.242536,0.234484,-0.957029
1630501843162,-0.23832699999999998,0.236741,-0.9499529999999999
1630501843172,-0.235277,0.23619199999999999,-0.944036
1630501843181,-0.233508,0.23399599999999998,-0.950746
1630501843191,-0.22783499999999998,0.230824,-0.964837
1630501843201,-0.221125,0.226798,-0.9675819999999999
1630501843210,-0.216306,0.223077,-0.969473
1630501843220,-0.210999,0.21892899999999998,-0.9730719999999999
1630501843229,-0.20813199999999998,0.218258,-0.979599
1630501843239,-0.20569199999999999,0.215452,-0.982161
1630501843249,-0.206058,0.21770899999999999,-0.9834419999999999
1630501843258,-0.202459,0.222772,-0.983503
1630501843268,-0.197274,0.221735,-0.97783
1630501843277,-0.19215,0.213744,-0.97173
1630501843287,-0.18470799999999998,0.204716,-0.96502
1630501843297,-0.180499,0.194773,-0.961726
1630501843306,-0.176534,0.185562,-0.962824
1630501843316,-0.173423,0.174216,-0.957822
1630501843325,-0.17147099999999998,0.16713999999999998,-0.9516
1630501843335,-0.16994599999999999,0.164151,-0.947635
1630501843345,-0.166713,0.15975899999999998,-0.942816
1630501843354,-0.164578,0.15268299999999999,-0.937326
1630501843364,-0.15945399999999998,0.148596,-0.932568
1630501843373,-0.15494,0.14896199999999998,-0.938485
1630501843383,-0.151036,0.146278,-0.949831
1630501843393,-0.146034,0.145302,-0.955626
1630501843402,-0.142923,0.14896199999999998,-0.961482
1630501843412,-0.146461,0.153842,-0.967399
1630501843421,-0.151219,0.15982,-0.971669
1630501843431,-0.163236,0.157258,-0.972706
1630501843441,-0.173423,0.144936,-0.976549
1630501843450,-0.182634,0.129442,-0.9788669999999999
1630501843460,-0.189771,0.11608299999999999,-0.978501
1630501843469,-0.194834,0.106872,-0.98088
1630501843479,-0.195078,0.102358,-0.9864919999999999
1630501843489,-0.196603,0.10174799999999999,-0.992104
1630501843498,-0.198006,0.102358,-0.995642
1630501843508,-0.199592,0.09698999999999999,-0.996984
1630501843517,-0.20044599999999999,0.095038,-0.9986309999999999
1630501843527,-0.203435,0.089548,-0.996252
1630501843537,-0.20569199999999999,0.081252,-0.9788669999999999
1630501843546,-0.210084,0.073993,-0.969168
1630501843556,-0.211182,0.067954,-0.963129
1630501843565,-0.211487,0.065453,-0.959896
1630501843575,-0.20996199999999998,0.06466,-0.957456
1630501843585,-0.206119,0.065331,-0.96014
1630501843594,-0.202215,0.068137,-0.96502
1630501843604,-0.198677,0.070882,-0.969656
1630501843613,-0.196847,0.072163,-0.975268
1630501843623,-0.194529,0.071797,-0.981124
1630501843633,-0.193187,0.067527,-0.978989
1630501843642,-0.193004,0.06344,-0.975695
1630501843652,-0.193004,0.060207,-0.975268
1630501843661,-0.194102,0.058377,-0.97539
1630501843671,-0.193126,0.058255,-0.980514
1630501843681,-0.19117399999999998,0.060756,-0.987834
1630501843690,-0.185196,0.061488,-0.9943609999999999
1630501843700,-0.17641199999999999,0.059597,-0.9946659999999999
1630501843709,-0.168909,0.062403,-0.993019
1630501843719,-0.16036899999999998,0.066124,-0.993812
1630501843729,-0.152561,0.070089,-0.996984
1630501843738,-0.144814,0.069784,-1.005768
1630501843748,-0.131394,0.06405,-1.011075
1630501843757,-0.118218,0.054168,-1.007659
1630501843767,-0.108275,0.042334,-0.997533
1630501843777,-0.100284,0.033611,-0.987468
1630501843786,-0.090097,0.020739999999999998,-0.977708
1630501843796,-0.082838,0.0064659999999999995,-0.970083
1630501843805,-0.076982,-0.007442,-0.963556
1630501843815,-0.07015,-0.019581,-0.958615
1630501843825,-0.067161,-0.030439,-0.9575779999999999
1630501843834,-0.06447699999999999,-0.041846,-0.95709
1630501843844,-0.063074,-0.053375,-0.960262
1630501843853,-0.059414,-0.062342,-0.966484
1630501843863,-0.059231,-0.066063,-0.971974
1630501843873,-0.06039,-0.066124,-0.974841
1630501843882,-0.061488,-0.066612,-0.9755119999999999
1630501843892,-0.063745,-0.06740499999999999,-0.97783
1630501843901,-0.065636,-0.06954,-0.986858
1630501843911,-0.06161,-0.075335,-0.997228
1630501843921,-0.059414,-0.08326499999999999,-1.004609
1630501843930,-0.060878,-0.091317,-1.009367
1630501843940,-0.063135,-0.098942,-1.009733
1630501843949,-0.06709999999999999,-0.10553,-1.001803
1630501843959,-0.075152,-0.11041,-0.988139
1630501843969,-0.080459,-0.111813,-0.9828319999999999
1630501843978,-0.083692,-0.111081,-0.981429
1630501843988,-0.087108,-0.108153,-0.981673
1630501843997,-0.091256,-0.105225,-0.983564
1630501844007,-0.095465,-0.099125,-0.986004
1630501844017,-0.100162,-0.094123,-0.98759
1630501844026,-0.10492,-0.08723,-0.991372
1630501844036,-0.11114199999999999,-0.080398,-0.9934459999999999
1630501844045,-0.117974,-0.074725,-0.9925309999999999
1630501844055,-0.12364699999999999,-0.068991,-0.993385
1630501844065,-0.127368,-0.066063,-0.996435
1630501844074,-0.12932,-0.066002,-0.997777
1630501844084,-0.12993,-0.065514,-0.99735
1630501844093,-0.132248,-0.067588,-0.9961909999999999
1630501844103,-0.132919,-0.072468,-0.996374
1630501844113,-0.13237,-0.07564,-0.9961909999999999
1630501844122,-0.132309,-0.077287,-0.9922259999999999
1630501844132,-0.132309,-0.076982,-0.990884
1630501844141,-0.131943,-0.078324,-0.990152
1630501844151,-0.130601,-0.076677,-0.989359
1630501844161,-0.129381,-0.075884,-0.98881
1630501844170,-0.12925899999999999,-0.074298,-0.98759
1630501844180,-0.130723,-0.072651,-0.982954
1630501844189,-0.129442,-0.076372,-0.9821
1630501844199,-0.126636,-0.084424,-0.982649
1630501844209,-0.124318,-0.089853,-0.984784
1630501844218,-0.12163399999999999,-0.095465,-0.988444
1630501844228,-0.11962099999999999,-0.098271,-0.991738
1630501844237,-0.117425,-0.100101,-0.993507
1630501844247,-0.116815,-0.10248,-0.993385
1630501844257,-0.116327,-0.105896,-0.9940559999999999
1630501844266,-0.116327,-0.105957,-0.9964959999999999
1630501844276,-0.11516799999999999,-0.106323,-0.9995459999999999
1630501844285,-0.113643,-0.10467599999999999,-0.9964959999999999
1630501844295,-0.115229,-0.10113799999999999,-0.9916159999999999
1630501844305,-0.11547299999999999,-0.096563,-0.989237
1630501844314,-0.114619,-0.094245,-0.989542
1630501844324,-0.113704,-0.09333,-0.990152
1630501844333,-0.111264,-0.093147,-0.993629
1630501844343,-0.107482,-0.093818,-0.995825
1630501844353,-0.10248,-0.09467199999999999,-0.996008
1630501844362,-0.10083299999999999,-0.094245,-0.994422
1630501844372,-0.099735,-0.093086,-0.992653
1630501844381,-0.098088,-0.09272,-0.988322
1630501844391,-0.096685,-0.091195,-0.985821
1630501844401,-0.095038,-0.092903,-0.985455
1630501844410,-0.091622,-0.09211,-0.985943
1630501844420,-0.090646,-0.090707,-0.986065
1630501844429,-0.088999,-0.087718,-0.9861869999999999
1630501844439,-0.08912099999999999,-0.085156,-0.9888709999999999
1630501844449,-0.089975,-0.084851,-0.9919209999999999
1630501844458,-0.088877,-0.087474,-0.9916159999999999
1630501844468,-0.089792,-0.084119,-0.989359
1630501844477,-0.08820599999999999,-0.08723,-0.985638
1630501844487,-0.08588799999999999,-0.08680299999999999,-0.9828319999999999
1630501844497,-0.084668,-0.086315,-0.982161
1630501844506,-0.085766,-0.08265499999999999,-0.9816119999999999
1630501844516,-0.086437,-0.079056,-0.98332
1630501844525,-0.08649799999999999,-0.076067,-0.983259
1630501844535,-0.086681,-0.074847,-0.982954
1630501844545,-0.087596,-0.074359,-0.981978
1630501844554,-0.08912099999999999,-0.072346,-0.98088
1630501844564,-0.09089,-0.071736,-0.98027
1630501844573,-0.09028,-0.072468,-0.9773419999999999
1630501844583,-0.089609,-0.073383,-0.974658
1630501844593,-0.090036,-0.07448099999999999,-0.973804
1630501844602,-0.090524,-0.076311,-0.973438
1630501844612,-0.090036,-0.078934,-0.973438
1630501844621,-0.08851099999999999,-0.081435,-0.977159
1630501844631,-0.089304,-0.084729,-0.9752069999999999
1630501844641,-0.09143899999999999,-0.085339,-0.9761219999999999
1630501844650,-0.090707,-0.086559,-0.979233
1630501844660,-0.089914,-0.087474,-0.981246
1630501844669,-0.088694,-0.089365,-0.9843569999999999
1630501844679,-0.08845,-0.091683,-0.984601
1630501844689,-0.08820599999999999,-0.09436699999999999,-0.986065
1630501844698,-0.088328,-0.098088,-0.986309
1630501844708,-0.087596,-0.100162,-0.987529
1630501844717,-0.08680299999999999,-0.10065,-0.987651
1630501844727,-0.085339,-0.101809,-0.987651
1630501844737,-0.083692,-0.103517,-0.987712
1630501844746,-0.082716,-0.10498099999999999,-0.9861869999999999
1630501844756,-0.082716,-0.105896,-0.985394
1630501844765,-0.08265499999999999,-0.108336,-0.986248
1630501844775,-0.083753,-0.109495,-0.986126
1630501844785,-0.083326,-0.110593,-0.98393
1630501844794,-0.08204499999999999,-0.11315499999999999,-0.9834419999999999
1630501844804,-0.081313,-0.114497,-0.983625
1630501844813,-0.082289,-0.11669299999999999,-0.982588
1630501844823,-0.081984,-0.117974,-0.983381
1630501844833,-0.083326,-0.11809599999999999,-0.984113
1630501844842,-0.084851,-0.11730299999999999,-0.983686
1630501844852,-0.086681,-0.11730299999999999,-0.9849669999999999
1630501844861,-0.087413,-0.11773,-0.985821
1630501844871,-0.08967,-0.116144,-0.985089
1630501844881,-0.09174399999999999,-0.114009,-0.983198
1630501844890,-0.093025,-0.11114199999999999,-0.982588
1630501844900,-0.095648,-0.108641,-0.982344
1630501844909,-0.097722,-0.106872,-0.981429
1630501844919,-0.098088,-0.10553,-0.9794769999999999
1630501844929,-0.100284,-0.10315099999999999,-0.9794769999999999
1630501844938,-0.10248,-0.09881999999999999,-0.979843
1630501844948,-0.102785,-0.090646,-0.9816119999999999
1630501844957,-0.101931,-0.074786,-0.986736
1630501844967,-0.105835,-0.062037,-0.983686
1630501844977,-0.110349,-0.058072,-0.976
1630501844986,-0.115107,-0.060634,-0.967826
1630501844996,-0.117242,-0.067893,-0.959286
1630501845005,-0.120658,-0.076372,-0.955504
1630501845015,-0.121878,-0.084424,-0.954162
1630501845025,-0.123525,-0.09089,-0.955626
1630501845034,-0.123342,-0.097051,-0.9621529999999999
1630501845044,-0.122366,-0.104005,-0.967643
1630501845053,-0.12486699999999999,-0.109068,-0.968985
1630501845063,-0.126758,-0.112911,-0.971181
1630501845073,-0.1281,-0.11834,-0.972828
1630501845082,-0.129137,-0.126148,-0.97539
1630501845092,-0.129076,-0.134566,-0.975329
1630501845101,-0.129442,-0.144875,-0.9755119999999999
1630501845111,-0.130418,-0.15311,-0.976854
1630501845121,-0.129625,-0.162077,-0.980209
1630501845130,-0.127917,-0.170678,-0.987346
1630501845140,-0.125904,-0.175985,-0.991128
1630501845149,-0.124684,-0.179523,-0.995337
1630501845159,-0.124623,-0.18422,-0.99735
1630501845169,-0.124013,-0.185562,-0.998082
1630501845178,-0.123098,-0.186965,-0.9989359999999999
1630501845188,-0.122488,-0.187758,-0.99796
1630501845197,-0.12322,-0.188856,-0.996313
1630501845207,-0.121695,-0.189832,-0.9937509999999999
1630501845217,-0.12322,-0.188978,-0.9919209999999999
1630501845226,-0.122488,-0.187087,-0.987529
1630501845236,-0.123281,-0.183671,-0.982466
