timestamp,ax,ay,az
1631291236176,-0.17995,0.526857,-0.811117
1631291236186,-0.180438,0.530029,-0.810751
1631291236195,-0.17934,0.531188,-0.812947
1631291236205,-0.17824199999999998,0.533872,-0.815448
1631291236214,-0.177754,0.531371,-0.816302
1631291236224,-0.177754,0.527772,-0.816241
1631291236234,-0.177571,0.526125,-0.8155089999999999
1631291236243,-0.175009,0.523563,-0.817095
1631291236253,-0.176534,0.526064,-0.81679
1631291236262,-0.180072,0.531188,-0.813252
1631291236272,-0.198372,0.555649,-0.807945
1631291236282,-0.204716,0.5620539999999999,-0.79971
1631291236291,-0.199958,0.551684,-0.800625
1631291236301,-0.194651,0.542778,-0.804163
1631291236310,-0.18781899999999999,0.530822,-0.805932
1631291236320,-0.184342,0.5237459999999999,-0.8069689999999999
1631291236330,-0.183366,0.523624,-0.809653
1631291236339,-0.183061,0.531371,-0.812581
1631291236349,-0.18422,0.53558,-0.812276
1631291236358,-0.184342,0.535763,-0.810507
1631291236368,-0.179645,0.523624,-0.806481
1631291236378,-0.174277,0.511973,-0.8094089999999999
1631291236387,-0.173362,0.5130709999999999,-0.8087989999999999
1631291236397,-0.172569,0.516548,-0.804285
1631291236406,-0.168421,0.51423,-0.802516
1631291236416,-0.16348,0.510021,-0.8066639999999999
1631291236426,-0.166774,0.516914,-0.815936
1631291236435,-0.171288,0.520635,-0.818498
1631291236445,-0.18178,0.525759,-0.815692
1631291236454,-0.18964899999999998,0.53314,-0.814655
1631291236464,-0.191845,0.538691,-0.814655
1631291236474,-0.190747,0.537959,-0.81313
1631290337177,-0.071309,0.679357,-0.706136
1631290337186,-0.068198,0.684481,-0.71736
1631290337196,-0.063623,0.685396,-0.7187629999999999
1631290337206,-0.066795,0.677283,-0.711931
1631290337215,-0.073932,0.682651,-0.710467
1631290337225,-0.079239,0.690886,-0.708454
1631290337234,-0.083875,0.700768,-0.7032079999999999
1631290337244,-0.083509,0.7056479999999999,-0.702415
1631290337254,-0.08418,0.706075,-0.701744
1631290337263,-0.082106,0.70333,-0.700402
1631290337273,-0.083936,0.6954,-0.697291
1631290337282,-0.08723,0.691435,-0.690093
1631290337292,-0.093025,0.697474,-0.683566
1631290337302,-0.100955,0.700646,-0.677161
1631290337311,-0.104005,0.700829,-0.672403
1631290337321,-0.102907,0.696376,-0.666791
1631290337330,-0.103395,0.697108,-0.666852
1631290337340,-0.102541,0.698999,-0.668316
1631290337350,-0.10315099999999999,0.696254,-0.667462
1631290337359,-0.103273,0.697352,-0.666059
1631290337369,-0.10437099999999999,0.698084,-0.668133
1631290337378,-0.103883,0.702659,-0.671244
1631290337388,-0.105591,0.700524,-0.669109
1631290337398,-0.107787,0.69906,-0.668682
1631290337407,-0.10931199999999999,0.69906,-0.67039
1631290337417,-0.110776,0.701561,-0.67039
1631290337426,-0.113582,0.7047329999999999,-0.670573
1631290337436,-0.114314,0.707356,-0.671976
1631290337446,-0.11529,0.710711,-0.673745
1631290337455,-0.101687,0.702415,-0.6806989999999999
1631290337465,-0.09467199999999999,0.6944239999999999,-0.694302
1631290337474,-0.087718,0.6925939999999999,-0.699731
1631290337484,-0.079056,0.68381,-0.701439
1631290337494,-0.078019,0.6883239999999999,-0.701439
1631290337503,-0.07326099999999999,0.693753,-0.70394
1631290337513,-0.075823,0.6871039999999999,-0.704184
1631290337522,-0.082106,0.6874089999999999,-0.70089
1631290337532,-0.086376,0.682468,-0.697474
1631290337542,-0.093818,0.684176,-0.692838
1631290337551,-0.101199,0.683322,-0.692716
1631290337561,-0.106811,0.689422,-0.696681
1631290337570,-0.111264,0.694668,-0.697596
1631290337580,-0.11577799999999999,0.699365,-0.698755
1631290337590,-0.11809599999999999,0.707295,-0.700036
1631290337599,-0.11834,0.712907,-0.700707
1631290337609,-0.12315899999999999,0.723338,-0.698267
1631290337618,-0.127307,0.72773,-0.691618
1631290337628,-0.133041,0.731451,-0.683078
1631290337638,-0.137372,0.733586,-0.676673
1631290337647,-0.140605,0.732488,-0.666791
1631290337657,-0.146705,0.729621,-0.6560549999999999
1631290337666,-0.148474,0.725778,-0.648491
1631290337676,-0.151219,0.721874,-0.642574
1631290337686,-0.154574,0.725168,-0.633485
1631290337695,-0.162504,0.742248,-0.616893
1631290337705,-0.172569,0.745542,-0.600057
1631290337714,-0.180072,0.745115,-0.5870029999999999
1631290337724,-0.183976,0.74359,-0.579378
1631290337734,-0.188612,0.73749,-0.576572
1631290337743,-0.193248,0.72407,-0.575047
1631290337753,-0.194712,0.719678,-0.580476
1631290337762,-0.193309,0.713334,-0.585295
1631290337772,-0.194956,0.71065,-0.5903579999999999
1631290337782,-0.190015,0.71004,-0.599508
1631290337791,-0.187148,0.711382,-0.6107319999999999
1631290337801,-0.184769,0.708637,-0.622627
1631290337810,-0.18483,0.706624,-0.633485
1631290337820,-0.18781899999999999,0.7080879999999999,-0.642147
1631290337830,-0.189588,0.7068679999999999,-0.650931
1631290337839,-0.1891,0.701683,-0.659471
1631290337849,-0.189466,0.69479,-0.666303
1631290337858,-0.184525,0.682773,-0.674538
1631290337868,-0.18226799999999999,0.68198,-0.68686
1631290337878,-0.181048,0.679906,-0.700036
1631290337887,-0.179096,0.678137,-0.713334
1631290337897,-0.180133,0.674782,-0.7190679999999999
1631290337906,-0.181475,0.674599,-0.724802
1631290337916,-0.18056,0.67893,-0.7287669999999999
1631290337926,-0.178425,0.68442,-0.73139
1631290337935,-0.1769,0.685762,-0.731451
1631290337945,-0.171288,0.683078,-0.734989
1631290337954,-0.168177,0.678686,-0.735538
1631290337964,-0.168116,0.669658,-0.736331
1631290337974,-0.16591999999999998,0.656116,-0.735721
1631290337983,-0.161406,0.6402559999999999,-0.7381
1631290337993,-0.154757,0.626043,-0.745481
1631290338002,-0.149328,0.615551,-0.753777
1631290338012,-0.14621699999999999,0.60756,-0.763232
1631290338022,-0.14152,0.601887,-0.776286
1631290338031,-0.13602999999999998,0.595604,-0.788059
1631290338041,-0.133224,0.592859,-0.79849
1631290338050,-0.131638,0.591639,-0.806908
1631290338060,-0.124196,0.585539,-0.812703
1631290338070,-0.121756,0.584746,-0.8155089999999999
1631290338079,-0.119133,0.5854779999999999,-0.819901
1631290338089,-0.117364,0.583343,-0.82228
1631290338098,-0.115717,0.577914,-0.823012
1631290338108,-0.115046,0.574925,-0.8224629999999999
1631290338118,-0.113948,0.571936,-0.821609
1631290338127,-0.11486299999999999,0.5715089999999999,-0.819108
1631290338137,-0.11669299999999999,0.568093,-0.81618
1631290338146,-0.117669,0.566995,-0.813313
1631290338156,-0.11773,0.565836,-0.8112389999999999
1631290338166,-0.11870599999999999,0.564067,-0.807152
1631290338175,-0.11840099999999999,0.564433,-0.803736
1631290338185,-0.118584,0.567178,-0.801235
1631290338194,-0.117974,0.570777,-0.797514
1631290338204,-0.117974,0.573217,-0.791719
1631290338214,-0.118462,0.576023,-0.786534
1631290338223,-0.119804,0.579256,-0.781593
1631290338233,-0.11956,0.583404,-0.777872
1631290338242,-0.120048,0.585112,-0.775188
1631290338252,-0.121268,0.587125,-0.77348
1631290338262,-0.122366,0.588589,-0.770247
1631290338271,-0.121512,0.588894,-0.76372
1631290338281,-0.123037,0.58987,-0.757803
1631290338290,-0.12254899999999999,0.5937129999999999,-0.75579
1631290338300,-0.12285399999999999,0.597434,-0.753228
1631290338310,-0.123586,0.598227,-0.749385
1631290338319,-0.124013,0.599325,-0.74603
1631290338329,-0.125416,0.599813,-0.743895
1631290338338,-0.126697,0.599447,-0.7409669999999999
1631290338348,-0.127063,0.601094,-0.740784
1631290338358,-0.12932,0.604388,-0.741638
1631290338367,-0.13017399999999998,0.604571,-0.741638
1631290338377,-0.12932,0.602802,-0.7406619999999999
1631290338386,-0.132065,0.601582,-0.739625
1631290338396,-0.132614,0.601033,-0.7421869999999999
1631290338406,-0.132004,0.60329,-0.74725
1631290338415,-0.130601,0.604205,-0.750117
1631290338425,-0.130113,0.604937,-0.752862
1631290338434,-0.129686,0.606706,-0.755058
1631290338444,-0.13017399999999998,0.608414,-0.758962
1631290338454,-0.12895399999999999,0.609756,-0.7610359999999999
1631290338463,-0.12871,0.609878,-0.761707
1631290338473,-0.128832,0.611098,-0.76372
1631290338482,-0.131211,0.6134769999999999,-0.763842
1631290338492,-0.133163,0.613416,-0.763903
1631290338502,-0.131638,0.609268,-0.763415
1631290338511,-0.127856,0.599203,-0.767258
1631290338521,-0.123708,0.58987,-0.776713
1631290338530,-0.12017,0.5912729999999999,-0.788608
1631290338540,-0.114558,0.594567,-0.795379
1631290338550,-0.112606,0.592432,-0.793244
1631290338559,-0.115046,0.5967629999999999,-0.795379
1631290338569,-0.114314,0.597861,-0.800442
1631290338578,-0.115107,0.598898,-0.803065
1631290338588,-0.114497,0.598776,-0.806847
1631290338598,-0.11315499999999999,0.595665,-0.8103239999999999
1631290338607,-0.111386,0.5943229999999999,-0.81191
1631290338617,-0.108092,0.59109,-0.814716
1631290338626,-0.106018,0.587247,-0.8124589999999999
1631290338636,-0.105164,0.584197,-0.812337
1631290338646,-0.102968,0.583221,-0.810385
1631290338655,-0.103273,0.583404,-0.807518
1631290338665,-0.10315099999999999,0.586332,-0.8054439999999999
1631290338674,-0.104615,0.5866979999999999,-0.8008689999999999
1631290338684,-0.106506,0.5882229999999999,-0.795867
1631290338694,-0.10961699999999999,0.591639,-0.791109
1631290338703,-0.111996,0.5961529999999999,-0.787266
1631290338713,-0.111996,0.596946,-0.783118
1631290338722,-0.113704,0.597251,-0.775737
1631290338732,-0.115961,0.598837,-0.771711
1631290338742,-0.118279,0.602619,-0.767563
1631290338751,-0.120658,0.60207,-0.760975
1631290338761,-0.123037,0.604083,-0.757132
1631290338770,-0.123891,0.605486,-0.753655
1631290338780,-0.127368,0.612013,-0.748409
1631290338790,-0.12993,0.618723,-0.746396
1631290338799,-0.13078399999999998,0.621224,-0.7424919999999999
1631290338809,-0.13419999999999999,0.622078,-0.735599
1631290338818,-0.135603,0.622627,-0.72956
1631290338828,-0.138348,0.622505,-0.72529
1631290338838,-0.140849,0.622383,-0.724009
1631290338847,-0.143167,0.623115,-0.722911
1631290338857,-0.143655,0.62342,-0.721508
1631290338866,-0.145302,0.623969,-0.721386
1631290338876,-0.144997,0.624884,-0.720837
1631290338886,-0.145668,0.626409,-0.722118
1631290338895,-0.144448,0.625311,-0.72529
1631290338905,-0.14219099999999998,0.624518,-0.728218
1631290338914,-0.141764,0.621285,-0.731451
1631290338924,-0.141825,0.619455,-0.734928
1631290338934,-0.142435,0.619089,-0.739625
1631290338943,-0.143411,0.618174,-0.742431
1631290338953,-0.144021,0.616161,-0.742614
1631290338962,-0.141703,0.6131719999999999,-0.743651
1631290338972,-0.139202,0.610854,-0.746762
1631290338982,-0.139568,0.60939,-0.751398
1631290338991,-0.13694499999999998,0.607072,-0.757559
1631290339001,-0.137311,0.604754,-0.762134
1631290339010,-0.138165,0.6039,-0.7653059999999999
1631290339020,-0.137677,0.603839,-0.767502
1631290339030,-0.137616,0.604815,-0.772809
1631290339039,-0.136518,0.603168,-0.7780549999999999
1631290339049,-0.135908,0.601521,-0.780312
1631290339058,-0.136091,0.599386,-0.780129
1631290339068,-0.136152,0.5949329999999999,-0.781959
1631290339078,-0.13572499999999998,0.592066,-0.789279
1631290339087,-0.133163,0.591029,-0.796172
1631290339097,-0.13237,0.585966,-0.799405
1631290339106,-0.131028,0.5845629999999999,-0.802821
1631290339116,-0.129686,0.584746,-0.806176
1631290339126,-0.129137,0.585295,-0.807396
1631290339135,-0.129808,0.584746,-0.8072739999999999
1631290339145,-0.131333,0.585722,-0.806908
1631290339154,-0.132126,0.586515,-0.804895
1631290339164,-0.133285,0.585295,-0.801967
1631290339174,-0.13480999999999999,0.586637,-0.7996489999999999
1631290339183,-0.135054,0.584746,-0.797331
1631290339193,-0.135542,0.58438,-0.795501
1631290339202,-0.137372,0.583709,-0.793122
1631290339212,-0.138348,0.58377,-0.791231
1631290339222,-0.139202,0.583343,-0.789767
1631290339231,-0.138653,0.583709,-0.787266
1631290339241,-0.139324,0.581574,-0.785741
1631290339250,-0.141154,0.58133,-0.7832399999999999
1631290339260,-0.140788,0.582428,-0.7811049999999999
1631290339270,-0.140788,0.582428,-0.778726
1631290339279,-0.141642,0.581147,-0.776347
1631290339289,-0.141215,0.58072,-0.775249
1631290339298,-0.140178,0.580537,-0.774822
1631290339308,-0.14091,0.580781,-0.773175
1631290339318,-0.140727,0.580476,-0.772138
1631290339327,-0.14005599999999999,0.580598,-0.77104
1631290339337,-0.141337,0.580964,-0.770552
1631290339346,-0.14213,0.581208,-0.768478
1631290339356,-0.141764,0.580903,-0.767502
1631290339366,-0.14213,0.579622,-0.767258
1631290339375,-0.141764,0.58011,-0.769088
1631290339385,-0.141093,0.57889,-0.769393
1631290339394,-0.143472,0.578219,-0.768783
1631290339404,-0.14188599999999998,0.577304,-0.771284
1631290339414,-0.141337,0.577121,-0.772565
1631290339423,-0.141154,0.576267,-0.774639
1631290339433,-0.14005599999999999,0.576633,-0.7765299999999999
1631290339442,-0.139446,0.573583,-0.7774449999999999
1631290339452,-0.139263,0.571082,-0.781166
1631290339462,-0.136762,0.566446,-0.786656
1631290339471,-0.135481,0.56547,-0.789706
1631290339481,-0.136213,0.566263,-0.793549
1631290339490,-0.134383,0.564738,-0.797209
1631290339500,-0.13480999999999999,0.564982,-0.800015
1631290339510,-0.135359,0.5641889999999999,-0.804041
1631290339519,-0.134139,0.562603,-0.8075789999999999
1631290339529,-0.13176,0.558516,-0.8106289999999999
1631290339538,-0.131333,0.554307,-0.814167
1631290339548,-0.129686,0.553148,-0.817278
1631290339558,-0.129137,0.550586,-0.819108
1631290339567,-0.129442,0.548512,-0.820999
1631290339577,-0.128771,0.548939,-0.823744
1631290339586,-0.127612,0.550098,-0.825391
1631290339596,-0.1281,0.552843,-0.825147
1631290339606,-0.128405,0.553087,-0.82167
1631290339615,-0.12834399999999999,0.552233,-0.821548
1631290339625,-0.12864899999999999,0.553148,-0.821365
1631290339634,-0.12993,0.553209,-0.819413
1631290339644,-0.129198,0.554002,-0.818071
1631290339654,-0.129442,0.556381,-0.817278
1631290339663,-0.129137,0.557662,-0.816607
1631290339673,-0.12895399999999999,0.558516,-0.8152039999999999
1631290339682,-0.128893,0.558943,-0.8130689999999999
1631290339692,-0.12871,0.55998,-0.8100189999999999
1631290339702,-0.13054,0.559187,-0.805261
1631290339711,-0.130662,0.560468,-0.802577
1631290339721,-0.130967,0.561871,-0.800503
1631290339730,-0.131638,0.5626639999999999,-0.79666
1631290339740,-0.131394,0.5632739999999999,-0.794769
1631290339750,-0.13078399999999998,0.565348,-0.792512
1631290339759,-0.131272,0.566568,-0.790438
1631290339769,-0.133041,0.568398,-0.787144
1631290339778,-0.133773,0.57035,-0.784521
1631290339788,-0.133224,0.570533,-0.782203
1631290339798,-0.135054,0.5708989999999999,-0.780068
1631290339807,-0.135176,0.571631,-0.779702
1631290339817,-0.135481,0.571448,-0.778543
1631290339826,-0.135542,0.570716,-0.778543
1631290339836,-0.135603,0.5705939999999999,-0.777567
1631290339846,-0.134993,0.57035,-0.7792749999999999
1631290339855,-0.135481,0.570838,-0.781044
1631290339865,-0.134322,0.569496,-0.781044
1631290339874,-0.13419999999999999,0.567971,-0.781898
1631290339884,-0.135481,0.569801,-0.784277
1631290339894,-0.133712,0.56974,-0.788181
1631290339903,-0.132553,0.569923,-0.791109
1631290339913,-0.130967,0.566995,-0.793244
1631290339922,-0.129686,0.5651039999999999,-0.794952
1631290339932,-0.12925899999999999,0.56486,-0.797209
1631290339942,-0.126514,0.563091,-0.800198
1631290339951,-0.127185,0.561078,-0.80093
1631290339961,-0.126392,0.5612,-0.799527
1631290339970,-0.127551,0.560407,-0.7991
1631290339980,-0.127307,0.5632739999999999,-0.800686
1631290339990,-0.127185,0.56059,-0.802333
1631290339999,-0.124928,0.556198,-0.803553
1631290340009,-0.125965,0.553514,-0.804468
1631290340018,-0.125965,0.552782,-0.807091
1631290340028,-0.124074,0.551684,-0.809348
1631290340038,-0.125294,0.55266,-0.8115439999999999
1631290340047,-0.124196,0.551196,-0.81252
1631290340057,-0.124379,0.551013,-0.813923
1631290340066,-0.124623,0.550769,-0.8145939999999999
1631290340076,-0.126636,0.55388,-0.813252
1631290340086,-0.127734,0.55571,-0.813923
1631290340095,-0.127551,0.556259,-0.813313
1631290340105,-0.130296,0.552416,-0.810751
1631290340114,-0.133529,0.551867,-0.811666
1631290340124,-0.134749,0.551562,-0.812032
1631290340134,-0.135359,0.552843,-0.8133739999999999
1631290340143,-0.133712,0.555222,-0.8133739999999999
1631290340153,-0.132736,0.556625,-0.811605
1631290340162,-0.13359,0.557845,-0.809348
1631290340172,-0.132492,0.560651,-0.8097139999999999
1631290340182,-0.133102,0.5626639999999999,-0.8084939999999999
1631290340191,-0.133102,0.5638839999999999,-0.807762
1631290340201,-0.13480999999999999,0.561627,-0.807152
1631290340210,-0.133407,0.557601,-0.806298
1631290340220,-0.133407,0.554185,-0.805627
1631290340230,-0.13298,0.550342,-0.804773
1631290340239,-0.131516,0.546926,-0.804895
1631290340249,-0.129808,0.545828,-0.803736
1631290340258,-0.12834399999999999,0.546499,-0.804102
1631290340268,-0.125355,0.5465599999999999,-0.804956
1631290340278,-0.122,0.5444249999999999,-0.805993
1631290340287,-0.11992599999999999,0.538874,-0.807762
1631290340297,-0.116937,0.53375,-0.812215
1631290340306,-0.114375,0.533079,-0.817217
1631290340316,-0.11284999999999999,0.531737,-0.820145
1631290340326,-0.109678,0.526308,-0.823927
1631290340335,-0.106445,0.5213059999999999,-0.82655
1631290340345,-0.10248,0.520879,-0.830942
1631290340354,-0.09851499999999999,0.521489,-0.8331379999999999
1631290340364,-0.096258,0.525881,-0.8337479999999999
1631290340374,-0.093879,0.529297,-0.83448
1631290340383,-0.090524,0.530334,-0.8367979999999999
1631290340393,-0.087779,0.530212,-0.8358829999999999
1631290340402,-0.088389,0.528382,-0.837225
1631290340412,-0.085461,0.523624,-0.842288
1631290340422,-0.080703,0.518012,-0.845765
1631290340431,-0.073993,0.5127659999999999,-0.846375
1631290340441,-0.065941,0.508069,-0.845338
1631290340450,-0.056791,0.508069,-0.845399
1631290340460,-0.046482,0.505324,-0.847839
1631290340470,-0.03904,0.500322,-0.846558
1631290340479,-0.037149,0.492697,-0.844728
1631290340489,-0.033977,0.486597,-0.843264
1631290340498,-0.030987999999999998,0.486658,-0.842593
1631290340508,-0.026108,0.486719,-0.846375
1631290340518,-0.015982,0.49166,-0.854976
1631290340527,-0.007991,0.493673,-0.866383
1631290340537,0.002745,0.49458799999999997,-0.881389
1631290340546,0.013969,0.491355,-0.8882209999999999
1631290340556,0.019581,0.48440099999999997,-0.892735
1631290340566,0.022631,0.47817899999999997,-0.890783
1631290340575,0.025986,0.470737,-0.8882209999999999
1631290340585,0.029158,0.463234,-0.884134
1631290340594,0.031598,0.461526,-0.8839509999999999
1631290340604,0.033672,0.45811,-0.880718
1631290340614,0.035685,0.452132,-0.876143
1631290340623,0.040809,0.44834999999999997,-0.8732759999999999
1631290340633,0.048373,0.449143,-0.871995
1631290340642,0.055815,0.450607,-0.873093
1631290340652,0.061793,0.450424,-0.870287
1631290340662,0.067832,0.453047,-0.867908
1631290340671,0.069662,0.454816,-0.867237
1631290340681,0.07063799999999999,0.456402,-0.867542
1631290340690,0.068442,0.456646,-0.866139
1631290340700,0.066124,0.456524,-0.862174
1631290340710,0.066185,0.457866,-0.862296
1631290340719,0.063684,0.46219699999999997,-0.86071
1631290340729,0.062037,0.466955,-0.8577819999999999
1631290340738,0.058072,0.46726,-0.852048
1631290340748,0.054107,0.46909,-0.8498519999999999
1631290340758,0.052826,0.472201,-0.850035
1631290340767,0.050386,0.473177,-0.84851
1631290340777,0.046421,0.473482,-0.845643
1631290340786,0.0427,0.47031,-0.844911
1631290340796,0.041479999999999996,0.46616199999999997,-0.847595
1631290340806,0.039406,0.459513,-0.84912
1631290340815,0.038551999999999996,0.45536499999999996,-0.851133
1631290340825,0.034953,0.452803,-0.8538169999999999
1631290340834,0.031842,0.452498,-0.859734
1631290340844,0.030987999999999998,0.455731,-0.863638
1631290340854,0.027572,0.459879,-0.8651019999999999
1631290340863,0.024095,0.463234,-0.866871
1631290340873,0.021411,0.463478,-0.864065
1631290340882,0.017019,0.46341699999999997,-0.860283
1631290340892,0.01464,0.46116,-0.859063
1631290340902,0.010858,0.459208,-0.85949
1631290340911,0.010553,0.457866,-0.86498
1631290340921,0.008296,0.455426,-0.865956
1631290340930,0.0071979999999999995,0.450851,-0.868518
1631290340940,0.006588,0.44926499999999997,-0.875472
1631290340950,0.006222,0.450058,-0.8805959999999999
1631290340959,0.0050019999999999995,0.45414499999999997,-0.883707
1631290340969,0.002196,0.456341,-0.88511
1631290340978,-0.0015249999999999999,0.453169,-0.882609
1631290340988,-0.006222,0.450607,-0.876509
1631290340998,-0.012078,0.453047,-0.878522
1631290341007,-0.013176,0.456036,-0.8812059999999999
1631290341017,-0.01525,0.453779,-0.878827
1631290341026,-0.01647,0.45109499999999997,-0.874862
1631290341036,-0.017263,0.446032,-0.8714459999999999
1631290341046,-0.019154,0.443409,-0.872605
1631290341055,-0.019154,0.44408,-0.874618
1631290341065,-0.020313,0.444507,-0.876692
1631290341074,-0.019886,0.447557,-0.878705
1631290341084,-0.020191,0.451949,-0.87596
1631290341094,-0.021777,0.452559,-0.87352
1631290341103,-0.02623,0.457683,-0.876448
1631290341113,-0.027816,0.46604,-0.8812059999999999
1631290341122,-0.028304,0.470005,-0.880047
1631290341132,-0.030866,0.47153,-0.8729709999999999
1631290341142,-0.032085999999999996,0.470066,-0.865712
1631290341151,-0.035197,0.470249,-0.865956
1631290341161,-0.033184,0.472933,-0.871385
1631290341170,-0.031598,0.471652,-0.872117
1631290341180,-0.034038,0.474275,-0.8705309999999999
1631290341190,-0.036722,0.476776,-0.870043
1631290341199,-0.036782999999999996,0.482144,-0.87352
1631290341209,-0.036905,0.48836599999999997,-0.876814
1631290341218,-0.030622,0.488488,-0.875533
1631290341228,-0.033062,0.487207,-0.869677
1631290341238,-0.03477,0.485987,-0.868091
1631290341247,-0.037576,0.485682,-0.86803
1631290341257,-0.032452,0.477813,-0.86864
1631290341266,-0.034343,0.473665,-0.867542
1631290341276,-0.033977,0.469334,-0.865346
1631290341286,-0.035075,0.46494199999999997,-0.864736
1631290341295,-0.035502,0.46433199999999997,-0.866627
1631290341305,-0.036356,0.466894,-0.872544
1631290341314,-0.033916,0.470798,-0.877912
1631290341324,-0.034343,0.472262,-0.879315
1631290341334,-0.036234,0.47207899999999997,-0.875899
1631290341343,-0.03843,0.473787,-0.87291
1631290341353,-0.03904,0.475007,-0.8708359999999999
1631290341362,-0.039162,0.475556,-0.869128
1631290341372,-0.038613,0.470676,-0.86315
1631290341382,-0.039589,0.46768699999999996,-0.854793
1631290341391,-0.041541,0.468358,-0.853573
1631290341401,-0.040931,0.467748,-0.852841
1631290341410,-0.038491,0.469273,-0.855281
1631290341420,-0.035929,0.47031,-0.854183
1631290341430,-0.03538,0.470493,-0.8519869999999999
1631290341439,-0.035441,0.470554,-0.852658
1631290341449,-0.034526,0.470737,-0.8571719999999999
1631290341458,-0.032818,0.470798,-0.861808
1631290341468,-0.03294,0.474946,-0.865956
1631290341478,-0.033428,0.478362,-0.8702259999999999
1631290341487,-0.034526,0.482083,-0.871995
1631290341497,-0.036417,0.48562099999999997,-0.871629
1631290341506,-0.036844,0.49019599999999997,-0.870775
1631290341516,-0.038064,0.493002,-0.868396
1631290341526,-0.038735,0.49294099999999996,-0.864126
1631290341535,-0.041053,0.490013,-0.8611369999999999
1631290341545,-0.041663,0.486719,-0.861076
1631290341554,-0.042212,0.48409599999999997,-0.863638
1631290341564,-0.041479999999999996,0.482754,-0.865529
1631290341574,-0.042883,0.48287599999999997,-0.86498
1631290341583,-0.045994,0.481534,-0.863333
1631290341593,-0.046848,0.48031399999999996,-0.86071
1631290341602,-0.047214,0.480497,-0.8571719999999999
1631290341612,-0.047214,0.482083,-0.8550369999999999
1631290341622,-0.048556,0.482937,-0.8516819999999999
1631290341631,-0.050386,0.482754,-0.8489369999999999
1631290341641,-0.051727999999999996,0.484645,-0.844423
1631290341650,-0.052704,0.484584,-0.843752
1631290341660,-0.05063,0.482937,-0.845094
1631290341670,-0.048922,0.481839,-0.8483269999999999
1631290341679,-0.048068,0.48061899999999996,-0.848815
1631290341689,-0.046909,0.47848399999999996,-0.852231
1631290341698,-0.044164,0.47939899999999996,-0.8550369999999999
1631290341708,-0.044286,0.48318099999999997,-0.858941
1631290341718,-0.04453,0.486597,-0.8602219999999999
1631290341727,-0.045018,0.485438,-0.860954
1631290341737,-0.046665,0.487085,-0.8601
1631290341746,-0.048556,0.48653599999999997,-0.8583919999999999
1631290341756,-0.049654,0.48928099999999997,-0.8590019999999999
1631290341766,-0.048617,0.488854,-0.8601
1631290341775,-0.045628,0.48806099999999997,-0.860893
1631290341785,-0.044042,0.48617,-0.8614419999999999
1631290341794,-0.042578,0.48440099999999997,-0.858453
1631290341804,-0.040626,0.482144,-0.856135
1631290341814,-0.041724,0.480741,-0.853024
1631290341823,-0.041297,0.480131,-0.850035
1631290341833,-0.041479999999999996,0.481412,-0.846863
1631290341842,-0.041968,0.485499,-0.846253
1631290341852,-0.042638999999999996,0.487573,-0.845765
1631290341862,-0.045262,0.489708,-0.845826
1631290341871,-0.046299,0.49111099999999996,-0.846131
1631290341881,-0.047885,0.491477,-0.848083
1631290341890,-0.049104999999999996,0.493795,-0.8492419999999999
1631290341900,-0.050386,0.496296,-0.8516819999999999
1631290341910,-0.051118,0.500078,-0.8522919999999999
1631290341919,-0.053985,0.502213,-0.8535119999999999
1631290341929,-0.056303,0.503128,-0.853634
1631290341938,-0.059047999999999996,0.50081,-0.8538169999999999
1631290341948,-0.062280999999999996,0.50264,-0.853634
1631290341958,-0.06478199999999999,0.502152,-0.850645
1631290341967,-0.069113,0.502579,-0.848998
1631290341977,-0.07137,0.506422,-0.851743
1631290341986,-0.070089,0.51118,-0.8507669999999999
1631290341996,-0.069235,0.518805,-0.847046
1631290342006,-0.067222,0.521733,-0.839726
1631290342015,-0.067039,0.525393,-0.8285629999999999
1631290342025,-0.069906,0.529602,-0.820877
1631290342034,-0.075335,0.533933,-0.820755
1631290342044,-0.078568,0.537044,-0.82472
1631290342054,-0.082533,0.534421,-0.829966
1631290342063,-0.08619299999999999,0.532713,-0.831979
1631290342073,-0.089182,0.527162,-0.83326
1631290342082,-0.091866,0.522953,-0.836127
1631290342092,-0.090768,0.517768,-0.83814
1631290342102,-0.08845,0.515572,-0.8407629999999999
1631290342111,-0.087108,0.515572,-0.844972
1631290342121,-0.085644,0.5152059999999999,-0.846253
1631290342130,-0.082838,0.514535,-0.847046
1631290342140,-0.080825,0.515145,-0.8479
1631290342150,-0.080947,0.516975,-0.846985
1631290342159,-0.079605,0.52216,-0.8477169999999999
1631290342169,-0.078385,0.526064,-0.844057
1631290342178,-0.078568,0.523075,-0.838689
1631290342188,-0.077775,0.518988,-0.8322229999999999
1631290342198,-0.078324,0.516487,-0.829661
1631290342207,-0.07808,0.516182,-0.829844
1631290342217,-0.075518,0.511607,-0.830881
1631290342226,-0.072712,0.508618,-0.827831
1631290342236,-0.074359,0.505568,-0.824232
1631290342246,-0.073993,0.506422,-0.82533
1631290342255,-0.073932,0.505568,-0.82472
1631290342265,-0.074786,0.508008,-0.822951
1631290342274,-0.075152,0.510204,-0.820877
1631290342284,-0.077043,0.514352,-0.820816
1631290342294,-0.080459,0.519354,-0.820572
1631290342303,-0.082899,0.523685,-0.8221579999999999
1631290342313,-0.085339,0.526674,-0.821182
1631290342322,-0.088389,0.525271,-0.819779
1631290342332,-0.090036,0.523075,-0.823744
1631290342342,-0.08973099999999999,0.520757,-0.8282579999999999
1631290342351,-0.091378,0.521855,-0.83082
1631290342361,-0.093025,0.5213059999999999,-0.831979
1631290342370,-0.09516,0.523868,-0.833931
1631290342380,-0.097478,0.528138,-0.836432
1631290342390,-0.097661,0.529541,-0.837591
1631290342399,-0.098576,0.528443,-0.8349679999999999
1631290342409,-0.099613,0.528138,-0.832772
1631290342418,-0.102358,0.528443,-0.829844
1631290342428,-0.100894,0.525088,-0.828624
1631290342438,-0.101626,0.5231359999999999,-0.828075
1631290342447,-0.099552,0.522038,-0.82899
1631290342457,-0.09991799999999999,0.520818,-0.8267329999999999
1631290342466,-0.10144299999999999,0.522099,-0.8242929999999999
1631290342476,-0.10431,0.527528,-0.820328
1631290342486,-0.10607899999999999,0.529968,-0.819413
1631290342495,-0.107177,0.534787,-0.8249029999999999
1631290342505,-0.103517,0.536068,-0.828136
1631290342514,-0.1037,0.534726,-0.8279529999999999
1631290342524,-0.102785,0.532469,-0.8264279999999999
1631290342534,-0.10174799999999999,0.531554,-0.8239879999999999
1631290342543,-0.103212,0.530822,-0.823622
1631290342553,-0.101992,0.534421,-0.825452
1631290342562,-0.098088,0.5361899999999999,-0.827892
1631290342572,-0.096807,0.533628,-0.8264279999999999
1631290342582,-0.095404,0.531371,-0.822646
1631290342591,-0.100589,0.538508,-0.822036
1631290342601,-0.10174799999999999,0.538508,-0.818986
1631290342610,-0.098942,0.530944,-0.813313
1631290342620,-0.095648,0.526186,-0.8124589999999999
1631290342630,-0.095526,0.522343,-0.8148989999999999
1631290342639,-0.09577,0.5200859999999999,-0.8164239999999999
1631290342649,-0.096319,0.520757,-0.819962
1631290342658,-0.092903,0.520574,-0.821426
1631290342668,-0.093086,0.521733,-0.824171
1631290342678,-0.093513,0.529724,-0.825757
1631290342687,-0.095831,0.536312,-0.82594
1631290342697,-0.09698999999999999,0.5386299999999999,-0.825879
1631290342706,-0.096868,0.538508,-0.828807
1631290342716,-0.095099,0.536373,-0.830271
1631290342726,-0.095465,0.535458,-0.830332
1631290342735,-0.094916,0.536861,-0.832406
1631290342745,-0.094306,0.5380199999999999,-0.833687
1631290342754,-0.095648,0.540277,-0.835822
1631290342764,-0.096258,0.543083,-0.83753
1631290342774,-0.095221,0.544242,-0.838811
1631290342783,-0.093818,0.542046,-0.8377129999999999
1631290342793,-0.09235399999999999,0.541192,-0.836859
1631290342802,-0.092842,0.543693,-0.833809
1631290342812,-0.091866,0.546499,-0.828624
1631290342822,-0.092232,0.547902,-0.823012
1631290342831,-0.091378,0.551501,-0.819413
1631290342841,-0.090646,0.552904,-0.816485
1631290342850,-0.090707,0.554856,-0.811361
1631290342860,-0.092293,0.553697,-0.8051389999999999
1631290342870,-0.092903,0.55266,-0.79849
1631290342879,-0.092171,0.549854,-0.796538
1631290342889,-0.08973099999999999,0.549732,-0.794952
1631290342898,-0.084546,0.549244,-0.795684
1631290342908,-0.082106,0.549244,-0.798063
1631290342918,-0.08064199999999999,0.547414,-0.801723
1631290342927,-0.078141,0.546438,-0.803675
1631290342937,-0.078141,0.5441199999999999,-0.804407
1631290342946,-0.0793,0.542473,-0.806237
1631290342956,-0.078629,0.540338,-0.806481
1631290342966,-0.079361,0.539606,-0.806786
1631290342975,-0.078812,0.540826,-0.807335
1631290342985,-0.07972699999999999,0.5410699999999999,-0.808982
1631290342994,-0.08204499999999999,0.543449,-0.811117
1631290343004,-0.083997,0.545279,-0.813618
1631290343014,-0.085949,0.546743,-0.8130689999999999
1631290343023,-0.08820599999999999,0.548329,-0.812093
1631290343033,-0.091195,0.552782,-0.8121539999999999
1631290343042,-0.093147,0.557418,-0.812642
1631290343052,-0.093757,0.56181,-0.8103239999999999
1631290343062,-0.096502,0.565226,-0.80825
1631290343071,-0.09759999999999999,0.570167,-0.80825
1631290343081,-0.098332,0.574681,-0.80764
1631290343090,-0.100467,0.577304,-0.8048339999999999
1631290343100,-0.102907,0.580354,-0.804407
1631290343110,-0.102358,0.579134,-0.802638
1631290343119,-0.10126,0.579683,-0.8017839999999999
1631290343129,-0.100467,0.576999,-0.800198
1631290343138,-0.099979,0.573095,-0.797392
1631290343148,-0.10205299999999999,0.570655,-0.795074
1631290343158,-0.102602,0.5687639999999999,-0.793122
1631290343167,-0.104554,0.56913,-0.7893399999999999
1631290343177,-0.107116,0.569618,-0.787144
1631290343186,-0.109068,0.567971,-0.7875099999999999
1631290343196,-0.11193499999999999,0.564555,-0.7862899999999999
1631290343206,-0.113216,0.5620539999999999,-0.7878149999999999
1631290343215,-0.114192,0.5612,-0.790499
1631290343225,-0.116327,0.560651,-0.791658
1631290343234,-0.117669,0.562298,-0.79483
1631290343244,-0.11870599999999999,0.562786,-0.797453
1631290343254,-0.11962099999999999,0.563457,-0.798063
1631290343263,-0.121573,0.5660189999999999,-0.798307
1631290343273,-0.122,0.567727,-0.800686
1631290343282,-0.12383,0.568825,-0.802333
1631290343292,-0.125782,0.5727289999999999,-0.805932
1631290343302,-0.125782,0.573888,-0.808616
1631290343311,-0.123464,0.573278,-0.810141
1631290343321,-0.124501,0.572912,-0.8087989999999999
1631290343330,-0.125782,0.571387,-0.807762
1631290343340,-0.124745,0.5702889999999999,-0.805322
1631290343350,-0.126453,0.569496,-0.804407
1631290343359,-0.125843,0.569008,-0.802577
1631290343369,-0.126087,0.565287,-0.799588
1631290343378,-0.127063,0.562603,-0.797819
1631290343388,-0.125904,0.55937,-0.797148
1631290343398,-0.126392,0.556503,-0.795562
1631290343407,-0.125904,0.553026,-0.795806
1631290343417,-0.12505,0.55022,-0.79605
1631290343426,-0.123708,0.549,-0.796721
1631290343436,-0.12224399999999999,0.549976,-0.797453
1631290343446,-0.120902,0.552477,-0.800381
1631290343455,-0.119682,0.5551,-0.8033089999999999
1631290343465,-0.119072,0.556808,-0.8054439999999999
1631290343474,-0.119804,0.558821,-0.808311
1631290343484,-0.119804,0.5608339999999999,-0.810202
1631290343494,-0.120658,0.561383,-0.814533
1631290343503,-0.121085,0.5605289999999999,-0.817705
1631290343513,-0.122732,0.560407,-0.817156
1631290343522,-0.12285399999999999,0.559492,-0.818132
1631290343532,-0.121146,0.555832,-0.819657
1631290343542,-0.119438,0.551013,-0.821121
1631290343551,-0.118035,0.547902,-0.822402
1631290343561,-0.11638799999999999,0.544669,-0.8224629999999999
1631290343570,-0.115046,0.542046,-0.822524
1631290343580,-0.11406999999999999,0.540948,-0.8255129999999999
1631290343590,-0.111996,0.538874,-0.8270379999999999
1631290343599,-0.111203,0.5377149999999999,-0.823927
1631290343609,-0.109434,0.535275,-0.818925
1631290343618,-0.11163,0.532347,-0.8155089999999999
1631290343628,-0.11284999999999999,0.530639,-0.814167
1631290343638,-0.115107,0.529114,-0.813435
1631290343647,-0.113948,0.529297,-0.812398
1631290343657,-0.111752,0.53192,-0.81191
1631290343666,-0.109556,0.535519,-0.816485
1631290343676,-0.10790899999999999,0.534909,-0.822524
1631290343686,-0.106628,0.532469,-0.825635
1631290343695,-0.107116,0.526186,-0.825635
1631290343705,-0.107726,0.522282,-0.830332
1631290343714,-0.106445,0.520025,-0.8328329999999999
1631290343724,-0.106628,0.5173409999999999,-0.831064
1631290343734,-0.108397,0.51972,-0.826794
1631290343743,-0.113338,0.532652,-0.81984
1631290343753,-0.107543,0.522892,-0.822219
1631290343762,-0.10614,0.521245,-0.822646
1631290343772,-0.109251,0.523197,-0.821914
1631290343782,-0.112606,0.526247,-0.823805
1631290343791,-0.110898,0.525759,-0.826001
1631290343801,-0.112789,0.526308,-0.82411
1631290343810,-0.115046,0.523624,-0.819413
1631290343820,-0.11638799999999999,0.523258,-0.820694
1631290343830,-0.11699799999999999,0.52399,-0.822341
1631290343839,-0.12102399999999999,0.527894,-0.821731
1631290343849,-0.121268,0.52948,-0.82228
1631290343858,-0.12383,0.532774,-0.823805
1631290343868,-0.12932,0.536861,-0.820938
1631290343878,-0.133041,0.541558,-0.8174
1631290343887,-0.134566,0.543998,-0.815265
1631290343897,-0.13237,0.546621,-0.820206
1631290343906,-0.129442,0.548573,-0.823012
1631290343916,-0.125477,0.549976,-0.8236829999999999
1631290343926,-0.123525,0.545706,-0.8161189999999999
1631290343935,-0.124379,0.541314,-0.8106289999999999
1631290343945,-0.121756,0.542412,-0.812276
1631290343954,-0.118035,0.543388,-0.818254
1631290343964,-0.116937,0.549549,-0.821853
1631290343974,-0.118462,0.550952,-0.819169
1631290343983,-0.114802,0.548024,-0.820572
1631290343993,-0.111508,0.542717,-0.824232
1631290344002,-0.108702,0.536739,-0.8227679999999999
1631290344012,-0.102236,0.520818,-0.825452
1631290344022,-0.098027,0.51179,-0.8331379999999999
1631290344031,-0.095526,0.50386,-0.829356
1631290344041,-0.10004,0.501786,-0.826611
1631290344050,-0.103822,0.500688,-0.8252079999999999
1631290344060,-0.105835,0.499895,-0.823622
1631290344070,-0.105713,0.499529,-0.821731
1631290344079,-0.105225,0.500993,-0.820938
1631290344089,-0.105286,0.508496,-0.820694
1631290344098,-0.104005,0.5142909999999999,-0.821548
1631290344108,-0.105164,0.521062,-0.820633
1631290344118,-0.104859,0.533872,-0.819657
1631290344127,-0.108641,0.538203,-0.817461
1631290344137,-0.115229,0.5389349999999999,-0.812825
1631290344146,-0.119804,0.538874,-0.8106289999999999
1631290344156,-0.122183,0.537776,-0.8112389999999999
1631290344166,-0.125111,0.537959,-0.812886
1631290344175,-0.126758,0.540216,-0.815448
1631290344185,-0.12956399999999998,0.5407649999999999,-0.815387
1631290344194,-0.131455,0.539057,-0.815936
1631290344204,-0.128588,0.539484,-0.818803
1631290344214,-0.123586,0.536434,-0.8233779999999999
1631290344223,-0.12102399999999999,0.533506,-0.826672
1631290344233,-0.118828,0.532286,-0.8306979999999999
1631290344242,-0.119255,0.531493,-0.833382
1631290344252,-0.115839,0.529358,-0.838262
1631290344262,-0.113948,0.52948,-0.841617
1631290344271,-0.112362,0.528748,-0.844179
1631290344281,-0.110593,0.527345,-0.843508
1631290344290,-0.108397,0.523319,-0.845521
1631290344300,-0.106445,0.516365,-0.847473
1631290344310,-0.105286,0.509045,-0.847229
1631290344319,-0.105652,0.500444,-0.846924
1631290344329,-0.103639,0.491599,-0.848388
1631290344338,-0.10083299999999999,0.484767,-0.851438
1631290344348,-0.09820999999999999,0.481839,-0.851804
1631290344358,-0.098454,0.481595,-0.8513769999999999
1631290344367,-0.098637,0.483242,-0.848754
1631290344377,-0.10083299999999999,0.486475,-0.8461919999999999
1631290344386,-0.101504,0.48861,-0.844301
1631290344396,-0.10144299999999999,0.491172,-0.841129
1631290344406,-0.103517,0.48983,-0.839909
1631290344415,-0.106018,0.488122,-0.840031
1631290344425,-0.107482,0.486475,-0.8404579999999999
1631290344434,-0.106872,0.48409599999999997,-0.84241
1631290344444,-0.108275,0.48470599999999997,-0.843874
1631290344454,-0.10992199999999999,0.485377,-0.845582
1631290344463,-0.111508,0.48592599999999997,-0.844728
1631290344473,-0.113948,0.485987,-0.845643
1631290344482,-0.116022,0.486597,-0.848449
1631290344492,-0.12023099999999999,0.488305,-0.850096
1631290344502,-0.122793,0.489098,-0.849608
1631290344511,-0.126697,0.493124,-0.848266
1631290344521,-0.129503,0.49776,-0.850218
1631290344530,-0.127795,0.502152,-0.852414
1631290344540,-0.12688,0.50386,-0.854244
1631290344550,-0.125355,0.502762,-0.855769
1631290344559,-0.126331,0.50081,-0.8565619999999999
1631290344569,-0.125294,0.49763799999999997,-0.8568669999999999
1631290344578,-0.126087,0.495869,-0.85644
1631290344588,-0.12956399999999998,0.49202599999999996,-0.8544269999999999
1631290344598,-0.131272,0.489708,-0.850401
1631290344607,-0.132919,0.488854,-0.8479
1631290344617,-0.134688,0.48922,-0.844179
1631290344626,-0.13663999999999998,0.490318,-0.840702
1631290344636,-0.138653,0.493978,-0.839421
1631290344646,-0.140483,0.498187,-0.839421
1631290344655,-0.140544,0.49977299999999997,-0.839726
1631290344665,-0.142862,0.502457,-0.838445
1631290344674,-0.144143,0.506422,-0.837042
1631290344684,-0.144753,0.510082,-0.8364929999999999
1631290344694,-0.1464,0.5124609999999999,-0.833992
1631290344703,-0.146156,0.515267,-0.8319179999999999
1631290344713,-0.14865699999999998,0.5188659999999999,-0.83082
1631290344722,-0.14774199999999998,0.520025,-0.8276479999999999
1631290344732,-0.146034,0.5216109999999999,-0.826001
1631290344742,-0.145912,0.519842,-0.82472
1631290344751,-0.144814,0.5216109999999999,-0.824659
1631290344761,-0.143045,0.522038,-0.8236829999999999
1631290344770,-0.144692,0.525088,-0.821548
1631290344780,-0.14280099999999998,0.528199,-0.820084
1631290344790,-0.14274,0.531127,-0.817339
1631290344799,-0.143533,0.531249,-0.814716
1631290344809,-0.141337,0.53131,-0.812886
1631290344818,-0.13908,0.531371,-0.812581
1631290344828,-0.136213,0.526552,-0.811483
1631290344838,-0.136152,0.5222209999999999,-0.810263
1631290344847,-0.137128,0.526064,-0.808921
1631290344857,-0.13725,0.530639,-0.810202
1631290344866,-0.141337,0.543144,-0.809226
1631290344876,-0.143167,0.530883,-0.807335
1631290344886,-0.148291,0.537288,-0.80764
1631290344895,-0.147193,0.540338,-0.8103239999999999
1631290344905,-0.142618,0.541802,-0.817888
1631290344914,-0.140239,0.539667,-0.821243
1631290344924,-0.141032,0.536739,-0.8227679999999999
1631290344934,-0.14213,0.536434,-0.823622
1631290344943,-0.141093,0.5401549999999999,-0.8224629999999999
1631290344953,-0.14036099999999999,0.542168,-0.821365
1631290344962,-0.142069,0.5438149999999999,-0.819718
1631290344972,-0.141703,0.546926,-0.816241
1631290344982,-0.139629,0.546804,-0.817583
1631290344991,-0.138043,0.5474749999999999,-0.816851
1631290345001,-0.138958,0.557967,-0.8118489999999999
1631290345010,-0.145241,0.554612,-0.809165
1631290345020,-0.13419999999999999,0.551684,-0.815326
1631290345030,-0.131028,0.548695,-0.814472
1631290345039,-0.133041,0.548939,-0.810873
1631290345049,-0.133163,0.551501,-0.8091039999999999
1631290345058,-0.133529,0.550647,-0.808555
1631290345068,-0.137067,0.55083,-0.803431
1631290345078,-0.137738,0.550647,-0.801418
1631290345087,-0.137006,0.550342,-0.8014789999999999
1631290345097,-0.138897,0.552111,-0.799893
1631290345106,-0.139507,0.554002,-0.798246
1631290345116,-0.139446,0.556686,-0.797331
1631290345126,-0.140483,0.557113,-0.797209
1631290345135,-0.140849,0.557967,-0.795135
1631290345145,-0.142923,0.558455,-0.793793
1631290345154,-0.145119,0.56181,-0.791902
1631290345164,-0.146156,0.564677,-0.790926
1631290345174,-0.14701,0.566873,-0.789706
1631290345183,-0.149572,0.568215,-0.787998
1631290345193,-0.15006,0.565653,-0.7859849999999999
1631290345202,-0.151463,0.56547,-0.784338
1631290345212,-0.151097,0.566507,-0.787083
1631290345222,-0.149389,0.569618,-0.790194
1631290345231,-0.14835199999999998,0.569557,-0.790377
1631290345241,-0.150304,0.572607,-0.790316
1631290345250,-0.150426,0.574193,-0.789889
1631290345260,-0.153049,0.57584,-0.785009
1631290345270,-0.153659,0.578829,-0.784338
1631290345279,-0.153354,0.578524,-0.784521
1631290345289,-0.153232,0.575108,-0.784216
1631290345298,-0.153171,0.5721189999999999,-0.785558
1631290345308,-0.153049,0.569862,-0.788303
1631290345318,-0.15420799999999998,0.5681539999999999,-0.789096
1631290345327,-0.15555,0.5657139999999999,-0.793366
1631290345337,-0.15823399999999999,0.564433,-0.798307
1631290345346,-0.159271,0.566202,-0.798307
1631290345356,-0.161101,0.5696789999999999,-0.798856
1631290345366,-0.162382,0.573522,-0.798124
1631290345375,-0.162565,0.577853,-0.796904
1631290345385,-0.161711,0.578219,-0.794037
1631290345394,-0.160552,0.580781,-0.793122
1631290345404,-0.160918,0.581757,-0.7917799999999999
1631290345414,-0.160796,0.580964,-0.789096
1631290345423,-0.15982,0.58194,-0.788059
1631290345433,-0.161162,0.582123,-0.7850699999999999
1631290345442,-0.161162,0.58072,-0.782996
1631290345452,-0.16006399999999998,0.580354,-0.779641
1631290345462,-0.15914899999999998,0.582001,-0.7795799999999999
1631290345471,-0.160186,0.583587,-0.7768349999999999
1631290345481,-0.158905,0.5845629999999999,-0.774029
1631290345490,-0.15853899999999999,0.584197,-0.770857
1631290345500,-0.160308,0.588284,-0.768112
1631290345510,-0.161772,0.591517,-0.7662209999999999
1631290345519,-0.16226,0.594872,-0.7640859999999999
1631290345529,-0.164273,0.593774,-0.7631709999999999
1631290345538,-0.165676,0.591151,-0.761585
1631290345548,-0.164944,0.58621,-0.7613409999999999
1631290345558,-0.16408999999999999,0.5845629999999999,-0.7619509999999999
1631290345567,-0.165554,0.5885279999999999,-0.760853
1631290345577,-0.16591999999999998,0.593774,-0.760243
1631290345586,-0.167994,0.596031,-0.7601209999999999
1631290345596,-0.170495,0.594994,-0.759145
1631290345606,-0.16958,0.5961529999999999,-0.761158
1631290345615,-0.173118,0.5915779999999999,-0.756644
1631290345625,-0.174033,0.5909679999999999,-0.754692
1631290345634,-0.173667,0.596092,-0.7598159999999999
1631290345644,-0.174033,0.5891379999999999,-0.7592059999999999
1631290345654,-0.174216,0.589016,-0.759938
1631290345663,-0.173911,0.592859,-0.760792
1631290345673,-0.174582,0.593286,-0.763842
1631290345682,-0.175558,0.593652,-0.766038
1631290345692,-0.178425,0.594384,-0.766587
1631290345702,-0.175924,0.5921879999999999,-0.771162
1631290345711,-0.17812,0.5900529999999999,-0.771223
1631290345721,-0.177388,0.58987,-0.775371
1631290345730,-0.177388,0.587796,-0.776347
1631290345740,-0.179401,0.584807,-0.77287
1631290345750,-0.176168,0.583404,-0.775371
1631290345759,-0.179096,0.58255,-0.772321
1631290345769,-0.177144,0.583404,-0.7786649999999999
1631290345778,-0.176961,0.58499,-0.781166
1631290345788,-0.178181,0.585722,-0.7804949999999999
1631290345798,-0.175741,0.58438,-0.782447
1631290345807,-0.180316,0.585417,-0.777994
1631290345817,-0.18117,0.584319,-0.779397
1631290345826,-0.184342,0.584746,-0.777384
1631290345836,-0.185562,0.583343,-0.774456
1631290345846,-0.186599,0.582489,-0.770979
1631290345855,-0.186538,0.582916,-0.771467
1631290345865,-0.18531799999999998,0.582428,-0.774029
1631290345874,-0.18361,0.58316,-0.776713
1631290345884,-0.18422,0.58316,-0.776957
1631290345894,-0.186111,0.582611,-0.7768349999999999
1631290345903,-0.187392,0.581208,-0.7759199999999999
1631290345913,-0.18727,0.581025,-0.776896
1631290345922,-0.187941,0.578158,-0.776347
1631290345932,-0.186782,0.577365,-0.776164
1631290345942,-0.186599,0.577243,-0.776286
1631290345951,-0.187636,0.5795,-0.774761
1631290345961,-0.188856,0.580659,-0.773602
1631290345970,-0.18964899999999998,0.580781,-0.773846
1631290345980,-0.189466,0.581635,-0.773053
1631290345990,-0.19086899999999998,0.580293,-0.772138
1631290345999,-0.19147899999999998,0.579256,-0.771772
1631290346009,-0.193431,0.577914,-0.771284
1631290346018,-0.19367499999999999,0.578951,-0.770918
1631290346028,-0.195688,0.579744,-0.771833
1631290346038,-0.195139,0.580964,-0.771406
1631290346047,-0.19458999999999999,0.581635,-0.770857
1631290346057,-0.194529,0.581086,-0.770735
1631290346066,-0.195139,0.580476,-0.769698
1631290346076,-0.19489499999999998,0.579561,-0.768051
1631290346086,-0.196298,0.579073,-0.765794
1631290346095,-0.196969,0.581086,-0.768173
1631290346105,-0.19519999999999998,0.581025,-0.769515
1631290346114,-0.195139,0.579439,-0.769027
1631290346124,-0.194468,0.578402,-0.77104
1631290346134,-0.19337,0.577609,-0.77287
1631290346143,-0.191052,0.57401,-0.775249
1631290346153,-0.188063,0.570533,-0.776957
1631290346162,-0.187209,0.569496,-0.778848
1631290346172,-0.187331,0.5690689999999999,-0.780678
1631290346182,-0.187148,0.570472,-0.784338
1631290346191,-0.187636,0.5715089999999999,-0.786351
1631290346201,-0.18666,0.5705939999999999,-0.786046
1631290346210,-0.187209,0.570228,-0.786168
1631290346220,-0.187514,0.572302,-0.786778
1631290346230,-0.186721,0.574437,-0.7887299999999999
1631290346239,-0.186416,0.573644,-0.789523
1631290346249,-0.186416,0.572912,-0.789767
1631290346258,-0.186294,0.569557,-0.791109
1631290346268,-0.185196,0.569557,-0.792146
1631290346278,-0.185867,0.5678489999999999,-0.790804
1631290346287,-0.18544,0.566141,-0.7887299999999999
1631290346297,-0.186477,0.5673,-0.786717
1631290346306,-0.18501299999999998,0.567361,-0.7865949999999999
1631290346316,-0.186294,0.5708989999999999,-0.7862899999999999
1631290346326,-0.183305,0.571082,-0.781227
1631290346335,-0.181658,0.567727,-0.780861
1631290346345,-0.181353,0.568215,-0.784948
1631290346354,-0.181353,0.566812,-0.784887
1631290346364,-0.181597,0.5663239999999999,-0.785436
1631290346374,-0.180926,0.563701,-0.7823249999999999
1631290346383,-0.182512,0.563762,-0.780922
1631290346393,-0.183122,0.5673,-0.7820199999999999
1631290346402,-0.184647,0.570411,-0.7792749999999999
1631290346412,-0.185074,0.572058,-0.776774
1631290346422,-0.184891,0.573705,-0.775737
1631290346431,-0.186233,0.569313,-0.7792749999999999
1631290346441,-0.183732,0.569252,-0.784887
1631290346450,-0.183549,0.5657139999999999,-0.786473
1631290346460,-0.183305,0.565775,-0.7856799999999999
1631290346470,-0.181658,0.564982,-0.787632
1631290346479,-0.181048,0.56486,-0.789096
1631290346489,-0.180926,0.564921,-0.788791
1631290346498,-0.181292,0.565226,-0.7881199999999999
1631290346508,-0.181658,0.5651039999999999,-0.7865949999999999
1631290346518,-0.182146,0.566507,-0.785558
1631290346527,-0.183305,0.5678489999999999,-0.784948
1631290346537,-0.182512,0.566446,-0.787266
1631290346546,-0.18318299999999998,0.565043,-0.786351
1631290346556,-0.182817,0.5644939999999999,-0.785131
1631290346566,-0.182512,0.563945,-0.787083
1631290346575,-0.180804,0.562786,-0.788364
1631290346585,-0.180377,0.562603,-0.7893399999999999
1631290346594,-0.180255,0.564738,-0.789401
1631290346604,-0.180987,0.565958,-0.788669
1631290346614,-0.181292,0.567056,-0.787144
1631290346623,-0.18348799999999998,0.5687639999999999,-0.784704
1631290346633,-0.182695,0.56852,-0.783972
1631290346642,-0.18196299999999999,0.569313,-0.784704
1631290346652,-0.182451,0.568276,-0.785131
1631290346662,-0.18178,0.566995,-0.785253
1631290346671,-0.179889,0.5666289999999999,-0.787266
1631290346681,-0.178425,0.567422,-0.788791
1631290346690,-0.178791,0.5669339999999999,-0.7887299999999999
1631290346700,-0.177571,0.565897,-0.7881199999999999
1631290346710,-0.177144,0.56547,-0.786778
1631290346719,-0.177815,0.56608,-0.786046
1631290346729,-0.1769,0.5651039999999999,-0.784521
1631290346738,-0.17854699999999998,0.565165,-0.784826
1631290346748,-0.178486,0.565775,-0.785131
1631290346758,-0.177266,0.565348,-0.785436
1631290346767,-0.17873,0.565287,-0.784948
1631290346777,-0.178425,0.564067,-0.786412
1631290346786,-0.178181,0.56547,-0.7865949999999999
1631290346796,-0.179279,0.565653,-0.7862899999999999
1631290346806,-0.180072,0.567666,-0.789157
1631290346815,-0.179889,0.566812,-0.785314
1631290346825,-0.180682,0.565775,-0.783667
1631290346834,-0.182512,0.566507,-0.783118
1631290346844,-0.182451,0.566202,-0.784277
1631290346854,-0.181658,0.566141,-0.784216
1631290346863,-0.18178,0.5654089999999999,-0.7844599999999999
1631290346873,-0.18226799999999999,0.565226,-0.784521
1631290346882,-0.183976,0.5660189999999999,-0.783972
1631290346892,-0.183732,0.565897,-0.7850699999999999
1631290346902,-0.187148,0.5678489999999999,-0.785863
1631290346911,-0.18971,0.57035,-0.785436
1631290346921,-0.189588,0.5699839999999999,-0.785436
1631290346930,-0.191723,0.568703,-0.784033
1631290346940,-0.19056399999999998,0.567971,-0.784521
1631290346950,-0.190991,0.566995,-0.785131
1631290346959,-0.190503,0.565958,-0.785314
1631290346969,-0.18964899999999998,0.564067,-0.783179
1631290346978,-0.19178399999999998,0.563213,-0.783362
1631290346988,-0.19276,0.56364,-0.785253
1631290346998,-0.193065,0.56486,-0.787022
1631290347007,-0.192699,0.5669339999999999,-0.787388
1631290347017,-0.192821,0.569191,-0.787937
1631290347026,-0.19154,0.570533,-0.7872049999999999
1631290347036,-0.19154,0.570838,-0.789096
1631290347046,-0.191723,0.5687639999999999,-0.788364
1631290347055,-0.191357,0.5666289999999999,-0.788242
1631290347065,-0.192272,0.56425,-0.787388
1631290347074,-0.191662,0.562908,-0.7868999999999999
1631290347084,-0.19154,0.561932,-0.7862899999999999
1631290347094,-0.191601,0.561688,-0.786046
1631290347103,-0.19215,0.561932,-0.785192
1631290347113,-0.192394,0.563945,-0.784094
1631290347122,-0.192211,0.564555,-0.782996
1631290347132,-0.192211,0.5641889999999999,-0.782386
1631290347142,-0.191906,0.56303,-0.783118
1631290347151,-0.19178399999999998,0.561627,-0.783057
1631290347161,-0.19154,0.560712,-0.783667
1631290347170,-0.19178399999999998,0.559858,-0.784704
1631290347180,-0.192089,0.560041,-0.785741
1631290347190,-0.191418,0.560346,-0.785924
1631290347199,-0.192333,0.562237,-0.7865949999999999
1631290347209,-0.192577,0.564616,-0.787449
1631290347218,-0.194163,0.56547,-0.785192
1631290347228,-0.195383,0.564982,-0.782874
1631290347238,-0.193309,0.565043,-0.786046
1631290347247,-0.192882,0.566202,-0.789401
1631290347257,-0.191845,0.564616,-0.791292
1631290347266,-0.19178399999999998,0.564982,-0.789523
1631290347276,-0.19178399999999998,0.565653,-0.789462
1631290347286,-0.191113,0.5657139999999999,-0.789401
1631290347295,-0.190442,0.566263,-0.7884249999999999
1631290347305,-0.188917,0.567483,-0.7875099999999999
1631290347314,-0.188795,0.5673,-0.787083
1631290347324,-0.189893,0.5672389999999999,-0.787266
1631290347334,-0.190198,0.5663239999999999,-0.786839
1631290347343,-0.189222,0.5657139999999999,-0.7878149999999999
1631290347353,-0.18934399999999998,0.5657139999999999,-0.787571
1631290347362,-0.188307,0.564982,-0.7875099999999999
1631290347372,-0.18666,0.5666289999999999,-0.787937
1631290347382,-0.186294,0.567971,-0.788059
1631290347391,-0.18544,0.5678489999999999,-0.7875099999999999
1631290347401,-0.185135,0.5678489999999999,-0.787937
1631290347410,-0.184464,0.567788,-0.787449
1631290347420,-0.184525,0.568825,-0.785192
1631290347430,-0.184525,0.567056,-0.786229
1631290347439,-0.183549,0.567971,-0.786778
1631290347449,-0.181902,0.566385,-0.786839
1631290347458,-0.182695,0.565775,-0.785619
1631290347468,-0.180804,0.5660189999999999,-0.785253
1631290347478,-0.180438,0.5663239999999999,-0.785802
1631290347487,-0.179828,0.567178,-0.785802
1631290347497,-0.17915699999999998,0.568398,-0.785131
1631290347506,-0.179279,0.568093,-0.785436
1631290347516,-0.178608,0.568276,-0.7844599999999999
1631290347526,-0.178913,0.567056,-0.784643
1631290347535,-0.178486,0.567483,-0.783362
1631290347545,-0.178303,0.565592,-0.7826299999999999
1631290347554,-0.177083,0.566385,-0.782874
1631290347564,-0.176168,0.566812,-0.7838499999999999
1631290347574,-0.175619,0.5660189999999999,-0.7835449999999999
1631290347583,-0.175924,0.566507,-0.783606
1631290347593,-0.175619,0.5669339999999999,-0.783484
1631290347602,-0.176839,0.567483,-0.783911
1631290347612,-0.177083,0.567666,-0.782874
1631290347622,-0.177205,0.566995,-0.782813
1631290347631,-0.177083,0.567422,-0.782447
1631290347641,-0.176534,0.566873,-0.7838499999999999
1631290347650,-0.175497,0.566995,-0.784948
1631290347660,-0.17580199999999999,0.566751,-0.787022
1631290347670,-0.175436,0.566812,-0.7865949999999999
1631290347679,-0.176046,0.566385,-0.786107
1631290347689,-0.176778,0.566446,-0.785741
1631290347698,-0.177205,0.5684589999999999,-0.787022
1631290347708,-0.17793699999999998,0.5702889999999999,-0.7865949999999999
1631290347718,-0.177693,0.570533,-0.785802
1631290347727,-0.177998,0.570228,-0.786473
1631290347737,-0.177876,0.569801,-0.786778
1631290347746,-0.176961,0.569557,-0.784887
1631290347756,-0.17854699999999998,0.567605,-0.781837
1631290347766,-0.178913,0.5675439999999999,-0.781532
1631290347775,-0.178608,0.5696789999999999,-0.784887
1631290347785,-0.179279,0.5718139999999999,-0.785436
1631290347794,-0.17873,0.574803,-0.7850699999999999
1631290347804,-0.17873,0.575962,-0.784887
1631290347814,-0.17793699999999998,0.576572,-0.7856799999999999
1631290347823,-0.17793699999999998,0.575352,-0.786412
1631290347833,-0.17793699999999998,0.573888,-0.787327
1631290347842,-0.17793699999999998,0.5721189999999999,-0.786107
1631290347852,-0.17671699999999999,0.571021,-0.787632
1631290347862,-0.177388,0.5712039999999999,-0.787449
1631290347871,-0.17671699999999999,0.571021,-0.786229
1631290347881,-0.177205,0.57096,-0.785131
1631290347890,-0.17732699999999998,0.571143,-0.783484
1631290347900,-0.176778,0.572058,-0.781898
1631290347910,-0.176046,0.572546,-0.7814099999999999
1631290347919,-0.176961,0.571875,-0.780007
1631290347929,-0.177998,0.570472,-0.7792749999999999
1631290347938,-0.17812,0.569618,-0.779641
1631290347948,-0.177693,0.567727,-0.780251
1631290347958,-0.177205,0.567666,-0.780312
1631290347967,-0.177998,0.568825,-0.781349
1631290347977,-0.178486,0.56913,-0.781776
1631290347986,-0.17812,0.570655,-0.782874
1631290347996,-0.178486,0.5718139999999999,-0.7835449999999999
1631290348006,-0.179401,0.571692,-0.782996
1631290348015,-0.179401,0.572912,-0.783728
1631290348025,-0.179645,0.574071,-0.785253
1631290348034,-0.179889,0.573034,-0.7850699999999999
1631290348044,-0.180255,0.573827,-0.784521
1631290348054,-0.180255,0.574132,-0.785497
1631290348063,-0.179706,0.573339,-0.7847649999999999
1631290348073,-0.180438,0.574254,-0.784582
1631290348082,-0.180865,0.575047,-0.781654
1631290348092,-0.180438,0.573888,-0.781288
1631290348102,-0.181292,0.574986,-0.7798849999999999
1631290348111,-0.179828,0.575596,-0.778787
1631290348121,-0.17934,0.575291,-0.779336
1631290348130,-0.178974,0.57523,-0.780739
1631290348140,-0.178303,0.574986,-0.780251
1631290348150,-0.177083,0.576084,-0.781288
1631290348159,-0.177144,0.575779,-0.780373
1631290348169,-0.176961,0.575596,-0.7795799999999999
1631290348178,-0.17702199999999998,0.575535,-0.780434
1631290348188,-0.177266,0.575535,-0.780617
1631290348198,-0.176595,0.575535,-0.780434
1631290348207,-0.175863,0.574681,-0.780434
1631290348217,-0.176229,0.576145,-0.781349
1631290348226,-0.175497,0.57584,-0.780678
1631290348236,-0.175924,0.575291,-0.781959
1631290348246,-0.175985,0.57645,-0.782691
1631290348255,-0.176046,0.575779,-0.781898
1631290348265,-0.1769,0.576999,-0.781654
1631290348274,-0.175985,0.577365,-0.782447
1631290348284,-0.17641199999999999,0.578829,-0.782264
1631290348294,-0.175741,0.57889,-0.781349
1631290348303,-0.175375,0.579439,-0.782142
1631290348313,-0.175558,0.579012,-0.780678
1631290348322,-0.175497,0.578036,-0.779397
1631290348332,-0.175436,0.578341,-0.777994
1631290348342,-0.17507,0.579134,-0.778116
1631290348351,-0.175253,0.579866,-0.777994
1631290348361,-0.175436,0.579744,-0.777689
1631290348370,-0.177388,0.579195,-0.775493
1631290348380,-0.17629,0.579622,-0.776042
1631290348390,-0.176351,0.579378,-0.77409
1631290348399,-0.17641199999999999,0.579195,-0.774517
1631290348409,-0.174826,0.579134,-0.774944
1631290348418,-0.175619,0.580354,-0.775249
1631290348428,-0.174704,0.580476,-0.776713
1631290348438,-0.17507,0.58011,-0.776286
1631290348447,-0.174948,0.579378,-0.776896
1631290348457,-0.175924,0.579439,-0.777323
1631290348466,-0.175619,0.578707,-0.778177
1631290348476,-0.176656,0.579073,-0.778177
1631290348486,-0.175009,0.578768,-0.779153
1631290348495,-0.17507,0.580659,-0.7786649999999999
1631290348505,-0.17610699999999999,0.58011,-0.778238
1631290348514,-0.176046,0.580659,-0.777872
1631290348524,-0.176168,0.580171,-0.777567
1631290348534,-0.17629,0.580171,-0.776286
1631290348543,-0.175741,0.579378,-0.773663
1631290348553,-0.17702199999999998,0.579195,-0.774639
1631290348562,-0.177754,0.582001,-0.777506
1631290348572,-0.17763199999999998,0.583709,-0.777262
1631290348582,-0.175558,0.586454,-0.777994
1631290348591,-0.17580199999999999,0.587796,-0.778604
1631290348601,-0.17446,0.587674,-0.778604
1631290348610,-0.173484,0.585844,-0.778482
1631290348620,-0.174277,0.583099,-0.777689
1631290348630,-0.17568,0.581818,-0.776408
1631290348639,-0.174155,0.582184,-0.7762249999999999
1631290348649,-0.173118,0.58377,-0.776103
1631290348658,-0.17299599999999998,0.583526,-0.776042
1631290348668,-0.17269099999999998,0.582184,-0.775066
1631290348678,-0.17141,0.582001,-0.774883
1631290348687,-0.170617,0.581696,-0.774822
1631290348697,-0.171349,0.581757,-0.773968
1631290348706,-0.169885,0.58072,-0.774212
1631290348716,-0.169519,0.582428,-0.774334
1631290348726,-0.17019,0.58377,-0.774517
1631290348735,-0.170129,0.5839529999999999,-0.772748
1631290348745,-0.170068,0.5839529999999999,-0.772748
1631290348754,-0.17025099999999999,0.584502,-0.772382
1631290348764,-0.170129,0.586271,-0.773663
1631290348774,-0.170678,0.5873079999999999,-0.7746999999999999
1631290348783,-0.169031,0.587125,-0.77409
1631290348793,-0.169458,0.58682,-0.773358
1631290348802,-0.170617,0.588406,-0.773907
1631290348812,-0.171288,0.587674,-0.773907
1631290348822,-0.171837,0.589077,-0.773236
1631290348831,-0.171044,0.590114,-0.773968
1631290348841,-0.17025099999999999,0.5903579999999999,-0.772931
1631290348850,-0.170739,0.58987,-0.772077
1631290348860,-0.17019,0.590297,-0.770735
1631290348870,-0.17086099999999999,0.589687,-0.769576
1631290348879,-0.171044,0.59109,-0.768966
1631290348889,-0.170312,0.590297,-0.769698
1631290348898,-0.1708,0.5897479999999999,-0.769454
1631290348908,-0.170617,0.59048,-0.769515
1631290348918,-0.171288,0.59109,-0.768783
1631290348927,-0.170678,0.591761,-0.770003
1631290348937,-0.16958,0.592371,-0.769759
1631290348946,-0.17025099999999999,0.5927979999999999,-0.770308
1631290348956,-0.170922,0.593835,-0.769454
1631290348966,-0.17208099999999998,0.594994,-0.768844
1631290348975,-0.171898,0.5952379999999999,-0.767807
1631290348985,-0.171654,0.595421,-0.768173
1631290348994,-0.171227,0.595482,-0.768173
1631290349004,-0.171105,0.595909,-0.7677459999999999
1631290349014,-0.170495,0.595482,-0.767258
1631290349023,-0.1708,0.5955429999999999,-0.7665259999999999
1631290349033,-0.169092,0.594994,-0.766648
1631290349042,-0.16897,0.5946279999999999,-0.766404
1631290349052,-0.169702,0.594811,-0.7665259999999999
1631290349062,-0.168543,0.595604,-0.7671359999999999
1631290349071,-0.168116,0.595421,-0.765855
1631290349081,-0.168665,0.595787,-0.7653059999999999
1631290349090,-0.167628,0.595116,-0.764879
1631290349100,-0.16713999999999998,0.5946279999999999,-0.76616
1631290349110,-0.167018,0.5958479999999999,-0.766038
1631290349119,-0.166774,0.595665,-0.766404
1631290349129,-0.167567,0.594811,-0.765245
1631290349138,-0.167018,0.594079,-0.7656109999999999
1631290349148,-0.168299,0.594384,-0.766282
1631290349158,-0.166957,0.595421,-0.766038
1631290349167,-0.166896,0.595726,-0.766587
1631290349177,-0.167018,0.594994,-0.7665259999999999
1631290349186,-0.16713999999999998,0.5949329999999999,-0.765977
1631290349196,-0.167689,0.59475,-0.7653059999999999
1631290349206,-0.167689,0.594872,-0.766465
1631290349215,-0.167201,0.5943229999999999,-0.767868
1631290349225,-0.167262,0.595177,-0.768051
1631290349234,-0.168116,0.594872,-0.767502
1631290349244,-0.16836,0.595482,-0.768478
1631290349254,-0.167689,0.5970679999999999,-0.769393
1631290349263,-0.167323,0.5967629999999999,-0.769027
1631290349273,-0.167811,0.595909,-0.768173
1631290349282,-0.168299,0.594445,-0.7659159999999999
1631290349292,-0.16958,0.593164,-0.765489
1631290349302,-0.168909,0.592615,-0.764635
1631290349311,-0.169214,0.592859,-0.76494
1631290349321,-0.170922,0.594201,-0.766099
1631290349330,-0.170922,0.597251,-0.7686
1631290349340,-0.171593,0.599386,-0.768539
1631290349350,-0.169824,0.600118,-0.768417
1631290349359,-0.170007,0.600606,-0.768966
1631290349369,-0.170678,0.600362,-0.768844
1631290349378,-0.170678,0.598349,-0.768234
1631290349388,-0.170739,0.59536,-0.7677459999999999
1631290349398,-0.171654,0.5934079999999999,-0.767868
1631290349407,-0.171105,0.5934079999999999,-0.769088
1631290349417,-0.170068,0.593774,-0.769393
1631290349426,-0.169702,0.594262,-0.768722
1631290349436,-0.17025099999999999,0.5952379999999999,-0.767563
1631290349446,-0.171105,0.595421,-0.766404
1631290349455,-0.169763,0.5949329999999999,-0.7650009999999999
1631290349465,-0.170983,0.594384,-0.7634759999999999
1631290349474,-0.17141,0.593896,-0.762683
1631290349484,-0.172142,0.5931029999999999,-0.762805
1631290349494,-0.171593,0.5921879999999999,-0.762744
1631290349503,-0.170983,0.592981,-0.763537
1631290349513,-0.17177599999999998,0.5931029999999999,-0.763415
1631290349522,-0.171837,0.5937129999999999,-0.764208
1631290349532,-0.172142,0.594689,-0.76616
1631290349542,-0.170922,0.596092,-0.7665259999999999
1631290349551,-0.172447,0.596519,-0.764879
1631290349561,-0.173911,0.595787,-0.7640859999999999
1631290349570,-0.174521,0.59536,-0.765062
1631290349580,-0.174704,0.595116,-0.764574
1631290349590,-0.173789,0.595604,-0.765977
1631290349599,-0.173484,0.597556,-0.767868
1631290349609,-0.17299599999999998,0.5967629999999999,-0.7674409999999999
1631290349618,-0.17360599999999998,0.597312,-0.767258
1631290349628,-0.173667,0.598227,-0.7671359999999999
1631290349638,-0.173179,0.597861,-0.766343
1631290349647,-0.174399,0.597617,-0.7656109999999999
1631290349657,-0.174887,0.5967629999999999,-0.765062
1631290349666,-0.17507,0.59658,-0.765184
1631290349676,-0.174826,0.596336,-0.7637809999999999
1631290349686,-0.174582,0.596092,-0.7646959999999999
1631290349695,-0.174521,0.595787,-0.766404
1631290349705,-0.173362,0.5964579999999999,-0.766709
1631290349714,-0.173789,0.5970679999999999,-0.7665259999999999
1631290349724,-0.17385,0.59597,-0.766892
1631290349734,-0.173728,0.597312,-0.76738
1631290349743,-0.174277,0.597556,-0.76677
1631290349753,-0.173972,0.597922,-0.766404
1631290349762,-0.175375,0.598532,-0.767014
1631290349772,-0.174887,0.597861,-0.7662209999999999
1631290349782,-0.174033,0.598227,-0.765794
1631290349791,-0.174155,0.597617,-0.766404
1631290349801,-0.173728,0.597617,-0.767258
1631290349810,-0.172935,0.5970679999999999,-0.7677459999999999
1631290349820,-0.172752,0.596946,-0.767868
1631290349830,-0.173118,0.5952379999999999,-0.7671359999999999
1631290349839,-0.172264,0.595482,-0.767014
1631290349849,-0.17263,0.595604,-0.766038
1631290349858,-0.171654,0.596397,-0.765428
1631290349868,-0.17269099999999998,0.596275,-0.764208
1631290349878,-0.172874,0.5970679999999999,-0.763415
1631290349887,-0.17147099999999998,0.5964579999999999,-0.762683
1631290349897,-0.172203,0.596702,-0.762378
1631290349906,-0.172752,0.596214,-0.762622
1631290349916,-0.171532,0.596214,-0.762744
1631290349926,-0.171349,0.597434,-0.764757
1631290349935,-0.171898,0.5964579999999999,-0.765428
1631290349945,-0.17019,0.59475,-0.76494
1631290349954,-0.17025099999999999,0.59536,-0.765184
1631290349964,-0.170678,0.5958479999999999,-0.765428
1631290349974,-0.169153,0.595787,-0.765245
1631290349983,-0.169824,0.594384,-0.765794
1631290349993,-0.171105,0.594201,-0.766404
1631290350002,-0.16994599999999999,0.594567,-0.7668309999999999
1631290350012,-0.170007,0.593957,-0.766343
1631290350022,-0.170068,0.5940179999999999,-0.767014
1631290350031,-0.17025099999999999,0.59414,-0.76738
1631290350041,-0.170617,0.59292,-0.766892
1631290350050,-0.170678,0.593652,-0.76738
1631290350060,-0.17019,0.593469,-0.767319
1631290350070,-0.17055599999999999,0.593774,-0.7674409999999999
1631290350079,-0.170922,0.594506,-0.768112
1631290350089,-0.169885,0.59414,-0.768661
1631290350098,-0.17019,0.593896,-0.767502
1631290350108,-0.171532,0.5931029999999999,-0.76616
1631290350118,-0.17177599999999998,0.591822,-0.766343
1631290350127,-0.17208099999999998,0.592249,-0.769149
1631290350137,-0.171837,0.593896,-0.771223
1631290350146,-0.171105,0.595482,-0.772504
1631290350156,-0.16958,0.595116,-0.773663
1631290350166,-0.169153,0.596275,-0.775493
1631290350175,-0.171044,0.59597,-0.774151
1631290350185,-0.169397,0.593896,-0.773907
1631290350194,-0.171227,0.593286,-0.771833
1631290350204,-0.170373,0.5915779999999999,-0.771833
1631290350214,-0.171288,0.590846,-0.770918
1631290350223,-0.17025099999999999,0.590236,-0.770308
1631290350233,-0.17025099999999999,0.590297,-0.770369
1631290350242,-0.169153,0.590114,-0.770247
1631290350252,-0.169336,0.590175,-0.769637
1631290350262,-0.168116,0.589626,-0.769149
1631290350271,-0.168055,0.5897479999999999,-0.769576
1631290350281,-0.169458,0.5879179999999999,-0.769027
1631290350290,-0.169031,0.5873079999999999,-0.767929
1631290350300,-0.169031,0.586454,-0.7674409999999999
1631290350310,-0.169031,0.586332,-0.768844
1631290350319,-0.169092,0.5866979999999999,-0.769027
1631290350329,-0.170129,0.587979,-0.769576
1631290350338,-0.171349,0.587857,-0.769698
1631290350348,-0.171044,0.589321,-0.771284
1631290350358,-0.17025099999999999,0.589687,-0.771101
1631290350367,-0.170678,0.589931,-0.771101
1631290350377,-0.172264,0.589382,-0.771406
1631290350386,-0.171593,0.589382,-0.772565
1631290350396,-0.172874,0.589199,-0.771345
1631290350406,-0.172508,0.590236,-0.770552
1631290350415,-0.17238599999999998,0.59109,-0.770796
1631290350425,-0.172508,0.5918829999999999,-0.770613
1631290350434,-0.172203,0.5921879999999999,-0.770247
1631290350444,-0.172813,0.5927979999999999,-0.770247
1631290350454,-0.172325,0.592432,-0.771467
1631290350463,-0.17263,0.5915779999999999,-0.77104
1631290350473,-0.17238599999999998,0.5891379999999999,-0.77104
1631290350482,-0.171837,0.588589,-0.771406
1631290350492,-0.171044,0.588467,-0.770491
1631290350502,-0.171227,0.588284,-0.76982
1631290350511,-0.171837,0.588955,-0.770674
1631290350521,-0.170922,0.589321,-0.77104
1631290350530,-0.171654,0.59048,-0.772443
1631290350540,-0.171532,0.590602,-0.771894
1631290350550,-0.170617,0.591639,-0.772992
1631290350559,-0.171593,0.590602,-0.771955
1631290350569,-0.17019,0.590236,-0.772992
1631290350578,-0.17141,0.589565,-0.772992
1631290350588,-0.170678,0.589382,-0.772565
1631290350598,-0.16994599999999999,0.588162,-0.773785
1631290350607,-0.170129,0.5891379999999999,-0.772992
1631290350617,-0.170007,0.58926,-0.772931
1631290350626,-0.170312,0.5906629999999999,-0.772443
1631290350636,-0.170373,0.590724,-0.771772
1631290350646,-0.170495,0.5912729999999999,-0.770674
1631290350655,-0.171227,0.590541,-0.770125
1631290350665,-0.17208099999999998,0.590541,-0.768844
1631290350674,-0.171654,0.589992,-0.769759
1631290350684,-0.17238599999999998,0.590846,-0.769393
1631290350694,-0.172508,0.58987,-0.769088
1631290350703,-0.173484,0.590175,-0.768478
1631290350713,-0.17330099999999998,0.5903579999999999,-0.769149
1631290350722,-0.17269099999999998,0.5903579999999999,-0.768966
1631290350732,-0.174277,0.5906629999999999,-0.768295
1631290350742,-0.172813,0.590297,-0.7686
1631290350751,-0.174155,0.589687,-0.7686
1631290350761,-0.17385,0.589687,-0.768295
1631290350770,-0.17446,0.590785,-0.769881
1631290350780,-0.175192,0.5900529999999999,-0.7674409999999999
1631290350790,-0.175009,0.589504,-0.767319
1631290350799,-0.174948,0.590114,-0.768112
1631290350809,-0.175985,0.589382,-0.768844
1631290350818,-0.175436,0.5894429999999999,-0.76921
1631290350828,-0.175314,0.589199,-0.768966
1631290350838,-0.176961,0.589565,-0.768783
1631290350847,-0.178303,0.590785,-0.768112
1631290350857,-0.177449,0.5909679999999999,-0.768356
1631290350866,-0.177449,0.591639,-0.768417
1631290350876,-0.17824199999999998,0.591395,-0.767929
1631290350886,-0.17873,0.5915779999999999,-0.769271
1631290350895,-0.178364,0.590846,-0.769698
1631290350905,-0.17873,0.590907,-0.767929
1631290350914,-0.180804,0.589992,-0.767624
1631290350924,-0.180194,0.590114,-0.769515
1631290350934,-0.18056,0.591334,-0.770308
1631290350943,-0.180682,0.592981,-0.770613
1631290350953,-0.180133,0.594689,-0.770979
1631290350962,-0.177754,0.5940179999999999,-0.773419
1631290350972,-0.178669,0.59597,-0.772809
1631290350982,-0.179218,0.593469,-0.772809
1631290350991,-0.179218,0.59231,-0.770552
1631290351001,-0.180194,0.5906629999999999,-0.77043
1631290351010,-0.18056,0.5891379999999999,-0.770064
1631290351020,-0.17915699999999998,0.587857,-0.769454
1631290351030,-0.17812,0.58804,-0.768478
1631290351039,-0.178974,0.587735,-0.768295
1631290351049,-0.178181,0.588711,-0.76799
1631290351058,-0.17812,0.5888329999999999,-0.768051
1631290351068,-0.177693,0.58804,-0.7677459999999999
1631290351078,-0.177998,0.586454,-0.767197
1631290351087,-0.178913,0.58743,-0.767258
1631290351097,-0.179096,0.586271,-0.767624
1631290351106,-0.179401,0.585844,-0.768844
1631290351116,-0.180621,0.586332,-0.768234
1631290351126,-0.180682,0.5863929999999999,-0.769393
1631290351135,-0.181353,0.587674,-0.769393
1631290351145,-0.18117,0.589016,-0.770979
1631290351154,-0.179096,0.58926,-0.771711
1631290351164,-0.180316,0.5882229999999999,-0.770003
1631290351174,-0.182146,0.589992,-0.769149
1631290351183,-0.18117,0.589809,-0.770735
1631290351193,-0.18178,0.5882229999999999,-0.769027
1631290351202,-0.182146,0.588101,-0.768539
1631290351212,-0.180438,0.589626,-0.769088
1631290351222,-0.182085,0.5921879999999999,-0.768417
1631290351231,-0.181597,0.5924929999999999,-0.768966
1631290351241,-0.180377,0.5921879999999999,-0.769698
1631290351250,-0.181902,0.591212,-0.768966
1631290351260,-0.181597,0.590541,-0.769332
1631290351270,-0.181658,0.590297,-0.769149
1631290351279,-0.181902,0.58987,-0.76921
1631290351289,-0.181048,0.5888329999999999,-0.769027
1631290351298,-0.18178,0.589016,-0.769149
1631290351308,-0.18196299999999999,0.58987,-0.769881
1631290351318,-0.181902,0.590541,-0.768905
1631290351327,-0.182329,0.590175,-0.769576
1631290351337,-0.183061,0.591639,-0.769576
1631290351346,-0.182634,0.5915779999999999,-0.770796
1631290351356,-0.182146,0.5912729999999999,-0.7686
1631290351366,-0.183,0.5915779999999999,-0.769576
1631290351375,-0.184525,0.591334,-0.767868
1631290351385,-0.18409799999999998,0.591151,-0.768234
1631290351394,-0.183732,0.5906629999999999,-0.767929
1631290351404,-0.183732,0.5903579999999999,-0.767258
1631290351414,-0.183244,0.591334,-0.767319
1631290351423,-0.183244,0.591334,-0.767075
1631290351433,-0.18361,0.591334,-0.765977
1631290351442,-0.18440299999999998,0.591761,-0.765245
1631290351452,-0.183732,0.5909679999999999,-0.765428
1631290351462,-0.18422,0.591395,-0.765245
1631290351471,-0.185074,0.5909679999999999,-0.764513
1631290351481,-0.18501299999999998,0.591212,-0.7646959999999999
1631290351490,-0.18501299999999998,0.590907,-0.7662209999999999
1631290351500,-0.18605,0.5903579999999999,-0.765062
1631290351510,-0.18562299999999998,0.591029,-0.7653059999999999
1631290351519,-0.185379,0.591639,-0.7659159999999999
1631290351529,-0.185806,0.592432,-0.7659159999999999
1631290351538,-0.184891,0.5917,-0.765794
1631290351548,-0.187026,0.59231,-0.765672
1631290351558,-0.186965,0.59048,-0.765245
1631290351567,-0.186965,0.590785,-0.7646959999999999
1631290351577,-0.187514,0.5906629999999999,-0.764879
1631290351586,-0.187331,0.589992,-0.765062
1631290351596,-0.188063,0.589809,-0.76555
1631290351606,-0.18812399999999999,0.590114,-0.767868
1631290351615,-0.188246,0.590785,-0.767319
1631290351625,-0.189466,0.591029,-0.767563
1631290351634,-0.18873399999999999,0.591395,-0.767502
1631290351644,-0.188856,0.59109,-0.7677459999999999
1631290351654,-0.189588,0.591151,-0.767075
1631290351663,-0.190198,0.591822,-0.767014
1631290351673,-0.190625,0.592371,-0.766038
1631290351682,-0.191052,0.5918829999999999,-0.766343
1631290351692,-0.19117399999999998,0.591822,-0.766404
1631290351702,-0.191357,0.591151,-0.766343
1631290351711,-0.191113,0.590602,-0.764147
1631290351721,-0.192028,0.590175,-0.762317
1631290351730,-0.193614,0.5900529999999999,-0.763354
1631290351740,-0.19367499999999999,0.591395,-0.766099
1631290351750,-0.193187,0.5934079999999999,-0.768173
1631290351759,-0.19178399999999998,0.5958479999999999,-0.767258
1631290351769,-0.192577,0.597312,-0.769088
1631290351778,-0.191357,0.59658,-0.769393
1631290351788,-0.191296,0.5955429999999999,-0.770003
1631290351798,-0.19215,0.592859,-0.7677459999999999
1631290351807,-0.190137,0.59109,-0.7668309999999999
1631290351817,-0.191052,0.5894429999999999,-0.765184
1631290351826,-0.19093,0.589077,-0.7662209999999999
1631290351836,-0.19086899999999998,0.58865,-0.765184
1631290351846,-0.19086899999999998,0.58926,-0.764818
1631290351855,-0.188856,0.589687,-0.764574
1631290351865,-0.187331,0.5897479999999999,-0.764452
1631290351874,-0.188002,0.590297,-0.763049
1631290351884,-0.18842899999999999,0.590114,-0.762378
1631290351894,-0.188063,0.5885279999999999,-0.762317
1631290351903,-0.188673,0.587979,-0.7625609999999999
1631290351913,-0.188917,0.588589,-0.763354
1631290351922,-0.188612,0.5885279999999999,-0.7640859999999999
1631290351932,-0.190076,0.589199,-0.76433
1631290351942,-0.18971,0.59048,-0.765733
1631290351951,-0.189832,0.591822,-0.76677
1631290351961,-0.189405,0.592981,-0.766404
1631290351970,-0.18934399999999998,0.591456,-0.7653059999999999
1631290351980,-0.19086899999999998,0.591456,-0.765855
1631290351990,-0.190808,0.591456,-0.7668309999999999
1631290351999,-0.190686,0.590236,-0.765794
1631290352009,-0.19056399999999998,0.591395,-0.7659159999999999
1631290352018,-0.190808,0.5937129999999999,-0.765123
1631290352028,-0.19178399999999998,0.594506,-0.764574
1631290352038,-0.191418,0.594079,-0.7646959999999999
1631290352047,-0.190991,0.594567,-0.764879
1631290352057,-0.190747,0.593652,-0.765428
1631290352066,-0.190808,0.592432,-0.766038
1631290352076,-0.19056399999999998,0.592066,-0.766038
1631290352086,-0.19056399999999998,0.591517,-0.76555
1631290352095,-0.19086899999999998,0.5909679999999999,-0.765428
1631290352105,-0.190198,0.591334,-0.765489
1631290352114,-0.189527,0.59231,-0.766282
1631290352124,-0.189832,0.592615,-0.76555
1631290352134,-0.189832,0.5934079999999999,-0.766892
1631290352143,-0.190076,0.593957,-0.766038
1631290352153,-0.18971,0.59414,-0.7665259999999999
1631290352162,-0.189893,0.593652,-0.7665259999999999
1631290352172,-0.188795,0.5937129999999999,-0.766038
1631290352182,-0.189283,0.594079,-0.765428
1631290352191,-0.188612,0.592676,-0.765733
1631290352201,-0.188002,0.593591,-0.765184
1631290352210,-0.18842899999999999,0.594201,-0.76494
1631290352220,-0.188246,0.594201,-0.765367
1631290352230,-0.188185,0.594201,-0.76555
1631290352239,-0.188185,0.594567,-0.76494
1631290352249,-0.186782,0.59475,-0.76494
1631290352258,-0.18727,0.593652,-0.762927
1631290352268,-0.187514,0.593896,-0.7625
1631290352278,-0.186599,0.593469,-0.762744
1631290352287,-0.18781899999999999,0.593652,-0.762378
1631290352297,-0.187514,0.5931029999999999,-0.762927
1631290352306,-0.186233,0.592981,-0.76311
1631290352316,-0.187026,0.592005,-0.762317
1631290352326,-0.187148,0.592127,-0.762622
1631290352335,-0.18666,0.591761,-0.762073
1631290352345,-0.18605,0.59292,-0.762683
1631290352354,-0.186843,0.5927979999999999,-0.762134
1631290352364,-0.185562,0.593042,-0.763293
1631290352374,-0.18788,0.5921879999999999,-0.763415
1631290352383,-0.18812399999999999,0.592066,-0.763842
1631290352393,-0.187209,0.592737,-0.763415
1631290352402,-0.186599,0.59292,-0.763659
1631290352412,-0.186965,0.5927979999999999,-0.764208
1631290352422,-0.18666,0.592005,-0.764025
1631290352431,-0.188307,0.592127,-0.765184
1631290352441,-0.18873399999999999,0.59231,-0.7656109999999999
1631290352450,-0.187636,0.592066,-0.764574
1631290352460,-0.188246,0.593835,-0.765855
1631290352470,-0.18788,0.593835,-0.765428
1631290352479,-0.18812399999999999,0.593469,-0.7646959999999999
1631290352489,-0.188612,0.593774,-0.763659
1631290352498,-0.189161,0.59414,-0.764269
1631290352508,-0.190503,0.592005,-0.763537
1631290352518,-0.189527,0.592066,-0.760548
1631290352527,-0.19093,0.5918829999999999,-0.7601209999999999
1631290352537,-0.192699,0.593774,-0.763598
1631290352546,-0.191052,0.595787,-0.766709
1631290352556,-0.19117399999999998,0.597739,-0.767197
1631290352566,-0.190503,0.598898,-0.768966
1631290352575,-0.190808,0.598105,-0.769942
1631290352585,-0.190137,0.5964579999999999,-0.769393
1631290352594,-0.190076,0.593286,-0.768173
1631290352604,-0.190076,0.590846,-0.767197
1631290352614,-0.19025899999999998,0.588955,-0.7671359999999999
1631290352623,-0.18995399999999998,0.589382,-0.766343
1631290352633,-0.189405,0.589199,-0.766648
1631290352642,-0.190503,0.58987,-0.767075
1631290352652,-0.188368,0.5891379999999999,-0.766648
1631290352662,-0.18812399999999999,0.589687,-0.765428
1631290352671,-0.187758,0.589382,-0.7659159999999999
1631290352681,-0.187087,0.588406,-0.765428
1631290352690,-0.188002,0.588406,-0.7662209999999999
1631290352700,-0.187697,0.5863929999999999,-0.766892
1631290352710,-0.188917,0.587064,-0.765855
1631290352719,-0.188246,0.588589,-0.766648
1631290352729,-0.188856,0.588345,-0.767014
1631290352738,-0.188856,0.590541,-0.767807
1631290352748,-0.187026,0.5917,-0.768478
1631290352758,-0.187087,0.59231,-0.768051
1631290352767,-0.189832,0.591151,-0.76616
1631290352777,-0.189405,0.590846,-0.7668309999999999
1631290352786,-0.189405,0.590236,-0.767258
1631290352796,-0.190808,0.5909679999999999,-0.767258
1631290352806,-0.19032,0.592005,-0.767685
1631290352815,-0.188978,0.592432,-0.768112
1631290352825,-0.188612,0.592371,-0.767624
1631290352834,-0.1891,0.592005,-0.767075
1631290352844,-0.19056399999999998,0.592554,-0.765428
1631290352854,-0.190625,0.591639,-0.764757
1631290352863,-0.189527,0.590419,-0.764269
1631290352873,-0.189527,0.5915779999999999,-0.764147
1631290352882,-0.189527,0.592554,-0.76494
1631290352892,-0.189405,0.5927979999999999,-0.764513
1631290352902,-0.189771,0.593042,-0.766099
1631290352911,-0.189832,0.59292,-0.765794
1631290352921,-0.190076,0.592432,-0.76555
1631290352930,-0.189222,0.593042,-0.765672
1631290352940,-0.189405,0.592432,-0.765062
1631290352950,-0.189283,0.5943229999999999,-0.764208
1631290352959,-0.188307,0.59475,-0.7640859999999999
1631290352969,-0.188551,0.593957,-0.76433
1631290352978,-0.187636,0.595055,-0.764208
1631290352988,-0.187392,0.596031,-0.7640859999999999
1631290352998,-0.187575,0.5958479999999999,-0.76311
1631290353007,-0.187941,0.595116,-0.7634759999999999
1631290353017,-0.187026,0.595116,-0.762988
1631290353026,-0.187331,0.596336,-0.764025
1631290353036,-0.185928,0.5967629999999999,-0.763903
1631290353046,-0.186294,0.596519,-0.762439
1631290353055,-0.185196,0.596397,-0.7622559999999999
1631290353065,-0.18544,0.595787,-0.761158
1631290353074,-0.185501,0.596336,-0.761463
1631290353084,-0.185074,0.596519,-0.762439
1631290353094,-0.18422,0.59719,-0.763415
1631290353103,-0.18501299999999998,0.596824,-0.762683
1631290353113,-0.184281,0.59658,-0.761463
1631290353122,-0.184586,0.596336,-0.760975
1631290353132,-0.184159,0.5970679999999999,-0.761707
1631290353142,-0.183976,0.597617,-0.7625
1631290353151,-0.183732,0.596885,-0.762134
1631290353161,-0.182939,0.596946,-0.762439
1631290353170,-0.183122,0.5964579999999999,-0.762195
1631290353180,-0.18287799999999999,0.595909,-0.762622
1631290353190,-0.18196299999999999,0.595787,-0.7631709999999999
1631290353199,-0.180865,0.5964579999999999,-0.762683
1631290353209,-0.181292,0.595787,-0.764025
1631290353218,-0.181353,0.5970679999999999,-0.762805
1631290353228,-0.180865,0.596031,-0.763537
1631290353238,-0.182085,0.596336,-0.76311
1631290353247,-0.180987,0.596214,-0.7631709999999999
1631290353257,-0.182756,0.59658,-0.763232
1631290353266,-0.182634,0.597251,-0.763232
1631290353276,-0.181231,0.59841,-0.763659
1631290353286,-0.180621,0.59841,-0.762744
1631290353295,-0.180255,0.596885,-0.760548
1631290353305,-0.181048,0.595665,-0.75945
1631290353314,-0.182207,0.595604,-0.7595109999999999
1631290353324,-0.181292,0.596519,-0.760548
1631290353334,-0.18239,0.597373,-0.759938
1631290353343,-0.183122,0.598288,-0.762073
1631290353353,-0.183122,0.601582,-0.764757
1631290353362,-0.18196299999999999,0.604144,-0.76555
1631290353372,-0.17995,0.605364,-0.766953
1631290353382,-0.179279,0.603839,-0.765062
1631290353391,-0.180682,0.599752,-0.762805
1631290353401,-0.180194,0.59658,-0.762073
1631290353410,-0.180499,0.592859,-0.762012
1631290353420,-0.180499,0.591639,-0.762012
1631290353430,-0.17915699999999998,0.591456,-0.762622
1631290353439,-0.178608,0.591822,-0.7640859999999999
1631290353449,-0.179035,0.591822,-0.764574
1631290353458,-0.17824199999999998,0.592371,-0.765489
1631290353468,-0.177571,0.5927979999999999,-0.765733
1631290353478,-0.177998,0.5918829999999999,-0.76494
1631290353487,-0.178181,0.591822,-0.7656109999999999
1631290353497,-0.179279,0.590541,-0.765855
1631290353506,-0.179279,0.5906629999999999,-0.764269
1631290353516,-0.179828,0.591151,-0.764208
1631290353526,-0.181231,0.592554,-0.765062
1631290353535,-0.181231,0.592371,-0.764269
1631290353545,-0.180438,0.594262,-0.766282
1631290353554,-0.17946199999999998,0.595909,-0.76677
1631290353564,-0.179584,0.5952379999999999,-0.764208
1631290353574,-0.18196299999999999,0.595482,-0.76372
1631290353583,-0.180987,0.59597,-0.765977
1631290353593,-0.180804,0.59536,-0.76616
1631290353602,-0.180682,0.596519,-0.766404
1631290353612,-0.17976699999999998,0.596946,-0.7671359999999999
1631290353622,-0.179218,0.596519,-0.768112
1631290353631,-0.18056,0.594811,-0.7686
1631290353641,-0.178181,0.593774,-0.768234
1631290353650,-0.177998,0.59292,-0.768295
1631290353660,-0.177571,0.591944,-0.768295
1631290353670,-0.17763199999999998,0.592066,-0.768295
1631290353679,-0.177998,0.591639,-0.768173
1631290353689,-0.177876,0.593835,-0.7686
1631290353698,-0.176656,0.593286,-0.769637
1631290353708,-0.175741,0.593347,-0.769637
1631290353718,-0.17610699999999999,0.592554,-0.769027
1631290353727,-0.175863,0.592249,-0.7671359999999999
1631290353737,-0.175924,0.5921879999999999,-0.767929
1631290353746,-0.175131,0.592249,-0.7686
1631290353756,-0.174704,0.593652,-0.768356
1631290353766,-0.174826,0.594506,-0.768295
1631290353775,-0.173972,0.594262,-0.7686
1631290353785,-0.17360599999999998,0.5958479999999999,-0.7677459999999999
1631290353794,-0.17263,0.595116,-0.767197
1631290353804,-0.17324,0.596275,-0.7674409999999999
1631290353814,-0.171959,0.595116,-0.768356
1631290353823,-0.17177599999999998,0.594811,-0.768417
1631290353833,-0.171349,0.593652,-0.768112
1631290353842,-0.17055599999999999,0.592737,-0.766587
1631290353852,-0.169641,0.591944,-0.765184
1631290353862,-0.168848,0.590907,-0.767868
1631290353871,-0.167872,0.590846,-0.768051
1631290353881,-0.167506,0.590846,-0.769027
1631290353890,-0.168055,0.589382,-0.768722
1631290353900,-0.168116,0.589565,-0.77043
1631290353910,-0.16652999999999998,0.589687,-0.770796
1631290353919,-0.166347,0.589687,-0.770857
1631290353929,-0.166042,0.589809,-0.772077
1631290353938,-0.165737,0.588711,-0.771894
1631290353948,-0.165432,0.588772,-0.77043
1631290353958,-0.163907,0.588101,-0.770979
1631290353967,-0.164517,0.588284,-0.771955
1631290353977,-0.163846,0.58682,-0.772687
1631290353986,-0.163724,0.5866979999999999,-0.77287
1631290353996,-0.163297,0.585722,-0.772504
1631290354006,-0.163663,0.5856,-0.772931
1631290354015,-0.162931,0.585661,-0.772565
1631290354025,-0.16287,0.585661,-0.773358
1631290354034,-0.163541,0.586149,-0.773846
1631290354044,-0.163785,0.586759,-0.773358
1631290354054,-0.163785,0.58682,-0.772687
1631290354063,-0.165127,0.586881,-0.773602
1631290354073,-0.163846,0.587491,-0.773785
1631290354082,-0.164517,0.5888329999999999,-0.773236
1631290354092,-0.165371,0.588711,-0.772199
1631290354102,-0.166103,0.587247,-0.771528
1631290354111,-0.167201,0.586515,-0.771772
1631290354121,-0.16713999999999998,0.585966,-0.769576
1631290354130,-0.169397,0.58621,-0.76799
1631290354140,-0.17141,0.58743,-0.769698
1631290354150,-0.170922,0.589992,-0.772443
1631290354159,-0.17147099999999998,0.591334,-0.771406
1631290354169,-0.172142,0.592981,-0.77226
1631290354178,-0.172203,0.594445,-0.771528
1631290354188,-0.17299599999999998,0.5934079999999999,-0.772382
1631290354198,-0.173362,0.592005,-0.771345
1631290354207,-0.174948,0.5900529999999999,-0.770491
1631290354217,-0.17629,0.588955,-0.770552
1631290354226,-0.17610699999999999,0.587247,-0.770308
1631290354236,-0.176351,0.58804,-0.770552
1631290354246,-0.17732699999999998,0.588711,-0.770918
1631290354255,-0.177571,0.589992,-0.770064
1631290354265,-0.177205,0.5897479999999999,-0.768722
1631290354274,-0.177693,0.59048,-0.767197
1631290354284,-0.17873,0.589199,-0.7656109999999999
1631290354294,-0.179218,0.588772,-0.765428
1631290354303,-0.180987,0.588345,-0.765184
1631290354313,-0.181414,0.587491,-0.765367
1631290354322,-0.182512,0.589016,-0.766465
1631290354332,-0.182634,0.589382,-0.767807
1631290354342,-0.18379299999999998,0.589992,-0.768112
1631290354351,-0.184525,0.592066,-0.767929
1631290354361,-0.18440299999999998,0.593042,-0.76799
1631290354370,-0.183244,0.593286,-0.768173
1631290354380,-0.18470799999999998,0.592981,-0.767258
1631290354390,-0.186538,0.592066,-0.7671359999999999
1631290354399,-0.186721,0.592554,-0.7665259999999999
1631290354409,-0.18788,0.59231,-0.7674409999999999
1631290354418,-0.187148,0.591761,-0.766099
1631290354428,-0.188002,0.592981,-0.7671359999999999
1631290354438,-0.187392,0.5946279999999999,-0.76677
1631290354447,-0.18781899999999999,0.59536,-0.765794
1631290354457,-0.1891,0.596092,-0.764818
1631290354466,-0.189527,0.595604,-0.76494
1631290354476,-0.189405,0.595665,-0.764269
1631290354486,-0.189771,0.5958479999999999,-0.764513
1631290354495,-0.188795,0.5943229999999999,-0.764147
1631290354505,-0.18934399999999998,0.594262,-0.763842
1631290354514,-0.189588,0.593957,-0.763293
1631290354524,-0.190076,0.5934079999999999,-0.762805
1631290354534,-0.18964899999999998,0.594506,-0.763415
1631290354543,-0.190686,0.594811,-0.761707
1631290354553,-0.191052,0.5958479999999999,-0.762378
1631290354562,-0.191418,0.59658,-0.762439
1631290354572,-0.191052,0.5978,-0.7625609999999999
1631290354582,-0.192638,0.596946,-0.761524
1631290354591,-0.192638,0.5978,-0.760182
1631290354601,-0.192272,0.59841,-0.759999
1631290354610,-0.192882,0.59841,-0.759877
1631290354620,-0.194041,0.598044,-0.7595109999999999
1631290354630,-0.193248,0.598654,-0.76006
1631290354639,-0.19337,0.599386,-0.759084
1631290354649,-0.193919,0.599508,-0.75701
1631290354658,-0.194468,0.600545,-0.756583
1631290354668,-0.19428499999999999,0.600118,-0.7564609999999999
1631290354678,-0.195017,0.599264,-0.7552409999999999
1631290354687,-0.194956,0.598654,-0.755058
1631290354697,-0.195139,0.598776,-0.7546309999999999
1631290354706,-0.195932,0.598532,-0.754692
1631290354716,-0.196054,0.598593,-0.75518
1631290354726,-0.195993,0.59841,-0.756522
1631290354735,-0.196664,0.598471,-0.756827
1631290354745,-0.19550499999999998,0.599386,-0.758718
1631290354754,-0.196481,0.599203,-0.758657
1631290354764,-0.196054,0.59841,-0.758718
1631290354774,-0.19611499999999998,0.599264,-0.75945
1631290354783,-0.196359,0.597922,-0.759694
1631290354793,-0.196786,0.5978,-0.7598159999999999
1631290354802,-0.196542,0.595482,-0.761219
1631290354812,-0.197152,0.5967629999999999,-0.7625
1631290354822,-0.196603,0.597739,-0.762622
1631290354831,-0.19733499999999998,0.596092,-0.763232
1631290354841,-0.197274,0.596397,-0.7628659999999999
1631290354850,-0.195932,0.596519,-0.761768
1631290354860,-0.196786,0.5970679999999999,-0.762378
1631290354870,-0.196603,0.5967629999999999,-0.76128
1631290354879,-0.197457,0.597007,-0.7616459999999999
1631290354889,-0.198006,0.5964579999999999,-0.760365
1631290354898,-0.19825,0.5970679999999999,-0.7595109999999999
1631290354908,-0.199165,0.598593,-0.759694
1631290354918,-0.198128,0.597617,-0.75884
1631290354927,-0.198494,0.597129,-0.759145
1631290354937,-0.199165,0.5970679999999999,-0.759145
1631290354946,-0.198067,0.597373,-0.75762
1631290354956,-0.198433,0.5967629999999999,-0.756217
1631290354966,-0.19983599999999999,0.596336,-0.757132
1631290354975,-0.200202,0.596641,-0.758779
1631290354985,-0.20069,0.599325,-0.759267
1631290354994,-0.199714,0.601582,-0.759084
1631290355004,-0.199226,0.60268,-0.760243
1631290355014,-0.198799,0.602802,-0.76067
1631290355023,-0.199897,0.60146,-0.761524
1631290355033,-0.198677,0.599142,-0.761829
1631290355042,-0.198128,0.596824,-0.760914
1631290355052,-0.199165,0.595604,-0.760487
1631290355062,-0.198677,0.594201,-0.76128
1631290355071,-0.19702999999999998,0.5946279999999999,-0.759999
1631290355081,-0.197091,0.595482,-0.760304
1631290355090,-0.195688,0.594872,-0.7601209999999999
1631290355100,-0.194712,0.59536,-0.759999
1631290355110,-0.195749,0.594506,-0.758657
1631290355119,-0.196237,0.5940179999999999,-0.757315
1631290355129,-0.19611499999999998,0.591517,-0.756949
1631290355138,-0.195566,0.590724,-0.757437
1631290355148,-0.195932,0.591029,-0.7576809999999999
1631290355158,-0.196298,0.59109,-0.75823
1631290355167,-0.19519999999999998,0.591456,-0.7598159999999999
1631290355177,-0.19550499999999998,0.592432,-0.760914
1631290355186,-0.194529,0.59292,-0.761219
1631290355196,-0.196603,0.593469,-0.76311
1631290355206,-0.19550499999999998,0.594079,-0.764452
1631290355215,-0.195383,0.594445,-0.765367
1631290355225,-0.195078,0.593469,-0.76311
1631290355234,-0.196176,0.592859,-0.763415
1631290355244,-0.19611499999999998,0.593591,-0.763049
1631290355254,-0.19672499999999998,0.591944,-0.763049
1631290355263,-0.198433,0.59292,-0.762134
1631290355273,-0.195993,0.595055,-0.761707
1631290355282,-0.195566,0.596946,-0.762805
1631290355292,-0.196786,0.596946,-0.762195
1631290355302,-0.19641999999999998,0.596885,-0.763354
1631290355311,-0.195627,0.595116,-0.7628659999999999
1631290355321,-0.195688,0.594445,-0.763842
1631290355330,-0.196664,0.592676,-0.764452
1631290355340,-0.196664,0.591395,-0.76372
1631290355350,-0.196481,0.592066,-0.765428
1631290355359,-0.195688,0.592127,-0.765184
1631290355369,-0.193858,0.592249,-0.765123
1631290355378,-0.194956,0.593591,-0.765245
1631290355388,-0.194529,0.59292,-0.765428
1631290355398,-0.19397999999999999,0.593225,-0.7656109999999999
1631290355407,-0.193614,0.593225,-0.765855
1631290355417,-0.19458999999999999,0.593835,-0.765672
1631290355426,-0.194163,0.592676,-0.765184
1631290355436,-0.19367499999999999,0.593042,-0.764635
1631290355446,-0.194102,0.593347,-0.763964
1631290355455,-0.193797,0.5921879999999999,-0.763537
1631290355465,-0.19276,0.592554,-0.763842
1631290355474,-0.192333,0.59292,-0.764025
1631290355484,-0.19215,0.593164,-0.762927
1631290355494,-0.192638,0.593774,-0.763537
1631290355503,-0.192089,0.593957,-0.763232
1631290355513,-0.193004,0.593469,-0.762805
1631290355522,-0.19215,0.5934079999999999,-0.7622559999999999
1631290355532,-0.19154,0.5917,-0.761219
1631290355542,-0.192455,0.592066,-0.760487
1631290355551,-0.192028,0.591517,-0.760487
1631290355561,-0.190991,0.591029,-0.761707
1631290355570,-0.191418,0.590541,-0.7625609999999999
1631290355580,-0.192577,0.591761,-0.762012
1631290355590,-0.192394,0.59109,-0.762012
1631290355599,-0.192028,0.591029,-0.762622
1631290355609,-0.192089,0.5906629999999999,-0.7634759999999999
1631290355618,-0.191723,0.592127,-0.763354
1631290355628,-0.19276,0.592066,-0.76372
1631290355638,-0.192882,0.591944,-0.762805
1631290355647,-0.192638,0.591944,-0.762744
1631290355657,-0.193248,0.5917,-0.7625
1631290355666,-0.192821,0.592859,-0.7625609999999999
1631290355676,-0.193492,0.593469,-0.763537
1631290355686,-0.192577,0.59292,-0.764452
1631290355695,-0.194041,0.59292,-0.763354
1631290355705,-0.19458999999999999,0.592005,-0.763537
1631290355714,-0.194163,0.592005,-0.764208
1631290355724,-0.193553,0.591456,-0.76372
1631290355734,-0.194041,0.5915779999999999,-0.764574
1631290355743,-0.194163,0.5921879999999999,-0.764574
1631290355753,-0.193858,0.592554,-0.764818
1631290355762,-0.193858,0.5924929999999999,-0.764818
1631290355772,-0.19397999999999999,0.5917,-0.765062
1631290355782,-0.19458999999999999,0.591029,-0.765733
1631290355791,-0.19337,0.591761,-0.76555
1631290355801,-0.19489499999999998,0.591456,-0.763598
1631290355810,-0.19641999999999998,0.59048,-0.762744
1631290355820,-0.197701,0.591029,-0.764757
1631290355830,-0.197396,0.592371,-0.766587
1631290355839,-0.196298,0.594201,-0.7665259999999999
1631290355849,-0.194834,0.5961529999999999,-0.768539
1631290355858,-0.194468,0.597556,-0.769454
1631290355868,-0.194834,0.59719,-0.768478
1631290355878,-0.194773,0.5961529999999999,-0.768295
1631290355887,-0.19550499999999998,0.5937129999999999,-0.7662209999999999
1631290355897,-0.194224,0.591761,-0.765062
1631290355906,-0.193553,0.591639,-0.764879
1631290355916,-0.194529,0.5903579999999999,-0.763232
1631290355926,-0.195078,0.591029,-0.762012
1631290355935,-0.19337,0.591334,-0.762927
1631290355945,-0.192028,0.5917,-0.762439
1631290355954,-0.192516,0.5921879999999999,-0.7613409999999999
1631290355964,-0.191052,0.5909679999999999,-0.7616459999999999
1631290355974,-0.19147899999999998,0.590846,-0.760914
1631290355983,-0.192089,0.5885279999999999,-0.760304
1631290355993,-0.192516,0.588406,-0.7610359999999999
1631290356002,-0.192943,0.588589,-0.7619509999999999
1631290356012,-0.192638,0.58865,-0.76189
1631290356022,-0.193187,0.5891379999999999,-0.7625
1631290356031,-0.193797,0.58987,-0.764147
1631290356041,-0.193797,0.5900529999999999,-0.765123
1631290356050,-0.193797,0.591395,-0.7668309999999999
1631290356060,-0.192577,0.5915779999999999,-0.767319
1631290356070,-0.193004,0.590846,-0.7653059999999999
1631290356079,-0.194163,0.589992,-0.765794
1631290356089,-0.19458999999999999,0.591395,-0.766587
1631290356098,-0.194407,0.590541,-0.7650009999999999
1631290356108,-0.195871,0.5915779999999999,-0.763415
1631290356118,-0.194529,0.593164,-0.7634759999999999
1631290356127,-0.194529,0.594994,-0.763659
1631290356137,-0.19458999999999999,0.594384,-0.764025
1631290356146,-0.193797,0.5946279999999999,-0.764818
1631290356156,-0.194102,0.594079,-0.765245
1631290356166,-0.193309,0.59231,-0.766038
1631290356175,-0.192333,0.59109,-0.765123
1631290356185,-0.193248,0.589626,-0.765977
1631290356194,-0.193248,0.588955,-0.765794
1631290356204,-0.193126,0.589199,-0.766465
1631290356214,-0.192028,0.5903579999999999,-0.7668309999999999
1631290356223,-0.19056399999999998,0.590724,-0.767258
1631290356233,-0.190991,0.5915779999999999,-0.76799
1631290356242,-0.191906,0.590541,-0.767685
1631290356252,-0.19093,0.5909679999999999,-0.768417
1631290356262,-0.190747,0.589626,-0.769088
1631290356271,-0.190747,0.589992,-0.768722
1631290356281,-0.19032,0.5891379999999999,-0.767868
1631290356290,-0.190686,0.589809,-0.767319
1631290356300,-0.18964899999999998,0.589504,-0.767624
1631290356310,-0.18964899999999998,0.589321,-0.766892
1631290356319,-0.18873399999999999,0.5891379999999999,-0.765855
1631290356329,-0.189466,0.59048,-0.766709
1631290356338,-0.189161,0.590724,-0.765428
1631290356348,-0.18971,0.59109,-0.765794
1631290356358,-0.18903899999999998,0.5903579999999999,-0.764879
1631290356367,-0.189527,0.5909679999999999,-0.764574
1631290356377,-0.190015,0.590541,-0.7631709999999999
1631290356386,-0.189466,0.590114,-0.763598
1631290356396,-0.189283,0.590114,-0.763964
1631290356406,-0.18842899999999999,0.59048,-0.764269
1631290356415,-0.188856,0.589382,-0.764452
1631290356425,-0.1891,0.58987,-0.764818
1631290356434,-0.18934399999999998,0.5894429999999999,-0.765428
1631290356444,-0.18971,0.588894,-0.765367
1631290356454,-0.18934399999999998,0.589199,-0.766099
1631290356463,-0.189527,0.589687,-0.765245
1631290356473,-0.19025899999999998,0.590419,-0.764879
1631290356482,-0.19086899999999998,0.58987,-0.765184
1631290356492,-0.19056399999999998,0.5906629999999999,-0.76494
1631290356502,-0.19086899999999998,0.591822,-0.7659159999999999
1631290356511,-0.191052,0.591395,-0.766038
1631290356521,-0.191357,0.5918829999999999,-0.765733
1631290356530,-0.191906,0.5921879999999999,-0.76494
1631290356540,-0.192211,0.591517,-0.7646959999999999
1631290356550,-0.192272,0.591761,-0.765184
1631290356559,-0.191296,0.591456,-0.765062
1631290356569,-0.191723,0.591334,-0.765428
1631290356578,-0.19178399999999998,0.591822,-0.765489
1631290356588,-0.191662,0.591395,-0.765672
1631290356598,-0.191296,0.591761,-0.765855
1631290356607,-0.191296,0.590175,-0.766404
1631290356617,-0.19178399999999998,0.590419,-0.765794
1631290356626,-0.191967,0.59048,-0.764879
1631290356636,-0.191845,0.5915779999999999,-0.764574
1631290356646,-0.191723,0.590785,-0.765489
1631290356655,-0.191418,0.589992,-0.766038
1631290356665,-0.191418,0.5906629999999999,-0.7671359999999999
1631290356674,-0.191662,0.590175,-0.767624
1631290356684,-0.190686,0.590114,-0.76494
1631290356694,-0.192638,0.5891379999999999,-0.763049
1631290356703,-0.194346,0.589687,-0.765794
1631290356713,-0.193492,0.591029,-0.7662209999999999
1631290356722,-0.193614,0.592981,-0.766038
1631290356732,-0.193065,0.595482,-0.767197
1631290356742,-0.192211,0.597678,-0.768234
1631290356751,-0.192211,0.597434,-0.767258
1631290356761,-0.192089,0.596275,-0.767014
1631290356770,-0.192394,0.59475,-0.7653059999999999
1631290356780,-0.193553,0.592737,-0.7637809999999999
1631290356790,-0.192394,0.591761,-0.762805
1631290356799,-0.191967,0.5921879999999999,-0.761768
1631290356809,-0.191967,0.5918829999999999,-0.762012
1631290356818,-0.191296,0.592249,-0.7616459999999999
1631290356828,-0.190808,0.593042,-0.761585
1631290356838,-0.19025899999999998,0.592676,-0.761402
1631290356847,-0.190015,0.592127,-0.7610359999999999
1631290356857,-0.19032,0.590724,-0.76128
1631290356866,-0.191296,0.590236,-0.760853
1631290356876,-0.191113,0.588772,-0.76067
1631290356886,-0.19093,0.588955,-0.762439
1631290356895,-0.190747,0.588894,-0.763903
1631290356905,-0.191357,0.589992,-0.763964
1631290356914,-0.190503,0.5906629999999999,-0.764757
1631290356924,-0.191296,0.592127,-0.766709
1631290356934,-0.19215,0.594262,-0.767075
1631290356943,-0.191723,0.594567,-0.765977
1631290356953,-0.193187,0.59292,-0.7643909999999999
1631290356962,-0.194102,0.593652,-0.764635
1631290356972,-0.193248,0.594201,-0.7653059999999999
1631290356982,-0.193919,0.5931029999999999,-0.764513
1631290356991,-0.19397999999999999,0.59353,-0.762439
1631290357001,-0.193004,0.5961529999999999,-0.762622
1631290357010,-0.193126,0.597007,-0.763232
1631290357020,-0.192028,0.597617,-0.762317
1631290357030,-0.192272,0.596641,-0.762012
1631290357039,-0.19276,0.5961529999999999,-0.7628659999999999
1631290357049,-0.19215,0.594201,-0.762622
1631290357058,-0.193187,0.5940179999999999,-0.763049
1631290357068,-0.192821,0.5931029999999999,-0.7625609999999999
1631290357078,-0.192638,0.592432,-0.76311
1631290357087,-0.19154,0.593774,-0.7637809999999999
1631290357097,-0.19056399999999998,0.593652,-0.764818
1631290357106,-0.19025899999999998,0.59353,-0.765062
1631290357116,-0.190076,0.593896,-0.766404
1631290357126,-0.189588,0.593347,-0.7659159999999999
1631290357135,-0.18971,0.593774,-0.765672
1631290357145,-0.188673,0.593835,-0.765489
1631290357154,-0.188856,0.592859,-0.764574
1631290357164,-0.189588,0.59353,-0.76433
1631290357174,-0.188795,0.593469,-0.7643909999999999
1631290357183,-0.190198,0.594079,-0.76311
1631290357193,-0.189283,0.5949329999999999,-0.7628659999999999
1631290357202,-0.18934399999999998,0.594689,-0.762622
1631290357212,-0.189893,0.5955429999999999,-0.762195
1631290357222,-0.18934399999999998,0.595787,-0.761768
1631290357231,-0.189161,0.596092,-0.761707
1631290357241,-0.188917,0.595055,-0.761158
1631290357250,-0.188917,0.59475,-0.761402
1631290357260,-0.18781899999999999,0.594384,-0.761158
1631290357270,-0.18873399999999999,0.594567,-0.761829
1631290357279,-0.187758,0.594689,-0.76128
1631290357289,-0.18903899999999998,0.593835,-0.7619509999999999
1631290357298,-0.188551,0.593835,-0.7616459999999999
1631290357308,-0.18788,0.5946279999999999,-0.761585
1631290357318,-0.188063,0.59414,-0.762012
1631290357327,-0.18934399999999998,0.59353,-0.76189
1631290357337,-0.188856,0.593469,-0.762439
1631290357346,-0.187636,0.593774,-0.7628659999999999
1631290357356,-0.187636,0.5937129999999999,-0.7625
1631290357366,-0.188551,0.592615,-0.762988
1631290357375,-0.18934399999999998,0.594201,-0.7622559999999999
1631290357385,-0.188795,0.595055,-0.762195
1631290357394,-0.188917,0.595482,-0.76372
1631290357404,-0.1891,0.59658,-0.7640859999999999
1631290357414,-0.1891,0.596397,-0.7622559999999999
1631290357423,-0.190015,0.596946,-0.762744
1631290357433,-0.190076,0.5964579999999999,-0.762744
1631290357442,-0.1891,0.596275,-0.761768
1631290357452,-0.1891,0.596885,-0.762317
1631290357462,-0.189222,0.596702,-0.762134
1631290357471,-0.18873399999999999,0.5967629999999999,-0.76128
1631290357481,-0.189161,0.596397,-0.762012
1631290357490,-0.188856,0.59597,-0.762195
1631290357500,-0.188917,0.59536,-0.761707
1631290357510,-0.188917,0.596031,-0.7625609999999999
1631290357519,-0.188551,0.5949329999999999,-0.762134
1631290357529,-0.188612,0.594872,-0.763415
1631290357538,-0.188795,0.5952379999999999,-0.763415
1631290357548,-0.189161,0.59475,-0.763232
1631290357558,-0.18934399999999998,0.59475,-0.761768
1631290357567,-0.188795,0.594079,-0.761829
1631290357577,-0.188917,0.595604,-0.76311
1631290357586,-0.18873399999999999,0.594506,-0.76189
1631290357596,-0.189832,0.593896,-0.759267
1631290357606,-0.19056399999999998,0.593652,-0.7589009999999999
1631290357615,-0.191845,0.595299,-0.76067
1631290357625,-0.19178399999999998,0.597495,-0.762378
1631290357634,-0.190808,0.599752,-0.762317
1631290357644,-0.190442,0.601155,-0.7628659999999999
1631290357654,-0.18964899999999998,0.60268,-0.764635
1631290357663,-0.189893,0.601887,-0.764635
1631290357673,-0.190442,0.600545,-0.763415
1631290357682,-0.191052,0.598532,-0.761402
1631290357692,-0.190503,0.595299,-0.760975
1631290357702,-0.190625,0.595055,-0.760243
1631290357711,-0.190747,0.594811,-0.759877
1631290357721,-0.18971,0.5949329999999999,-0.7604259999999999
1631290357730,-0.189161,0.596214,-0.7607309999999999
1631290357740,-0.188612,0.596519,-0.760182
1631290357750,-0.189161,0.596092,-0.7613409999999999
1631290357759,-0.18812399999999999,0.5955429999999999,-0.75823
1631290357769,-0.188551,0.59292,-0.758413
1631290357778,-0.188856,0.591944,-0.759572
1631290357788,-0.190076,0.593164,-0.759023
1631290357798,-0.189771,0.593042,-0.759938
1631290357807,-0.18971,0.593225,-0.759999
1631290357817,-0.18971,0.594262,-0.761768
1631290357826,-0.19032,0.594384,-0.763354
1631290357836,-0.18995399999999998,0.597007,-0.764635
1631290357846,-0.189283,0.596702,-0.764574
1631290357855,-0.190442,0.596885,-0.7631709999999999
1631290357865,-0.191052,0.597495,-0.763293
1631290357874,-0.19154,0.597861,-0.764025
1631290357884,-0.192211,0.595909,-0.762805
1631290357894,-0.192638,0.595909,-0.761768
1631290357903,-0.19117399999999998,0.598105,-0.762439
1631290357913,-0.19025899999999998,0.599386,-0.762439
1631290357922,-0.190076,0.600423,-0.7619509999999999
1631290357932,-0.18995399999999998,0.599691,-0.76128
1631290357942,-0.191296,0.59841,-0.760792
1631290357951,-0.19093,0.597556,-0.761585
1631290357961,-0.190991,0.5967629999999999,-0.7616459999999999
1631290357970,-0.19032,0.596519,-0.761097
1631290357980,-0.189588,0.595665,-0.76067
1631290357990,-0.189466,0.5967629999999999,-0.760182
1631290357999,-0.188917,0.597312,-0.7613409999999999
1631290358009,-0.18903899999999998,0.598593,-0.7613409999999999
1631290358018,-0.188307,0.598837,-0.761707
1631290358028,-0.18873399999999999,0.600484,-0.761585
1631290358038,-0.188917,0.599325,-0.761524
1631290358047,-0.18781899999999999,0.599203,-0.761524
1631290358057,-0.187697,0.598349,-0.760609
1631290358066,-0.188795,0.598227,-0.760548
1631290358076,-0.188307,0.597861,-0.7604259999999999
1631290358086,-0.187636,0.598532,-0.760792
1631290358095,-0.187392,0.599508,-0.7607309999999999
1631290358105,-0.187331,0.599691,-0.759572
1631290358114,-0.187636,0.600911,-0.7592059999999999
1631290358124,-0.186599,0.600301,-0.759755
1631290358134,-0.186111,0.600362,-0.7592059999999999
1631290358143,-0.185684,0.600484,-0.758169
1631290358153,-0.186904,0.599508,-0.757742
1631290358162,-0.186843,0.599996,-0.757742
1631290358172,-0.186721,0.598227,-0.756827
1631290358182,-0.187087,0.598532,-0.75701
1631290358191,-0.185074,0.598959,-0.7564
1631290358201,-0.186233,0.598593,-0.756888
1631290358210,-0.185989,0.599752,-0.756888
1631290358220,-0.186416,0.598837,-0.7573759999999999
1631290358230,-0.185806,0.597739,-0.7564609999999999
1631290358239,-0.186782,0.59902,-0.75884
1631290358249,-0.186721,0.598837,-0.7598159999999999
1631290358258,-0.185989,0.599386,-0.7598159999999999
1631290358268,-0.187026,0.599325,-0.760365
1631290358278,-0.186477,0.599508,-0.760304
1631290358287,-0.18666,0.599508,-0.7604259999999999
1631290358297,-0.186721,0.598837,-0.760792
1631290358306,-0.186782,0.599325,-0.760609
1631290358316,-0.187331,0.599508,-0.760243
1631290358326,-0.186294,0.598593,-0.760914
1631290358335,-0.186477,0.599142,-0.760975
1631290358345,-0.187209,0.598776,-0.760609
1631290358354,-0.187148,0.598654,-0.760609
1631290358364,-0.187697,0.598593,-0.759999
1631290358374,-0.187392,0.598593,-0.7607309999999999
1631290358383,-0.188002,0.598654,-0.760792
1631290358393,-0.187514,0.598471,-0.761524
1631290358402,-0.187026,0.598166,-0.762012
1631290358412,-0.187697,0.598288,-0.762134
1631290358422,-0.187392,0.598288,-0.761097
1631290358431,-0.18842899999999999,0.598044,-0.761219
1631290358441,-0.188551,0.598471,-0.761158
1631290358450,-0.187575,0.598349,-0.762317
1631290358460,-0.187453,0.597739,-0.762195
1631290358470,-0.18781899999999999,0.596641,-0.761097
1631290358479,-0.187697,0.5952379999999999,-0.7607309999999999
1631290358489,-0.187697,0.595482,-0.759877
1631290358498,-0.187941,0.594994,-0.75823
1631290358508,-0.188856,0.596885,-0.760304
1631290358518,-0.188917,0.598532,-0.7619509999999999
1631290358527,-0.188795,0.601033,-0.7628659999999999
1631290358537,-0.188002,0.601704,-0.764025
1631290358546,-0.188002,0.601582,-0.765428
1631290358556,-0.187148,0.599996,-0.765733
1631290358566,-0.187026,0.596824,-0.76494
1631290358575,-0.187758,0.593957,-0.7646959999999999
1631290358585,-0.187758,0.592371,-0.76311
1631290358594,-0.187514,0.591944,-0.762805
1631290358604,-0.186904,0.592066,-0.763049
1631290358614,-0.18605,0.59292,-0.762195
1631290358623,-0.185928,0.593286,-0.763293
1631290358633,-0.186172,0.593652,-0.762988
1631290358642,-0.18666,0.593042,-0.762317
1631290358652,-0.186355,0.592737,-0.761585
1631290358662,-0.186477,0.591822,-0.762317
1631290358671,-0.186111,0.591456,-0.762378
1631290358681,-0.18666,0.591151,-0.762012
1631290358690,-0.187209,0.591029,-0.76311
1631290358700,-0.187697,0.591639,-0.7625
1631290358710,-0.18781899999999999,0.59414,-0.764574
1631290358719,-0.188307,0.593591,-0.765184
1631290358729,-0.187575,0.596397,-0.7659159999999999
1631290358738,-0.188185,0.59536,-0.763964
1631290358748,-0.190137,0.5952379999999999,-0.762317
1631290358758,-0.189893,0.595665,-0.763964
1631290358767,-0.190381,0.594384,-0.764269
1631290358777,-0.18971,0.594384,-0.7643909999999999
1631290358786,-0.188307,0.5958479999999999,-0.765977
1631290358796,-0.18873399999999999,0.5955429999999999,-0.767075
1631290358806,-0.189527,0.5949329999999999,-0.765672
1631290358815,-0.189466,0.595116,-0.764879
1631290358825,-0.189588,0.592737,-0.764879
1631290358834,-0.190076,0.59353,-0.764513
1631290358844,-0.18964899999999998,0.592737,-0.7637809999999999
1631290358854,-0.18903899999999998,0.5921879999999999,-0.7646959999999999
1631290358863,-0.1891,0.592432,-0.7643909999999999
1631290358873,-0.188856,0.594201,-0.765062
1631290358882,-0.188917,0.59475,-0.7659159999999999
1631290358892,-0.187697,0.594567,-0.766038
1631290358902,-0.18995399999999998,0.594689,-0.765245
1631290358911,-0.18873399999999999,0.59414,-0.76372
1631290358921,-0.18903899999999998,0.594811,-0.76433
1631290358930,-0.188917,0.5955429999999999,-0.764025
1631290358940,-0.188978,0.596519,-0.763964
1631290358950,-0.188063,0.596092,-0.7643909999999999
1631290358959,-0.18812399999999999,0.5967629999999999,-0.76372
1631290358969,-0.187636,0.596092,-0.7631709999999999
1631290358978,-0.187209,0.5978,-0.763415
1631290358988,-0.187636,0.597922,-0.7628659999999999
1631290358998,-0.186965,0.597373,-0.761585
1631290359007,-0.186782,0.5967629999999999,-0.76067
1631290359017,-0.186294,0.597434,-0.7610359999999999
1631290359026,-0.185928,0.596641,-0.760487
1631290359036,-0.185562,0.596214,-0.759694
1631290359046,-0.185989,0.596031,-0.760365
1631290359055,-0.186233,0.597312,-0.761402
1631290359065,-0.185501,0.597556,-0.760487
1631290359074,-0.185806,0.597251,-0.7595109999999999
1631290359084,-0.185867,0.596214,-0.758718
1631290359094,-0.186538,0.596214,-0.758413
1631290359103,-0.186599,0.59658,-0.758962
1631290359113,-0.187575,0.5958479999999999,-0.7585959999999999
1631290359122,-0.186111,0.596824,-0.760548
1631290359132,-0.187514,0.596397,-0.7601209999999999
1631290359142,-0.187575,0.596946,-0.760487
1631290359151,-0.187697,0.597251,-0.761829
1631290359161,-0.186843,0.597617,-0.762012
1631290359170,-0.18666,0.59719,-0.76189
1631290359180,-0.187087,0.597373,-0.7613409999999999
1631290359190,-0.186599,0.596519,-0.761829
1631290359199,-0.187514,0.596519,-0.7601209999999999
1631290359209,-0.18781899999999999,0.596031,-0.76006
1631290359218,-0.18812399999999999,0.596641,-0.759938
1631290359228,-0.187697,0.596702,-0.760304
1631290359238,-0.188185,0.596702,-0.761219
1631290359247,-0.188002,0.596336,-0.76189
1631290359257,-0.187941,0.596824,-0.762439
1631290359266,-0.188063,0.59597,-0.762439
1631290359276,-0.187392,0.596824,-0.76189
1631290359286,-0.188612,0.59658,-0.762988
1631290359295,-0.18812399999999999,0.597434,-0.763964
1631290359305,-0.187697,0.598654,-0.765184
1631290359314,-0.187453,0.598288,-0.764208
1631290359324,-0.187636,0.597373,-0.761158
1631290359334,-0.189771,0.59475,-0.76067
1631290359343,-0.189161,0.594201,-0.761402
1631290359353,-0.188673,0.5940179999999999,-0.760609
1631290359362,-0.19032,0.596092,-0.760243
1631290359372,-0.190686,0.596702,-0.761829
1631290359382,-0.191113,0.599264,-0.763598
1631290359391,-0.19032,0.601826,-0.76616
1631290359401,-0.189283,0.601216,-0.765733
1631290359410,-0.188673,0.599752,-0.764635
1631290359420,-0.189161,0.599752,-0.765062
1631290359430,-0.18971,0.596946,-0.765184
1631290359439,-0.18971,0.595177,-0.763659
1631290359449,-0.189222,0.592676,-0.7625
1631290359458,-0.189466,0.5921879999999999,-0.761768
1631290359468,-0.187941,0.593469,-0.7628659999999999
1631290359478,-0.187697,0.5949329999999999,-0.762805
1631290359487,-0.188002,0.595055,-0.762317
1631290359497,-0.187514,0.594567,-0.761158
1631290359506,-0.186904,0.59414,-0.760243
1631290359516,-0.188307,0.593896,-0.759694
1631290359526,-0.18971,0.593835,-0.758962
1631290359535,-0.189466,0.5934079999999999,-0.759633
1631290359545,-0.189527,0.593042,-0.759999
1631290359554,-0.189771,0.594994,-0.759328
1631290359564,-0.189588,0.595299,-0.760853
1631290359574,-0.189832,0.595726,-0.761524
1631290359583,-0.19032,0.59658,-0.762012
1631290359593,-0.188551,0.5964579999999999,-0.761585
1631290359602,-0.190198,0.595726,-0.75945
1631290359612,-0.19117399999999998,0.597251,-0.7601209999999999
1631290359622,-0.191052,0.597495,-0.761097
1631290359631,-0.191418,0.597007,-0.7604259999999999
1631290359641,-0.192638,0.5967629999999999,-0.76128
1631290359650,-0.190198,0.599081,-0.7625609999999999
1631290359660,-0.191235,0.599325,-0.762805
1631290359670,-0.191113,0.598898,-0.762073
1631290359679,-0.190808,0.598532,-0.761585
1631290359689,-0.19117399999999998,0.598898,-0.7616459999999999
1631290359698,-0.190991,0.598593,-0.7610359999999999
1631290359708,-0.190991,0.598105,-0.759877
1631290359718,-0.19025899999999998,0.597129,-0.759267
1631290359727,-0.19025899999999998,0.597922,-0.7598159999999999
1631290359737,-0.189771,0.597922,-0.759755
1631290359746,-0.189405,0.598898,-0.759877
1631290359756,-0.18964899999999998,0.5967629999999999,-0.760243
1631290359766,-0.18934399999999998,0.597617,-0.760182
1631290359775,-0.188856,0.5978,-0.7604259999999999
1631290359785,-0.189527,0.59841,-0.76067
1631290359794,-0.18964899999999998,0.599264,-0.761097
1631290359804,-0.189222,0.59902,-0.761768
1631290359814,-0.18873399999999999,0.599569,-0.762683
1631290359823,-0.188978,0.599386,-0.763537
1631290359833,-0.18842899999999999,0.59841,-0.76311
1631290359842,-0.188246,0.599325,-0.762622
1631290359852,-0.187453,0.598715,-0.762012
1631290359862,-0.188307,0.598776,-0.761829
1631290359871,-0.187636,0.598349,-0.759938
1631290359881,-0.186965,0.598288,-0.759694
1631290359890,-0.187636,0.598471,-0.760304
1631290359900,-0.18788,0.59963,-0.7598159999999999
1631290359910,-0.187758,0.599935,-0.759633
1631290359919,-0.187392,0.600118,-0.76006
1631290359929,-0.186355,0.601033,-0.7585959999999999
1631290359938,-0.187331,0.600057,-0.75823
1631290359948,-0.186416,0.600423,-0.757559
1631290359958,-0.18727,0.599874,-0.757498
1631290359967,-0.185867,0.599874,-0.75762
1631290359977,-0.187453,0.599325,-0.756278
1631290359986,-0.186843,0.598471,-0.757254
1631290359996,-0.187575,0.599142,-0.756522
1631290360006,-0.187575,0.597434,-0.758108
1631290360015,-0.187026,0.598227,-0.7579859999999999
1631290360025,-0.186965,0.597556,-0.758474
1631290360034,-0.18666,0.598166,-0.7585959999999999
1631290360044,-0.187941,0.597617,-0.758718
1631290360054,-0.18788,0.597861,-0.759633
1631290360063,-0.188002,0.5970679999999999,-0.760548
1631290360073,-0.18781899999999999,0.597251,-0.759572
1631290360082,-0.187392,0.597556,-0.7601209999999999
1631290360092,-0.18812399999999999,0.596824,-0.7601209999999999
1631290360102,-0.18788,0.596641,-0.759938
1631290360111,-0.18842899999999999,0.596031,-0.7607309999999999
1631290360121,-0.18903899999999998,0.5964579999999999,-0.760609
1631290360130,-0.188978,0.596946,-0.7604259999999999
1631290360140,-0.19025899999999998,0.597007,-0.758535
1631290360150,-0.190198,0.595604,-0.759328
1631290360159,-0.191052,0.59597,-0.759572
1631290360169,-0.191662,0.597251,-0.760609
1631290360178,-0.191967,0.598532,-0.75945
1631290360188,-0.192516,0.597373,-0.760914
1631290360198,-0.192577,0.5967629999999999,-0.7625
1631290360207,-0.192211,0.597251,-0.762134
1631290360217,-0.192943,0.595604,-0.761585
1631290360226,-0.193553,0.594872,-0.7595109999999999
1631290360236,-0.195322,0.595116,-0.7610359999999999
1631290360246,-0.195627,0.5967629999999999,-0.7625609999999999
1631290360255,-0.195322,0.597312,-0.763537
1631290360265,-0.19458999999999999,0.598532,-0.763842
1631290360274,-0.194651,0.599874,-0.76433
1631290360284,-0.19489499999999998,0.600667,-0.765489
1631290360294,-0.195139,0.599996,-0.764452
1631290360303,-0.19580999999999998,0.597678,-0.764574
1631290360313,-0.196542,0.595421,-0.76372
1631290360322,-0.19641999999999998,0.593774,-0.7625609999999999
1631290360332,-0.196664,0.593347,-0.763049
1631290360342,-0.19702999999999998,0.5927979999999999,-0.762439
1631290360351,-0.195322,0.593164,-0.763232
1631290360361,-0.194834,0.594384,-0.762439
1631290360370,-0.194224,0.5943229999999999,-0.761158
1631290360380,-0.195444,0.59353,-0.76067
1631290360390,-0.195566,0.59353,-0.760487
1631290360399,-0.196542,0.592371,-0.759267
1631290360409,-0.195383,0.591334,-0.75945
1631290360418,-0.196603,0.590724,-0.759328
1631290360428,-0.19672499999999998,0.590541,-0.76006
1631290360438,-0.196908,0.590541,-0.761463
1631290360447,-0.196664,0.590846,-0.76128
1631290360457,-0.196969,0.5918829999999999,-0.763537
1631290360466,-0.196603,0.592371,-0.764452
1631290360476,-0.198189,0.5931029999999999,-0.764757
1631290360486,-0.197274,0.5934079999999999,-0.763659
1631290360495,-0.19825,0.592554,-0.762805
1631290360505,-0.199287,0.593835,-0.763964
1631290360514,-0.198677,0.593225,-0.7650009999999999
1631290360524,-0.199287,0.5917,-0.763537
1631290360534,-0.20014099999999999,0.5921879999999999,-0.760975
1631290360543,-0.198921,0.59536,-0.7616459999999999
1631290360553,-0.199104,0.59658,-0.7616459999999999
1631290360562,-0.198433,0.5970679999999999,-0.762744
1631290360572,-0.19825,0.59719,-0.761768
1631290360582,-0.198677,0.596092,-0.762073
1631290360591,-0.198494,0.5946279999999999,-0.762317
1631290360601,-0.198738,0.592432,-0.762927
1631290360610,-0.198311,0.591517,-0.7628659999999999
1631290360620,-0.198799,0.591761,-0.7625
1631290360630,-0.197762,0.591639,-0.763659
1631290360639,-0.196542,0.5924929999999999,-0.7634759999999999
1631290360649,-0.196298,0.5927979999999999,-0.765123
1631290360658,-0.195688,0.593042,-0.76494
1631290360668,-0.195932,0.593286,-0.764818
1631290360678,-0.19611499999999998,0.592615,-0.765123
1631290360687,-0.19641999999999998,0.5924929999999999,-0.76555
1631290360697,-0.195383,0.592005,-0.764269
1631290360706,-0.195688,0.5915779999999999,-0.763964
1631290360716,-0.19519999999999998,0.5921879999999999,-0.76372
1631290360726,-0.195444,0.591944,-0.763537
1631290360735,-0.195017,0.592005,-0.763354
1631290360745,-0.194102,0.593286,-0.7634759999999999
1631290360754,-0.193492,0.593652,-0.763415
1631290360764,-0.193309,0.593957,-0.76311
1631290360774,-0.193858,0.592859,-0.761829
1631290360783,-0.194224,0.59292,-0.761463
1631290360793,-0.193736,0.59414,-0.761402
1631290360802,-0.194651,0.593591,-0.761219
1631290360812,-0.194407,0.59353,-0.76067
1631290360822,-0.193004,0.593042,-0.761768
1631290360831,-0.193858,0.591822,-0.7616459999999999
1631290360841,-0.19458999999999999,0.592371,-0.760975
1631290360850,-0.194346,0.591517,-0.7601209999999999
1631290360860,-0.194041,0.591334,-0.7622559999999999
1631290360870,-0.194346,0.590846,-0.763293
1631290360879,-0.19367499999999999,0.5909679999999999,-0.763903
1631290360889,-0.193492,0.5909679999999999,-0.763415
1631290360898,-0.194712,0.591456,-0.763354
1631290360908,-0.195871,0.5917,-0.763964
1631290360918,-0.19519999999999998,0.5917,-0.763903
1631290360927,-0.194956,0.592371,-0.7643909999999999
1631290360937,-0.195627,0.592371,-0.763049
1631290360946,-0.196176,0.5927979999999999,-0.764208
1631290360956,-0.197274,0.592432,-0.762927
1631290360966,-0.196359,0.593469,-0.7625
1631290360975,-0.196847,0.5927979999999999,-0.762073
1631290360985,-0.197518,0.5931029999999999,-0.762378
1631290360994,-0.197518,0.592554,-0.762134
1631290361004,-0.197274,0.5934079999999999,-0.7628659999999999
1631290361014,-0.196786,0.593286,-0.762622
1631290361023,-0.197518,0.5917,-0.762927
1631290361033,-0.197762,0.592066,-0.76311
1631290361042,-0.198555,0.5921879999999999,-0.7625
1631290361052,-0.19825,0.5934079999999999,-0.763537
1631290361062,-0.198067,0.5921879999999999,-0.764208
1631290361071,-0.19825,0.591822,-0.763598
1631290361081,-0.199653,0.590846,-0.7646959999999999
1631290361090,-0.198372,0.590907,-0.7634759999999999
1631290361100,-0.198555,0.5903579999999999,-0.762195
1631290361110,-0.199226,0.590907,-0.761463
1631290361119,-0.200263,0.591334,-0.7628659999999999
1631290361129,-0.200568,0.591944,-0.764269
1631290361138,-0.200629,0.593225,-0.764879
1631290361148,-0.198738,0.5952379999999999,-0.7650009999999999
1631290361158,-0.198067,0.597312,-0.765977
1631290361167,-0.198494,0.597678,-0.766343
1631290361177,-0.199287,0.596885,-0.765489
