timestamp,ax,ay,az
1631291235827,-0.009333,-0.6697799999999999,0.72651
1631291235836,-0.009637999999999999,-0.6700849999999999,0.725656
1631291235846,-0.010065,-0.670573,0.725107
1631291235856,-0.00671,-0.670268,0.726144
1631291235865,-0.005612,-0.669963,0.727303
1631291235875,-0.003721,-0.671427,0.726571
1631291235884,-0.001281,-0.669658,0.724497
1631291235894,-0.008052,-0.665266,0.72712
1631291235904,-0.018056,-0.659837,0.7348669999999999
1631291235913,-0.042517,-0.653798,0.75457
1631291235923,-0.03965,-0.651297,0.752862
1631291235932,-0.033184,-0.653127,0.74542
1631291235942,-0.027145,-0.652944,0.736453
1631291235952,-0.020618,-0.654774,0.729743
1631291235961,-0.0183,-0.65453,0.726144
1631291235971,-0.019703,-0.655994,0.729865
1631291235980,-0.022021,-0.655384,0.731695
1631291235990,-0.021716,-0.65453,0.729621
1631291236000,-0.020557,-0.652212,0.727913
1631291236009,-0.01281,-0.650626,0.7169329999999999
1631291236019,-0.006588,-0.653737,0.716872
1631291236028,-0.008357,-0.652456,0.714066
1631291236038,-0.008784,-0.650382,0.709125
1631291236048,0.002562,-0.653249,0.694668
1631291236057,-0.0050019999999999995,-0.663009,0.705831
1631291236067,-0.004697,-0.669902,0.7172379999999999
1631291236076,-0.012565999999999999,-0.670878,0.731329
1631291236086,-0.020557,-0.671549,0.7403569999999999
1631291236096,-0.025863999999999998,-0.6673399999999999,0.746762
1631291236105,-0.027877,-0.6658149999999999,0.750361
1631291236115,-0.02379,-0.6661199999999999,0.747799
1631291236124,-0.02135,-0.666791,0.742614
1631290337182,-0.145119,-0.601704,0.7503
1631290337191,-0.150121,-0.598532,0.755912
1631290337201,-0.151768,-0.59414,0.759877
1631290337211,-0.151951,-0.59231,0.753655
1631290337220,-0.153171,-0.588772,0.752069
1631290337230,-0.149938,-0.588406,0.752252
1631290337239,-0.148291,-0.5918829999999999,0.757254
1631290337249,-0.149328,-0.58987,0.759938
1631290337259,-0.155306,-0.58743,0.7637809999999999
1631290337268,-0.162138,-0.5845629999999999,0.764574
1631290337278,-0.163114,-0.581025,0.763964
1631290337287,-0.163358,-0.579988,0.759267
1631290337297,-0.161406,-0.579317,0.758718
1631290337307,-0.161528,-0.579988,0.75762
1631290337316,-0.160918,-0.576511,0.754692
1631290337326,-0.160308,-0.574681,0.753838
1631290337335,-0.160857,-0.578219,0.756034
1631290337345,-0.161711,-0.578646,0.7558509999999999
1631290337355,-0.16067399999999998,-0.576511,0.756644
1631290337364,-0.161101,-0.577853,0.759694
1631290337374,-0.16226,-0.577426,0.762622
1631290337383,-0.165432,-0.576633,0.767075
1631290337393,-0.167079,-0.576206,0.768783
1631290337403,-0.16836,-0.577548,0.77287
1631290337412,-0.1708,-0.576755,0.7659159999999999
1631290337422,-0.157563,-0.591029,0.750178
1631290337431,-0.152134,-0.608231,0.753472
1631290337441,-0.148474,-0.619211,0.74664
1631290337451,-0.151829,-0.627507,0.7515809999999999
1631290337460,-0.15975899999999998,-0.633302,0.759877
1631290337470,-0.161955,-0.638243,0.765428
1631290337479,-0.159698,-0.6402559999999999,0.771284
1631290337489,-0.154391,-0.638548,0.774212
1631290337499,-0.151951,-0.634888,0.773785
1631290337508,-0.145302,-0.62891,0.772382
1631290337518,-0.14066599999999999,-0.625006,0.776408
1631290337527,-0.140544,-0.620736,0.775798
1631290337537,-0.138958,-0.614819,0.773114
1631290337547,-0.136396,-0.610366,0.765794
1631290337556,-0.134749,-0.60634,0.760792
1631290337566,-0.137616,-0.606279,0.75823
1631290337575,-0.136823,-0.603229,0.7537159999999999
1631290337585,-0.135908,-0.603961,0.751703
1631290337595,-0.136152,-0.604449,0.754448
1631290337604,-0.137555,-0.60268,0.7592059999999999
1631290337614,-0.139446,-0.598959,0.761707
1631290337623,-0.143472,-0.592676,0.764452
1631290337633,-0.143228,-0.591212,0.768112
1631290337643,-0.143899,-0.5866979999999999,0.770064
1631290337652,-0.149206,-0.587552,0.770003
1631290337662,-0.147254,-0.5927979999999999,0.769454
1631290337671,-0.143838,-0.593957,0.768234
1631290337681,-0.146034,-0.593225,0.767258
1631290337691,-0.14682699999999999,-0.588345,0.7674409999999999
1631290337700,-0.145729,-0.582245,0.775432
1631290337710,-0.150487,-0.574986,0.7807999999999999
1631290337719,-0.15494,-0.5687639999999999,0.7868999999999999
1631290337729,-0.162687,-0.560712,0.791048
1631290337739,-0.171959,-0.550403,0.795196
1631290337748,-0.17946199999999998,-0.543449,0.7920849999999999
1631290337758,-0.18056,-0.5386299999999999,0.789584
1631290337767,-0.182695,-0.533384,0.787876
1631290337777,-0.18440299999999998,-0.528992,0.792817
1631290337787,-0.185074,-0.524234,0.79666
1631290337796,-0.185684,-0.519537,0.800198
1631290337806,-0.186538,-0.516853,0.804346
1631290337815,-0.18409799999999998,-0.516182,0.806725
1631290337825,-0.181353,-0.519903,0.80459
1631290337835,-0.178181,-0.519964,0.807152
1631290337844,-0.175314,-0.517768,0.802882
1631290337854,-0.170434,-0.513925,0.802821
1631290337863,-0.168299,-0.510326,0.807518
1631290337873,-0.169275,-0.50874,0.809958
1631290337883,-0.170312,-0.506727,0.811971
1631290337892,-0.17360599999999998,-0.507886,0.815936
1631290337902,-0.174399,-0.510936,0.81313
1631290337911,-0.171898,-0.51728,0.811666
1631290337921,-0.168116,-0.522343,0.811788
1631290337931,-0.162809,-0.526918,0.814045
1631290337940,-0.156099,-0.53131,0.814472
1631290337950,-0.147315,-0.538691,0.813435
1631290337959,-0.135969,-0.547048,0.812398
1631290337969,-0.127917,-0.552172,0.8115439999999999
1631290337979,-0.121878,-0.558333,0.8091039999999999
1631290337988,-0.115534,-0.5632739999999999,0.8023939999999999
1631290337998,-0.10790899999999999,-0.569191,0.796843
1631290338007,-0.10113799999999999,-0.5795,0.794464
1631290338017,-0.09089,-0.58987,0.786717
1631290338027,-0.081862,-0.598166,0.774578
1631290338036,-0.076921,-0.607194,0.767075
1631290338046,-0.071614,-0.616649,0.760609
1631290338055,-0.064233,-0.626592,0.754753
1631290338065,-0.059292,-0.635315,0.750849
1631290338075,-0.0549,-0.6430009999999999,0.748653
1631290338084,-0.050386,-0.648857,0.749141
1631290338094,-0.047214,-0.655506,0.748287
1631290338103,-0.043981,-0.660264,0.747555
1631290338113,-0.042029,-0.6645949999999999,0.747616
1631290338123,-0.038308,-0.666242,0.743773
1631290338132,-0.036966,-0.6679499999999999,0.740723
1631290338142,-0.037698,-0.669292,0.737246
1631290338151,-0.037515,-0.669658,0.732976
1631290338161,-0.038125,-0.670024,0.728401
1631290338171,-0.038918,-0.6697799999999999,0.724558
1631290338180,-0.041236,-0.668682,0.721081
1631290338190,-0.043859,-0.667157,0.719495
1631290338199,-0.045262,-0.6652049999999999,0.717787
1631290338209,-0.046482,-0.664351,0.718031
1631290338219,-0.047945999999999996,-0.6621549999999999,0.718336
1631290338228,-0.049227,-0.6600199999999999,0.71614
1631290338238,-0.051118,-0.655689,0.714981
1631290338247,-0.054717,-0.65453,0.7137
1631290338257,-0.058438,-0.651846,0.714249
1631290338267,-0.060939,-0.648186,0.7147979999999999
1631290338276,-0.064416,-0.645319,0.71736
1631290338286,-0.067466,-0.642147,0.717604
1631290338295,-0.07137,-0.63745,0.719495
1631290338305,-0.07387099999999999,-0.63501,0.722972
1631290338315,-0.076982,-0.632997,0.728523
1631290338324,-0.078751,-0.6320209999999999,0.731634
1631290338334,-0.08033699999999999,-0.629337,0.733098
1631290338343,-0.081008,-0.627202,0.7354769999999999
1631290338353,-0.08234999999999999,-0.625616,0.737551
1631290338363,-0.081679,-0.624579,0.737246
1631290338372,-0.083387,-0.624701,0.738405
1631290338382,-0.084912,-0.625433,0.736514
1631290338391,-0.085522,-0.625555,0.73444
1631290338401,-0.085827,-0.626958,0.734074
1631290338411,-0.08662,-0.628239,0.734684
1631290338420,-0.08649799999999999,-0.630496,0.736819
1631290338430,-0.086742,-0.630618,0.736758
1631290338439,-0.08851099999999999,-0.630679,0.740906
1631290338449,-0.089609,-0.629886,0.74481
1631290338459,-0.090219,-0.631045,0.745176
1631290338468,-0.088328,-0.6338509999999999,0.74054
1631290338478,-0.079544,-0.641964,0.736331
1631290338487,-0.07259,-0.652212,0.736209
1631290338497,-0.073749,-0.655506,0.7394419999999999
1631290338507,-0.072041,-0.653432,0.732549
1631290338516,-0.073627,-0.652883,0.730536
1631290338526,-0.076067,-0.656238,0.73017
1631290338535,-0.075396,-0.6587999999999999,0.733586
1631290338545,-0.075152,-0.662704,0.736331
1631290338555,-0.073322,-0.667462,0.7376119999999999
1631290338564,-0.072102,-0.670756,0.737551
1631290338574,-0.071736,-0.674233,0.737673
1631290338583,-0.069723,-0.676917,0.738161
1631290338593,-0.068259,-0.679235,0.7363919999999999
1631290338603,-0.067527,-0.680211,0.734318
1631290338612,-0.069174,-0.6797839999999999,0.7333419999999999
1631290338622,-0.07076,-0.679967,0.733464
1631290338631,-0.072895,-0.679235,0.733159
1631290338641,-0.074847,-0.678442,0.733098
1631290338651,-0.07686,-0.675026,0.7330369999999999
1631290338660,-0.078873,-0.671122,0.734928
1631290338670,-0.081374,-0.668316,0.734989
1631290338679,-0.082716,-0.664412,0.734074
1631290338689,-0.084912,-0.662399,0.7339519999999999
1631290338699,-0.086559,-0.659349,0.736148
1631290338708,-0.090036,-0.653859,0.737978
1631290338718,-0.092598,-0.648979,0.737856
1631290338727,-0.09577,-0.644648,0.7381
1631290338737,-0.099613,-0.6393409999999999,0.7373069999999999
1631290338747,-0.10315099999999999,-0.635742,0.737978
1631290338756,-0.103517,-0.633912,0.7366969999999999
1631290338766,-0.10467599999999999,-0.628117,0.7333419999999999
1631290338775,-0.106262,-0.622261,0.7315119999999999
1631290338785,-0.107726,-0.6174419999999999,0.731573
1631290338795,-0.108397,-0.616405,0.733403
1631290338804,-0.109739,-0.615246,0.737673
1631290338814,-0.109739,-0.613721,0.739991
1631290338823,-0.110959,-0.612928,0.74115
1631290338833,-0.111874,-0.612623,0.740601
1631290338843,-0.112484,-0.61183,0.739015
1631290338852,-0.11284999999999999,-0.6113419999999999,0.737551
1631290338862,-0.111874,-0.613355,0.7363919999999999
1631290338871,-0.111447,-0.615124,0.7357819999999999
1631290338881,-0.11083699999999999,-0.616771,0.737856
1631290338891,-0.10992199999999999,-0.618235,0.74054
1631290338900,-0.107665,-0.620919,0.741028
1631290338910,-0.10729899999999999,-0.622505,0.743529
1631290338919,-0.106445,-0.623847,0.744505
1631290338929,-0.10406599999999999,-0.626836,0.74298
1631290338939,-0.101504,-0.629032,0.73993
1631290338948,-0.09991799999999999,-0.632265,0.740235
1631290338958,-0.097051,-0.635254,0.741638
1631290338967,-0.095648,-0.638304,0.744505
1631290338977,-0.09394,-0.641049,0.746335
1631290338987,-0.092964,-0.643123,0.745664
1631290338996,-0.090158,-0.646905,0.746457
1631290339006,-0.088084,-0.648857,0.744932
1631290339015,-0.086254,-0.648064,0.742553
1631290339025,-0.084546,-0.6466,0.741089
1631290339035,-0.082106,-0.647942,0.741638
1631290339044,-0.078934,-0.652395,0.742614
1631290339054,-0.073749,-0.655689,0.7418819999999999
1631290339063,-0.071675,-0.658861,0.739259
1631290339073,-0.070089,-0.6600199999999999,0.73749
1631290339083,-0.067832,-0.660691,0.735904
1631290339092,-0.066429,-0.6618499999999999,0.734013
1631290339102,-0.065026,-0.663741,0.732854
1631290339111,-0.064416,-0.664351,0.73322
1631290339121,-0.063989,-0.6648999999999999,0.731573
1631290339131,-0.063989,-0.664168,0.732244
1631290339140,-0.063074,-0.664961,0.731878
1631290339150,-0.064294,-0.663863,0.732061
1631290339159,-0.063684,-0.6627649999999999,0.73322
1631290339169,-0.063013,-0.6627649999999999,0.733586
1631290339179,-0.064294,-0.660447,0.733281
1631290339188,-0.06417199999999999,-0.658922,0.732549
1631290339198,-0.064599,-0.656909,0.732793
1631290339207,-0.06527,-0.655018,0.731329
1631290339217,-0.06527,-0.652578,0.730719
1631290339227,-0.065941,-0.651053,0.7293769999999999
1631290339236,-0.067283,-0.647637,0.7281569999999999
1631290339246,-0.067893,-0.645807,0.728889
1631290339255,-0.068686,-0.645014,0.727364
1631290339265,-0.068564,-0.642635,0.725839
1631290339275,-0.068198,-0.641903,0.724314
1631290339284,-0.06801499999999999,-0.64172,0.723521
1631290339294,-0.068259,-0.6405,0.723399
1631290339303,-0.068686,-0.639524,0.72285
1631290339313,-0.068564,-0.638914,0.723338
1631290339323,-0.068564,-0.6393409999999999,0.723643
1631290339332,-0.068137,-0.640927,0.723277
1631290339342,-0.067466,-0.641415,0.723338
1631290339351,-0.066673,-0.642208,0.725656
1631290339361,-0.065636,-0.64477,0.724924
1631290339371,-0.062586,-0.647393,0.725229
1631290339380,-0.061793,-0.650504,0.72529
1631290339390,-0.061183,-0.652212,0.724924
1631290339399,-0.059292,-0.653615,0.725595
1631290339409,-0.057157,-0.654957,0.724497
1631290339419,-0.053314,-0.658922,0.722606
1631290339428,-0.051362,-0.662582,0.721935
1631290339438,-0.050447,-0.663802,0.722362
1631290339447,-0.048983,-0.6645949999999999,0.722484
1631290339457,-0.047640999999999996,-0.665876,0.722057
1631290339467,-0.047335999999999996,-0.665449,0.721569
1631290339476,-0.046482,-0.666059,0.721386
1631290339486,-0.044896,-0.6679499999999999,0.721386
1631290339495,-0.042395,-0.669536,0.720166
1631290339505,-0.040992,-0.671244,0.718336
1631290339515,-0.038979,-0.673135,0.719678
1631290339524,-0.038613,-0.673867,0.720288
1631290339534,-0.036478,-0.67588,0.720898
1631290339543,-0.035441,-0.678442,0.721508
1631290339553,-0.037271,-0.678564,0.721081
1631290339563,-0.03843,-0.676673,0.718214
1631290339572,-0.03965,-0.676124,0.71553
1631290339582,-0.041114,-0.677954,0.717299
1631290339591,-0.039345,-0.678503,0.720959
1631290339601,-0.039406,-0.679235,0.721081
1631290339611,-0.040626,-0.678198,0.718702
1631290339620,-0.042638999999999996,-0.677344,0.717482
1631290339630,-0.042638999999999996,-0.677466,0.715774
1631290339639,-0.043798,-0.676368,0.715469
1631290339649,-0.044591,-0.675819,0.716201
1631290339659,-0.047030999999999996,-0.67588,0.717482
1631290339668,-0.04758,-0.674599,0.7160179999999999
1631290339678,-0.048983,-0.671488,0.715957
1631290339687,-0.050813,-0.670024,0.71553
1631290339697,-0.051789,-0.668072,0.714432
1631290339707,-0.052582,-0.665388,0.713761
1631290339716,-0.054778,-0.664961,0.711992
1631290339726,-0.055815,-0.663863,0.713944
1631290339735,-0.058804,-0.660752,0.7147979999999999
1631290339745,-0.059597,-0.659227,0.714615
1631290339755,-0.061975999999999996,-0.658251,0.71614
1631290339764,-0.063196,-0.656726,0.7178479999999999
1631290339774,-0.064111,-0.656787,0.7175429999999999
1631290339783,-0.065026,-0.655628,0.7187629999999999
1631290339793,-0.066063,-0.655628,0.7198
1631290339803,-0.066368,-0.654713,0.720532
1631290339812,-0.06527,-0.657214,0.721447
1631290339822,-0.065453,-0.657153,0.721264
1631290339831,-0.06527,-0.654042,0.720959
1631290339841,-0.068564,-0.652273,0.723643
1631290339851,-0.068564,-0.653615,0.724375
1631290339860,-0.069296,-0.653249,0.723704
1631290339870,-0.068686,-0.653981,0.720776
1631290339879,-0.066673,-0.655567,0.718336
1631290339889,-0.066124,-0.655994,0.717787
1631290339899,-0.064416,-0.658373,0.716567
1631290339908,-0.06222,-0.662216,0.716811
1631290339918,-0.061426999999999995,-0.664168,0.716506
1631290339927,-0.061549,-0.663314,0.715896
1631290339937,-0.061915,-0.666486,0.717604
1631290339947,-0.060634,-0.668072,0.7190679999999999
1631290339956,-0.057828,-0.670268,0.7178479999999999
1631290339966,-0.054778,-0.673806,0.716506
1631290339975,-0.052886999999999997,-0.677832,0.7169329999999999
1631290339985,-0.050263999999999996,-0.6810039999999999,0.715652
1631290339995,-0.048617,-0.683688,0.717116
1631290340004,-0.046665,-0.68503,0.715835
1631290340014,-0.044591,-0.6880189999999999,0.714066
1631290340023,-0.041479999999999996,-0.6889339999999999,0.713029
1631290340033,-0.040931,-0.6895439999999999,0.7123579999999999
1631290340043,-0.042395,-0.689788,0.712114
1631290340052,-0.041784999999999996,-0.689422,0.711199
1631290340062,-0.039284,-0.687592,0.708454
1631290340071,-0.035258,-0.6871039999999999,0.7096129999999999
1631290340081,-0.034343,-0.68625,0.7090029999999999
1631290340091,-0.032757,-0.685701,0.707356
1631290340100,-0.032085999999999996,-0.6852739999999999,0.703269
1631290340110,-0.031354,-0.68503,0.700097
1631290340119,-0.030866,-0.6837489999999999,0.69601
1631290340129,-0.032269,-0.684176,0.693326
1631290340139,-0.032695999999999996,-0.6834439999999999,0.693021
1631290340148,-0.034648,-0.682712,0.694363
1631290340158,-0.034404,-0.68442,0.6954
1631290340167,-0.032879,-0.686311,0.69662
1631290340177,-0.031476,-0.686067,0.697657
1631290340187,-0.0305,-0.68625,0.697596
1631290340196,-0.029341,-0.6846639999999999,0.696681
1631290340206,-0.030134,-0.6837489999999999,0.693631
1631290340215,-0.032757,-0.6810039999999999,0.689178
1631290340225,-0.034282,-0.680028,0.6880189999999999
1631290340235,-0.035746,-0.679723,0.6871039999999999
1631290340244,-0.033184,-0.6800889999999999,0.686433
1631290340254,-0.029828999999999998,-0.68503,0.6892389999999999
1631290340263,-0.027389,-0.68869,0.689422
1631290340273,-0.02623,-0.689971,0.691252
1631290340283,-0.024339,-0.691008,0.689056
1631290340292,-0.020862,-0.692045,0.68381
1631290340302,-0.02013,-0.693021,0.67771
1631290340311,-0.016774999999999998,-0.695583,0.675514
1631290340321,-0.017873,-0.695827,0.671793
1631290340331,-0.020191,-0.698572,0.668682
1631290340340,-0.020739999999999998,-0.700707,0.663436
1631290340350,-0.018361,-0.70455,0.6618499999999999
1631290340359,-0.018543999999999998,-0.708149,0.6612399999999999
1631290340369,-0.017324,-0.714737,0.666303
1631290340379,-0.012993,-0.720105,0.666059
1631290340388,-0.009943,-0.7272419999999999,0.6642899999999999
1631290340398,-0.010187,-0.7312069999999999,0.660508
1631290340407,-0.014701,-0.736026,0.655384
1631290340417,-0.019459,-0.74054,0.650199
1631290340427,-0.020739999999999998,-0.744871,0.646112
1631290340436,-0.019764,-0.749812,0.645075
1631290340446,-0.019337,-0.751825,0.643062
1631290340455,-0.018483,-0.750727,0.640134
1631290340465,-0.021533,-0.750727,0.6347659999999999
1631290340475,-0.021899,-0.753472,0.625189
1631290340484,-0.023546,-0.758108,0.615856
1631290340494,-0.023912,-0.770857,0.610244
1631290340503,-0.022326,-0.7814099999999999,0.606645
1631290340513,-0.021533,-0.789279,0.603351
1631290340523,-0.019275999999999998,-0.795257,0.6039
1631290340532,-0.017019,-0.79605,0.601094
1631290340542,-0.017141,-0.795623,0.599203
1631290340551,-0.016165,-0.798856,0.597556
1631290340561,-0.017568,-0.80032,0.596336
1631290340571,-0.017934,-0.800076,0.597556
1631290340580,-0.023546,-0.799893,0.598227
1631290340590,-0.030439,-0.7987339999999999,0.599325
1631290340599,-0.036112,-0.8017839999999999,0.596702
1631290340609,-0.039710999999999996,-0.805017,0.591212
1631290340619,-0.042334,-0.807762,0.58316
1631290340628,-0.043615,-0.809226,0.577731
1631290340638,-0.043737,-0.8130689999999999,0.576755
1631290340647,-0.040931,-0.817766,0.577365
1631290340657,-0.038246999999999996,-0.820511,0.578951
1631290340667,-0.036844,-0.82167,0.577609
1631290340676,-0.035075,-0.821548,0.575047
1631290340686,-0.032390999999999996,-0.821487,0.573888
1631290340695,-0.032635,-0.817827,0.56913
1631290340705,-0.02989,-0.815448,0.568398
1631290340715,-0.028243,-0.813801,0.565226
1631290340724,-0.024827,-0.812215,0.563762
1631290340734,-0.022997,-0.8113,0.561993
1631290340743,-0.019459,-0.8097139999999999,0.559431
1631290340753,-0.014457,-0.810263,0.560468
1631290340763,-0.008601,-0.809775,0.5620539999999999
1631290340772,-0.006222,-0.808128,0.563823
1631290340782,-0.004209,-0.806786,0.564982
1631290340791,0.0,-0.808677,0.570228
1631290340801,0.004209,-0.8100189999999999,0.571875
1631290340811,0.003355,-0.805688,0.569618
1631290340820,0.004941,-0.804285,0.569862
1631290340830,0.0071979999999999995,-0.800015,0.56791
1631290340839,0.008479,-0.794342,0.565592
1631290340849,0.011956,-0.79239,0.564128
1631290340859,0.015616,-0.7908649999999999,0.563823
1631290340868,0.019154,-0.793671,0.5684589999999999
1631290340878,0.022387,-0.795013,0.57096
1631290340887,0.026779,-0.794586,0.5690689999999999
1631290340897,0.02928,-0.797331,0.570472
1631290340907,0.034526,-0.801113,0.573949
1631290340916,0.034892,-0.800381,0.574559
1631290340926,0.035013999999999997,-0.79727,0.574925
1631290340935,0.033916,-0.791902,0.576084
1631290340945,0.033672,-0.785924,0.580903
1631290340955,0.033733,-0.7829349999999999,0.5854779999999999
1631290340964,0.033123,-0.783118,0.59414
1631290340974,0.033794,-0.780129,0.598044
1631290340983,0.034282,-0.774273,0.5967629999999999
1631290340993,0.035441,-0.768234,0.592432
1631290341003,0.036905,-0.7665259999999999,0.591456
1631290341012,0.040809,-0.767014,0.592005
1631290341022,0.041846,-0.766282,0.589931
1631290341031,0.043127,-0.766404,0.592066
1631290341041,0.040320999999999996,-0.764452,0.591456
1631290341051,0.039406,-0.760792,0.589687
1631290341060,0.036417,-0.761158,0.591761
1631290341070,0.034709,-0.76677,0.60207
1631290341079,0.033306,-0.766587,0.605974
1631290341089,0.030866,-0.763842,0.605364
1631290341099,0.028548,-0.759572,0.603168
1631290341108,0.028304,-0.7592059999999999,0.601338
1631290341118,0.029585,-0.762683,0.606157
1631290341127,0.031781,-0.766587,0.608719
1631290341137,0.030560999999999998,-0.767868,0.612684
1631290341147,0.029158,-0.770003,0.618479
1631290341156,0.025498,-0.773114,0.62586
1631290341166,0.023912,-0.775859,0.630557
1631290341175,0.024949,-0.7768349999999999,0.631228
1631290341185,0.023667999999999998,-0.7746999999999999,0.630923
1631290341195,0.020435,-0.773724,0.632265
1631290341204,0.019215,-0.773602,0.636718
1631290341214,0.023546,-0.773175,0.632997
1631290341223,0.019947,-0.768051,0.632204
1631290341233,0.019703,-0.764574,0.632143
1631290341243,0.020313,-0.7619509999999999,0.631167
1631290341252,0.021533,-0.7622559999999999,0.632082
1631290341262,0.022692,-0.766892,0.632875
1631290341271,0.023607,-0.769393,0.634644
1631290341281,0.023607,-0.768356,0.634339
1631290341291,0.02318,-0.7646959999999999,0.634522
1631290341300,0.022753,-0.7604259999999999,0.632875
1631290341310,0.021289,-0.753594,0.632509
1631290341319,0.020801,-0.749446,0.628056
1631290341329,0.02135,-0.745786,0.623664
1631290341339,0.021777,-0.738039,0.617808
1631290341348,0.020923,-0.735111,0.615063
1631290341358,0.021106,-0.734684,0.617259
1631290341367,0.020435,-0.7373069999999999,0.6177469999999999
1631290341377,0.019459,-0.7388319999999999,0.617686
1631290341387,0.019947,-0.738893,0.615551
1631290341396,0.01891,-0.741699,0.614331
1631290341406,0.020923,-0.748836,0.615673
1631290341415,0.024156,-0.756095,0.61793
1631290341425,0.024156,-0.762317,0.618174
1631290341435,0.024827,-0.768905,0.624213
1631290341444,0.022387,-0.774822,0.631777
1631290341454,0.022203999999999998,-0.777872,0.637938
1631290341463,0.018666,-0.777384,0.640439
1631290341473,0.014152,-0.7753099999999999,0.642269
1631290341483,0.01159,-0.771894,0.6420859999999999
1631290341492,0.012078,-0.768356,0.640134
1631290341502,0.013908,-0.767014,0.638609
1631290341511,0.015189,-0.766404,0.6384259999999999
1631290341521,0.0183,-0.7653059999999999,0.6384259999999999
1631290341531,0.020007999999999998,-0.764574,0.638304
1631290341540,0.020007999999999998,-0.762134,0.63745
1631290341550,0.021289,-0.75823,0.634522
1631290341559,0.022509,-0.754265,0.6323259999999999
1631290341569,0.020739999999999998,-0.747982,0.628788
1631290341579,0.019093,-0.744566,0.625738
1631290341588,0.019886,-0.740723,0.622993
1631290341598,0.019825,-0.737124,0.622749
1631290341607,0.019275999999999998,-0.73627,0.621346
1631290341617,0.020252,-0.738039,0.617381
1631290341627,0.021838,-0.740601,0.614026
1631290341636,0.022875,-0.74298,0.61366
1631290341646,0.025131999999999998,-0.745908,0.6150019999999999
1631290341655,0.025254,-0.748592,0.617625
1631290341665,0.024399999999999998,-0.750239,0.621651
1631290341675,0.021411,-0.751032,0.627873
1631290341684,0.020191,-0.752252,0.630191
1631290341694,0.016653,-0.7509709999999999,0.633912
1631290341703,0.014701,-0.749995,0.636657
1631290341713,0.012078,-0.748958,0.6408659999999999
1631290341723,0.011467999999999999,-0.750056,0.642269
1631290341732,0.010797,-0.7503,0.640988
1631290341742,0.009699,-0.74908,0.6390359999999999
1631290341751,0.007869,-0.748836,0.6393409999999999
1631290341761,0.006161,-0.748714,0.640012
1631290341771,0.004758,-0.74786,0.640744
1631290341780,0.002013,-0.745542,0.6414759999999999
1631290341790,0.000366,-0.743163,0.640744
1631290341799,-0.002013,-0.7415769999999999,0.639524
1631290341809,-0.0037819999999999998,-0.74054,0.641598
1631290341819,-0.004331,-0.741333,0.642879
1631290341828,-0.003355,-0.741943,0.645258
1631290341838,-0.004026,-0.741211,0.646051
1631290341847,-0.0030499999999999998,-0.742126,0.648186
1631290341857,-0.0034159999999999998,-0.74237,0.648918
1631290341867,-0.004026,-0.7431019999999999,0.650748
1631290341876,-0.0044529999999999995,-0.744566,0.651236
1631290341886,-0.002989,-0.744993,0.652761
1631290341895,-0.0030499999999999998,-0.744017,0.655506
1631290341905,-0.002074,-0.74359,0.660874
1631290341915,-0.0023179999999999997,-0.740906,0.6636799999999999
1631290341924,-0.0026839999999999998,-0.7381,0.6658149999999999
1631290341934,-0.002562,-0.7370019999999999,0.670146
1631290341943,-0.0026839999999999998,-0.735843,0.668743
1631290341953,-0.005124,-0.731634,0.663009
1631290341963,-0.008418,-0.726754,0.652944
1631290341972,-0.012565999999999999,-0.7198,0.644465
1631290341982,-0.019032,-0.715164,0.6408659999999999
1631290341991,-0.021594,-0.7141879999999999,0.645807
1631290342001,-0.024217,-0.71858,0.659166
1631290342011,-0.024766,-0.721264,0.672037
1631290342020,-0.024095,-0.721691,0.682651
1631290342030,-0.020862,-0.721569,0.690886
1631290342039,-0.016714,-0.720044,0.693997
1631290342049,-0.014152,-0.718946,0.69357
1631290342059,-0.011833999999999999,-0.714554,0.6889339999999999
1631290342068,-0.011041,-0.710345,0.682651
1631290342078,-0.010003999999999999,-0.710284,0.676734
1631290342087,-0.008662,-0.7096129999999999,0.670146
1631290342097,-0.009943,-0.707661,0.6661199999999999
1631290342107,-0.009455,-0.707539,0.662094
1631290342116,-0.012627,-0.7076,0.661911
1631290342126,-0.015006,-0.706929,0.662338
1631290342135,-0.016714,-0.70455,0.661911
1631290342145,-0.018666,-0.70394,0.661057
1631290342155,-0.018483,-0.7062579999999999,0.663253
1631290342164,-0.017019,-0.711199,0.6658149999999999
1631290342174,-0.01464,-0.718214,0.6682549999999999
1631290342183,-0.012199999999999999,-0.721203,0.6673399999999999
1631290342193,-0.010492,-0.723155,0.665144
1631290342203,-0.008235,-0.727364,0.6667299999999999
1631290342212,-0.005795,-0.731085,0.668499
1631290342222,-0.005124,-0.732183,0.667767
1631290342231,-0.006527,-0.7318169999999999,0.666364
1631290342241,-0.006771,-0.7315119999999999,0.667218
1631290342251,-0.008479,-0.730658,0.6685599999999999
1631290342260,-0.011407,-0.7284619999999999,0.672525
1631290342270,-0.011956,-0.725534,0.674233
1631290342279,-0.013054,-0.721325,0.675392
1631290342289,-0.010675,-0.719678,0.67405
1631290342299,-0.008052,-0.717665,0.675148
1631290342308,-0.005978,-0.717116,0.676307
1631290342318,-0.0055509999999999995,-0.714066,0.675575
1631290342327,-0.0053679999999999995,-0.711931,0.67527
1631290342337,-0.006222,-0.709857,0.676795
1631290342347,-0.008662,-0.706502,0.678808
1631290342356,-0.00976,-0.703086,0.678991
1631290342366,-0.011041,-0.69967,0.67832
1631290342375,-0.012383,-0.696315,0.6797839999999999
1631290342385,-0.012688,-0.69357,0.677832
1631290342395,-0.012322,-0.693082,0.678503
1631290342404,-0.010919,-0.6928989999999999,0.6791739999999999
1631290342414,-0.011467999999999999,-0.6916789999999999,0.679418
1631290342423,-0.012444,-0.691496,0.6813089999999999
1631290342433,-0.014761999999999999,-0.690703,0.685762
1631290342443,-0.017446,-0.687897,0.687592
1631290342452,-0.020435,-0.692777,0.6932039999999999
1631290342462,-0.020374,-0.696681,0.694241
1631290342471,-0.02013,-0.699975,0.69418
1631290342481,-0.0183,-0.700951,0.6910689999999999
1631290342491,-0.017934,-0.701256,0.688263
1631290342500,-0.016531,-0.700768,0.684237
1631290342510,-0.015006,-0.702293,0.682712
1631290342519,-0.017079999999999998,-0.7038179999999999,0.683017
1631290342529,-0.017568,-0.704794,0.6834439999999999
1631290342539,-0.021471999999999998,-0.704184,0.689666
1631290342548,-0.025436999999999998,-0.7047329999999999,0.693753
1631290342558,-0.023546,-0.7015,0.690886
1631290342567,-0.026535,-0.695156,0.685823
1631290342577,-0.024827,-0.6938139999999999,0.6837489999999999
1631290342587,-0.021655,-0.693753,0.681736
1631290342596,-0.017568,-0.695095,0.679601
1631290342606,-0.014518,-0.696254,0.677405
1631290342615,-0.014579,-0.6941189999999999,0.674355
1631290342625,-0.015921,-0.6935089999999999,0.67405
1631290342635,-0.017263,-0.696376,0.6794789999999999
1631290342644,-0.021106,-0.698023,0.680028
1631290342654,-0.023851,-0.699182,0.678747
1631290342663,-0.022387,-0.7035129999999999,0.679845
1631290342673,-0.018788,-0.706502,0.678991
1631290342683,-0.015493999999999999,-0.70821,0.676856
1631290342692,-0.012931999999999999,-0.7108329999999999,0.675941
1631290342702,-0.012199999999999999,-0.7138829999999999,0.67527
1631290342711,-0.013115,-0.7169329999999999,0.677161
1631290342721,-0.015372,-0.720044,0.682102
1631290342731,-0.015677,-0.721874,0.68381
1631290342740,-0.017506999999999998,-0.72407,0.68503
1631290342750,-0.018361,-0.727913,0.686738
1631290342759,-0.019032,-0.729255,0.690581
1631290342769,-0.020862,-0.7284619999999999,0.690215
1631290342779,-0.024704999999999998,-0.723765,0.68869
1631290342788,-0.030255999999999998,-0.71919,0.686555
1631290342798,-0.033123,-0.717787,0.683566
1631290342807,-0.035502,-0.713822,0.6822239999999999
1631290342817,-0.038125,-0.710467,0.68381
1631290342827,-0.042212,-0.707112,0.685518
1631290342836,-0.044164,-0.70638,0.685701
1631290342846,-0.044957,-0.70577,0.684603
1631290342855,-0.047335999999999996,-0.704672,0.6797839999999999
1631290342865,-0.049837,-0.701317,0.676917
1631290342875,-0.050935,-0.699548,0.676185
1631290342884,-0.052337999999999996,-0.699304,0.675697
1631290342894,-0.053496999999999996,-0.697596,0.677527
1631290342903,-0.053314,-0.696986,0.678869
1631290342913,-0.053191999999999996,-0.695766,0.680638
1631290342923,-0.055570999999999995,-0.693936,0.681248
1631290342932,-0.055998,-0.6938139999999999,0.6843589999999999
1631290342942,-0.055327,-0.695522,0.6880189999999999
1631290342951,-0.057401,-0.697474,0.693021
1631290342961,-0.057706,-0.698511,0.699548
1631290342971,-0.058987,-0.699182,0.70333
1631290342980,-0.059352999999999996,-0.698145,0.70577
1631290342990,-0.060878,-0.695583,0.707234
1631290342999,-0.062159,-0.693875,0.707112
1631290343009,-0.06344,-0.692533,0.704611
1631290343019,-0.062159,-0.691252,0.702659
1631290343028,-0.06405,-0.6910689999999999,0.703635
1631290343038,-0.06417199999999999,-0.6907639999999999,0.704794
1631290343047,-0.064904,-0.6893,0.7059529999999999
1631290343057,-0.06770999999999999,-0.6871039999999999,0.706136
1631290343067,-0.068503,-0.687287,0.705709
1631290343076,-0.067954,-0.686311,0.70516
1631290343086,-0.067344,-0.686128,0.704611
1631290343095,-0.066368,-0.686006,0.704794
1631290343105,-0.066978,-0.685213,0.705404
1631290343115,-0.067771,-0.6828339999999999,0.707356
1631290343124,-0.068198,-0.679113,0.708942
1631290343134,-0.06893,-0.675514,0.712175
1631290343143,-0.06770999999999999,-0.674111,0.712724
1631290343153,-0.065331,-0.671305,0.711687
1631290343163,-0.062403,-0.668987,0.710406
1631290343172,-0.059597,-0.667523,0.711321
1631290343182,-0.057462,-0.667462,0.712419
1631290343191,-0.054839,-0.6673399999999999,0.711992
1631290343201,-0.053924,-0.667828,0.7111379999999999
1631290343211,-0.054655999999999996,-0.668621,0.71187
1631290343220,-0.053253,-0.667828,0.71004
1631290343230,-0.051484,-0.668072,0.7090029999999999
1631290343239,-0.051972,-0.6691699999999999,0.709674
1631290343249,-0.051301,-0.671732,0.7123579999999999
1631290343259,-0.049593,-0.67466,0.710894
1631290343268,-0.04697,-0.676612,0.707966
1631290343278,-0.044225,-0.678625,0.706441
1631290343287,-0.042943999999999996,-0.679296,0.705465
1631290343297,-0.041602,-0.679113,0.704306
1631290343307,-0.039955,-0.678686,0.703086
1631290343316,-0.040320999999999996,-0.677771,0.701988
1631290343326,-0.039345,-0.676734,0.699853
1631290343335,-0.038735,-0.677222,0.700707
1631290343345,-0.036539,-0.677283,0.700219
1631290343355,-0.033977,-0.677161,0.700219
1631290343364,-0.03172,-0.678686,0.699121
1631290343374,-0.027938,-0.680577,0.697474
1631290343383,-0.026168999999999998,-0.6810039999999999,0.6944239999999999
1631290343393,-0.025131999999999998,-0.683261,0.692533
1631290343403,-0.025925,-0.684908,0.69113
1631290343412,-0.025436999999999998,-0.688385,0.690825
1631290343422,-0.026474,-0.691313,0.6916789999999999
1631290343431,-0.02745,-0.692838,0.6928989999999999
1631290343441,-0.027632999999999998,-0.695766,0.694851
1631290343451,-0.027816,-0.698755,0.698694
1631290343460,-0.028914,-0.700341,0.702781
1631290343470,-0.028853,-0.699853,0.707844
1631290343479,-0.029707,-0.699121,0.7120529999999999
1631290343489,-0.03111,-0.697657,0.7132729999999999
1631290343499,-0.031903,-0.69601,0.7126629999999999
1631290343508,-0.032757,-0.694729,0.711565
1631290343518,-0.032452,-0.694546,0.710894
1631290343527,-0.032390999999999996,-0.695339,0.70943
1631290343537,-0.031232,-0.695522,0.709186
1631290343547,-0.030744,-0.695583,0.709064
1631290343556,-0.031964,-0.694302,0.707234
1631290343566,-0.031293,-0.690581,0.7044279999999999
1631290343575,-0.032452,-0.687775,0.702598
1631290343585,-0.032390999999999996,-0.687165,0.705526
1631290343595,-0.030866,-0.6883239999999999,0.708881
1631290343604,-0.031903,-0.687165,0.7102229999999999
1631290343614,-0.033489,-0.685457,0.704367
1631290343623,-0.034404,-0.686433,0.698999
1631290343633,-0.032147,-0.689056,0.695583
1631290343643,-0.028182,-0.692655,0.696742
1631290343652,-0.026108,-0.694546,0.695522
1631290343662,-0.024644,-0.699243,0.697108
1631290343671,-0.021471999999999998,-0.702781,0.697596
1631290343681,-0.021716,-0.70028,0.698938
1631290343691,-0.020923,-0.699853,0.697535
1631290343700,-0.02867,-0.688263,0.7071729999999999
1631290343710,-0.024461,-0.686311,0.690398
1631290343719,-0.021716,-0.68747,0.685152
1631290343729,-0.019032,-0.68991,0.685945
1631290343739,-0.018788,-0.691435,0.68991
1631290343748,-0.014335,-0.69296,0.6892389999999999
1631290343758,-0.013359,-0.689483,0.687043
1631290343767,-0.010187,-0.686982,0.684481
1631290343777,-0.008296,-0.688568,0.685152
1631290343787,-0.005795,-0.6893,0.6861889999999999
1631290343796,-0.007137,-0.689361,0.688202
1631290343806,-0.006588,-0.690642,0.6874089999999999
1631290343815,-0.005307,-0.6904589999999999,0.686067
1631290343825,-0.007259,-0.6919839999999999,0.689178
1631290343835,-0.009455,-0.69296,0.691191
1631290343844,-0.012199999999999999,-0.692106,0.690703
1631290343854,-0.015921,-0.694668,0.685823
1631290343863,-0.01525,-0.697535,0.685152
1631290343873,-0.017324,-0.698511,0.683261
1631290343883,-0.014335,-0.698938,0.6871039999999999
1631290343892,-0.009699,-0.700646,0.690337
1631290343902,-0.009943,-0.704977,0.690825
1631290343911,-0.010553,-0.70699,0.6874089999999999
1631290343921,-0.014274,-0.704855,0.68686
1631290343931,-0.019703,-0.703086,0.689178
1631290343940,-0.019764,-0.703025,0.689971
1631290343950,-0.018239,-0.702842,0.687043
1631290343959,-0.01769,-0.7032079999999999,0.68686
1631290343969,-0.011285,-0.702537,0.6810039999999999
1631290343979,-0.0023179999999999997,-0.708881,0.681858
1631290343988,0.00061,-0.710284,0.683932
1631290343998,-0.001647,-0.710406,0.68747
1631290344007,-0.002562,-0.7102229999999999,0.6941189999999999
1631290344017,-0.0026839999999999998,-0.708454,0.69723
1631290344027,-0.0021349999999999997,-0.707966,0.696071
1631290344036,-0.001586,-0.7053429999999999,0.693692
1631290344046,-0.003904,-0.7038179999999999,0.69052
1631290344055,-0.005124,-0.701012,0.687958
1631290344065,-0.0055509999999999995,-0.699365,0.6843589999999999
1631290344075,-0.0066489999999999995,-0.70089,0.67954
1631290344084,-0.0032329999999999998,-0.70638,0.675148
1631290344094,0.0030499999999999998,-0.710406,0.676002
1631290344103,0.0048189999999999995,-0.7135779999999999,0.678381
1631290344113,0.003538,-0.7144929999999999,0.678747
1631290344123,0.003721,-0.715347,0.680577
1631290344132,0.0030499999999999998,-0.712907,0.68137
1631290344142,-0.000122,-0.712602,0.680516
1631290344151,0.001098,-0.7114429999999999,0.68015
1631290344161,-0.001464,-0.710894,0.676734
1631290344171,-0.003111,-0.710406,0.673684
1631290344180,-0.00488,-0.709369,0.675819
1631290344190,-0.008296,-0.709369,0.679845
1631290344199,-0.010675,-0.710162,0.685152
1631290344209,-0.014884,-0.708332,0.689178
1631290344219,-0.017934,-0.707539,0.69296
1631290344228,-0.021716,-0.7038179999999999,0.695034
1631290344238,-0.025803,-0.698999,0.696681
1631290344247,-0.028914,-0.697535,0.698877
1631290344257,-0.030255999999999998,-0.694668,0.701012
1631290344267,-0.031598,-0.6919839999999999,0.706197
1631290344276,-0.031354,-0.690825,0.70882
1631290344286,-0.0305,-0.689788,0.7096129999999999
1631290344295,-0.02745,-0.689422,0.7093079999999999
1631290344305,-0.025315,-0.688812,0.707295
1631290344315,-0.023729,-0.689788,0.704367
1631290344324,-0.02196,-0.689605,0.702537
1631290344334,-0.022265,-0.688385,0.69967
1631290344343,-0.021899,-0.686677,0.696864
1631290344353,-0.021594,-0.686311,0.695034
1631290344363,-0.020069,-0.685457,0.693875
1631290344372,-0.016531,-0.686433,0.6954
1631290344382,-0.012688,-0.687653,0.693326
1631290344391,-0.008173999999999999,-0.690215,0.6901539999999999
1631290344401,-0.0037819999999999998,-0.69296,0.689483
1631290344411,0.000976,-0.695095,0.6901539999999999
1631290344420,0.004575,-0.696315,0.689727
1631290344430,0.0077469999999999995,-0.697535,0.689422
1631290344439,0.010248,-0.69845,0.691923
1631290344449,0.011407,-0.701195,0.696559
1631290344459,0.012444,-0.70211,0.700829
1631290344468,0.010065,-0.698328,0.701561
1631290344478,0.008173999999999999,-0.697657,0.700707
1631290344487,0.007137,-0.696193,0.696742
1631290344497,0.006222,-0.694363,0.691313
1631290344507,0.008967,-0.695644,0.68625
1631290344516,0.012139,-0.696803,0.68442
1631290344526,0.014823,-0.698511,0.683993
1631290344535,0.016958,-0.697962,0.686006
1631290344545,0.019337,-0.697657,0.687287
1631290344555,0.020679,-0.696315,0.688385
1631290344564,0.020923,-0.694729,0.690032
1631290344574,0.022631,-0.69418,0.691008
1631290344583,0.023058,-0.692167,0.69174
1631290344593,0.020496,-0.6904589999999999,0.690825
1631290344603,0.019764,-0.691252,0.691191
1631290344612,0.020557,-0.691496,0.690703
1631290344622,0.020557,-0.692167,0.690093
1631290344631,0.0183,-0.6913739999999999,0.69113
1631290344641,0.015982,-0.691923,0.6919839999999999
1631290344651,0.015799,-0.693143,0.693326
1631290344660,0.015555,-0.69357,0.695217
1631290344670,0.014701,-0.69357,0.69723
1631290344679,0.014761999999999999,-0.6944239999999999,0.69845
1631290344689,0.012749,-0.6935089999999999,0.696803
1631290344699,0.011895,-0.694851,0.696681
1631290344708,0.010187,-0.696742,0.696864
1631290344718,0.011163,-0.696071,0.698999
1631290344727,0.009333,-0.694302,0.698816
1631290344737,0.006954,-0.692838,0.697413
1631290344747,0.0062829999999999995,-0.691191,0.698328
1631290344756,0.0032329999999999998,-0.689605,0.696986
1631290344766,0.002379,-0.688812,0.693997
1631290344775,-0.00042699999999999997,-0.690032,0.691496
1631290344785,0.0006709999999999999,-0.692411,0.691435
1631290344795,0.001586,-0.694302,0.6907639999999999
1631290344804,0.000793,-0.698206,0.692533
1631290344814,0.00122,-0.697779,0.6907639999999999
1631290344823,-0.007076,-0.694668,0.691618
1631290344833,0.005307,-0.695583,0.690947
1631290344843,0.0017079999999999999,-0.696803,0.696315
1631290344852,-6.1e-05,-0.6941189999999999,0.700036
1631290344862,-0.000549,-0.692411,0.691496
1631290344871,-0.001403,-0.691862,0.6944239999999999
1631290344881,-0.0008539999999999999,-0.693143,0.696376
1631290344891,-0.003477,-0.693082,0.699426
1631290344900,-0.00671,-0.690337,0.701988
1631290344910,-0.012199999999999999,-0.685762,0.703391
1631290344919,-0.017079999999999998,-0.68381,0.704489
1631290344929,-0.020252,-0.680455,0.706502
1631290344939,-0.023667999999999998,-0.679418,0.706624
1631290344948,-0.027816,-0.68076,0.707112
1631290344958,-0.033306,-0.6771,0.70882
1631290344967,-0.043676,-0.669292,0.721874
1631290344977,-0.040015999999999996,-0.679967,0.711809
1631290344987,-0.037637,-0.678503,0.7108329999999999
1631290344996,-0.041174999999999996,-0.678808,0.713822
1631290345006,-0.044957,-0.676673,0.7166279999999999
1631290345015,-0.047030999999999996,-0.677283,0.721386
1631290345025,-0.049532,-0.67649,0.727608
1631290345035,-0.05063,-0.675758,0.72956
1631290345044,-0.052216,-0.67466,0.729499
1631290345054,-0.052704,-0.673928,0.7315119999999999
1631290345063,-0.053314,-0.673013,0.731268
1631290345073,-0.054778,-0.670573,0.728096
1631290345083,-0.052521,-0.668987,0.72651
1631290345092,-0.052032999999999996,-0.667462,0.725534
1631290345102,-0.051545,-0.666974,0.725595
1631290345111,-0.051789,-0.665449,0.723948
1631290345121,-0.051606,-0.6618499999999999,0.725168
1631290345131,-0.05185,-0.6591049999999999,0.723399
1631290345140,-0.051727999999999996,-0.657092,0.724314
1631290345150,-0.05002,-0.655811,0.723094
1631290345159,-0.048861,-0.654591,0.722118
1631290345169,-0.048434,-0.653615,0.72041
1631290345179,-0.046726,-0.654408,0.716994
1631290345188,-0.048068,-0.653981,0.717421
1631290345198,-0.048129,-0.652578,0.717665
1631290345207,-0.05063,-0.651419,0.720044
1631290345217,-0.051667,-0.648857,0.721752
1631290345227,-0.056547,-0.64538,0.724314
1631290345236,-0.05978,-0.642574,0.7275469999999999
1631290345246,-0.060268,-0.642452,0.731024
1631290345255,-0.060634,-0.644587,0.7373069999999999
1631290345265,-0.058865,-0.647149,0.741699
1631290345275,-0.057706,-0.649589,0.745115
1631290345284,-0.054351,-0.648796,0.744566
1631290345294,-0.05063,-0.648857,0.747616
1631290345303,-0.04819,-0.649223,0.750361
1631290345313,-0.047824,-0.647576,0.750117
1631290345323,-0.048312,-0.646722,0.746884
1631290345332,-0.049044,-0.645075,0.741455
1631290345342,-0.048739,-0.643062,0.7357819999999999
1631290345351,-0.048678,-0.643977,0.732
1631290345361,-0.049409999999999996,-0.643367,0.731634
1631290345371,-0.049532,-0.643489,0.731146
1631290345380,-0.051057,-0.644892,0.730658
1631290345390,-0.050691,-0.644892,0.732976
1631290345399,-0.051118,-0.6439159999999999,0.732915
1631290345409,-0.051484,-0.644465,0.730475
1631290345419,-0.051911,-0.645807,0.730414
1631290345428,-0.054046,-0.645807,0.731146
1631290345438,-0.056364,-0.64599,0.729865
1631290345447,-0.057828,-0.6439159999999999,0.7293769999999999
1631290345457,-0.06161,-0.643062,0.731756
1631290345467,-0.065636,-0.64172,0.73322
1631290345476,-0.069784,-0.639768,0.733769
1631290345486,-0.071919,-0.639402,0.736575
1631290345495,-0.071309,-0.641537,0.739198
1631290345505,-0.068869,-0.6454409999999999,0.739381
1631290345515,-0.069662,-0.64843,0.740235
1631290345524,-0.07442,-0.648003,0.743834
1631290345534,-0.078263,-0.64599,0.7418819999999999
1631290345543,-0.080825,-0.644282,0.7409669999999999
1631290345553,-0.081496,-0.643428,0.7418819999999999
1631290345563,-0.081496,-0.644099,0.742736
1631290345572,-0.082716,-0.642513,0.743834
1631290345582,-0.084119,-0.641049,0.743285
1631290345591,-0.086376,-0.6408659999999999,0.743956
1631290345601,-0.086864,-0.639463,0.739381
1631290345611,-0.0854,-0.640134,0.737978
1631290345620,-0.087291,-0.6396459999999999,0.736819
1631290345630,-0.088938,-0.63684,0.7342569999999999
1631290345639,-0.08845,-0.636108,0.73566
1631290345649,-0.089365,-0.636779,0.7373069999999999
1631290345659,-0.087962,-0.6378159999999999,0.735843
1631290345668,-0.08527799999999999,-0.638304,0.734501
1631290345678,-0.086132,-0.639402,0.734684
1631290345687,-0.085705,-0.6405609999999999,0.73444
1631290345697,-0.085034,-0.641415,0.736636
1631290345707,-0.08479,-0.641415,0.734318
1631290345716,-0.084424,-0.641659,0.733525
1631290345726,-0.08265499999999999,-0.643977,0.733586
1631290345735,-0.082228,-0.648796,0.731268
1631290345745,-0.081618,-0.650382,0.730536
1631290345755,-0.082838,-0.651297,0.728035
1631290345764,-0.084119,-0.651724,0.7299869999999999
1631290345774,-0.083692,-0.651785,0.7330369999999999
1631290345783,-0.085339,-0.651602,0.738466
1631290345793,-0.087718,-0.650016,0.742431
1631290345803,-0.088999,-0.646844,0.741333
1631290345812,-0.090219,-0.646112,0.739198
1631290345822,-0.089304,-0.648369,0.7366969999999999
1631290345831,-0.089792,-0.648613,0.733159
1631290345841,-0.089914,-0.647637,0.73444
1631290345851,-0.090829,-0.647698,0.736026
1631290345860,-0.090097,-0.648247,0.7376119999999999
1631290345870,-0.090951,-0.647088,0.737124
1631290345879,-0.089304,-0.64782,0.737368
1631290345889,-0.089548,-0.647454,0.736148
1631290345899,-0.089182,-0.647759,0.734806
1631290345908,-0.092537,-0.645563,0.735904
1631290345918,-0.095038,-0.643855,0.73505
1631290345927,-0.094489,-0.6426959999999999,0.735294
1631290345937,-0.092537,-0.641537,0.7376119999999999
1631290345947,-0.091866,-0.640134,0.736148
1631290345956,-0.091012,-0.639768,0.737063
1631290345966,-0.089609,-0.6405609999999999,0.7366969999999999
1631290345975,-0.087596,-0.639768,0.736148
1631290345985,-0.087718,-0.639707,0.7354769999999999
1631290345995,-0.087108,-0.641293,0.735355
1631290346004,-0.087413,-0.641293,0.73444
1631290346014,-0.087169,-0.640927,0.732183
1631290346023,-0.087962,-0.640378,0.731695
1631290346033,-0.086681,-0.639402,0.733281
1631290346043,-0.088023,-0.63928,0.733098
1631290346052,-0.08784,-0.638975,0.7339519999999999
1631290346062,-0.087108,-0.638548,0.734928
1631290346071,-0.08662,-0.637999,0.7345619999999999
1631290346081,-0.08790099999999999,-0.6405609999999999,0.734318
1631290346091,-0.08649799999999999,-0.64355,0.734501
1631290346100,-0.085156,-0.644465,0.734989
1631290346110,-0.083509,-0.646722,0.734318
1631290346119,-0.082228,-0.647454,0.7351719999999999
1631290346129,-0.082533,-0.649284,0.735294
1631290346139,-0.083509,-0.651114,0.736453
1631290346148,-0.083204,-0.651358,0.738588
1631290346158,-0.081252,-0.649284,0.734806
1631290346167,-0.080703,-0.649284,0.733586
1631290346177,-0.081008,-0.648247,0.729438
1631290346187,-0.081496,-0.649772,0.726998
1631290346196,-0.082472,-0.651236,0.726754
1631290346206,-0.082838,-0.651846,0.726998
1631290346215,-0.082106,-0.654347,0.7281569999999999
1631290346225,-0.08113,-0.653676,0.727974
1631290346235,-0.08003199999999999,-0.654652,0.729804
1631290346244,-0.07991,-0.654042,0.73139
1631290346254,-0.080093,-0.655811,0.732244
1631290346263,-0.08003199999999999,-0.655933,0.729255
1631290346273,-0.081252,-0.657458,0.72712
1631290346283,-0.082106,-0.655933,0.724741
1631290346292,-0.080276,-0.654286,0.71858
1631290346302,-0.08003199999999999,-0.6575799999999999,0.721508
1631290346311,-0.078812,-0.6606299999999999,0.724253
1631290346321,-0.078995,-0.661423,0.724375
1631290346331,-0.076433,-0.6600199999999999,0.723826
1631290346340,-0.077165,-0.661606,0.726449
1631290346350,-0.077836,-0.660508,0.730231
1631290346359,-0.08113,-0.6581899999999999,0.73078
1631290346369,-0.082594,-0.655811,0.727364
1631290346379,-0.082106,-0.652395,0.7278519999999999
1631290346388,-0.082411,-0.65453,0.725473
1631290346398,-0.07869,-0.658068,0.727303
1631290346407,-0.074847,-0.658678,0.726632
1631290346417,-0.074542,-0.658861,0.724131
1631290346427,-0.073322,-0.657641,0.721813
1631290346436,-0.073383,-0.656543,0.720349
1631290346446,-0.073932,-0.6554449999999999,0.718397
1631290346455,-0.07417599999999999,-0.655933,0.719434
1631290346465,-0.073993,-0.65453,0.720898
1631290346475,-0.07503,-0.653981,0.721996
1631290346484,-0.076616,-0.652822,0.722179
1631290346494,-0.077165,-0.652944,0.72224
1631290346503,-0.077287,-0.653554,0.723582
1631290346513,-0.07625,-0.65453,0.724619
1631290346523,-0.075884,-0.655079,0.723948
1631290346532,-0.075396,-0.656177,0.724314
1631290346542,-0.075274,-0.656909,0.724314
1631290346551,-0.07649399999999999,-0.657397,0.723582
1631290346561,-0.078446,-0.656848,0.72529
1631290346571,-0.078568,-0.657214,0.727059
1631290346580,-0.080825,-0.655323,0.727974
1631290346590,-0.08052,-0.655506,0.728218
1631290346599,-0.080459,-0.656238,0.727425
1631290346609,-0.079605,-0.658007,0.727608
1631290346619,-0.078385,-0.659776,0.726083
1631290346628,-0.07710399999999999,-0.660691,0.725656
1631290346638,-0.078446,-0.6612399999999999,0.724558
1631290346647,-0.077287,-0.661301,0.724009
1631290346657,-0.07710399999999999,-0.661789,0.723582
1631290346667,-0.078446,-0.6624599999999999,0.722667
1631290346676,-0.08052,-0.662094,0.723765
1631290346686,-0.080825,-0.661118,0.725107
1631290346695,-0.081679,-0.661118,0.72651
1631290346705,-0.08052,-0.661667,0.726876
1631290346715,-0.081923,-0.662399,0.72712
1631290346724,-0.081374,-0.662643,0.7281569999999999
1631290346734,-0.081374,-0.662643,0.72712
1631290346743,-0.080154,-0.6615449999999999,0.726144
1631290346753,-0.0793,-0.660813,0.728279
1631290346763,-0.079666,-0.662582,0.729255
1631290346772,-0.07942199999999999,-0.6578849999999999,0.7272419999999999
1631290346782,-0.0793,-0.6563599999999999,0.7259
1631290346791,-0.07942199999999999,-0.655628,0.726022
1631290346801,-0.078263,-0.656116,0.72529
1631290346811,-0.078507,-0.657153,0.72468
1631290346820,-0.076921,-0.6566649999999999,0.724741
1631290346830,-0.075884,-0.6560549999999999,0.724802
1631290346839,-0.075091,-0.656299,0.724558
1631290346849,-0.074786,-0.654896,0.723948
1631290346859,-0.07564,-0.65392,0.725107
1631290346868,-0.075396,-0.654347,0.727974
1631290346878,-0.073688,-0.652395,0.727608
1631290346887,-0.073139,-0.651602,0.726876
1631290346897,-0.072834,-0.651724,0.726388
1631290346907,-0.070516,-0.652883,0.726266
1631290346916,-0.069052,-0.652639,0.725046
1631290346926,-0.069174,-0.651541,0.724375
1631290346935,-0.06801499999999999,-0.652456,0.725961
1631290346945,-0.066795,-0.654164,0.728828
1631290346955,-0.065575,-0.65453,0.7302919999999999
1631290346964,-0.067344,-0.653737,0.729133
1631290346974,-0.067771,-0.652456,0.726327
1631290346983,-0.068869,-0.652456,0.725412
1631290346993,-0.069357,-0.653371,0.72407
1631290347003,-0.06893,-0.653859,0.724192
1631290347012,-0.068564,-0.65453,0.725168
1631290347022,-0.06801499999999999,-0.655506,0.727486
1631290347031,-0.066978,-0.655201,0.7284619999999999
1631290347041,-0.066734,-0.655323,0.7290719999999999
1631290347051,-0.066978,-0.654835,0.729804
1631290347060,-0.067527,-0.654225,0.7302919999999999
1631290347070,-0.069174,-0.652456,0.729621
1631290347079,-0.070516,-0.65026,0.728706
1631290347089,-0.069662,-0.649711,0.72834
1631290347099,-0.070272,-0.650077,0.729499
1631290347108,-0.069723,-0.650687,0.7305969999999999
1631290347118,-0.069357,-0.651724,0.730963
1631290347127,-0.069235,-0.652029,0.730414
1631290347137,-0.069296,-0.651968,0.73017
1631290347147,-0.068991,-0.651663,0.731634
1631290347156,-0.069601,-0.65209,0.732671
1631290347166,-0.071492,-0.650626,0.733464
1631290347175,-0.071858,-0.650626,0.733281
1631290347185,-0.070882,-0.649101,0.732488
1631290347195,-0.069906,-0.650504,0.7321219999999999
1631290347204,-0.068991,-0.653737,0.733159
1631290347214,-0.067466,-0.654835,0.734135
1631290347223,-0.065819,-0.654713,0.732
1631290347233,-0.066002,-0.654408,0.730109
1631290347243,-0.066124,-0.655018,0.728645
1631290347252,-0.06649,-0.654835,0.72712
1631290347262,-0.065819,-0.654286,0.725412
1631290347271,-0.06466,-0.653737,0.725168
1631290347281,-0.064965,-0.654591,0.725778
1631290347291,-0.063318,-0.654896,0.72529
1631290347300,-0.062647,-0.655872,0.726388
1631290347310,-0.06222,-0.6560549999999999,0.726754
1631290347319,-0.061915,-0.657336,0.726876
1631290347329,-0.063257,-0.657702,0.726266
1631290347339,-0.063623,-0.657824,0.72468
1631290347348,-0.064233,-0.657214,0.724192
1631290347358,-0.065636,-0.657214,0.724924
1631290347367,-0.06508699999999999,-0.657214,0.725107
1631290347377,-0.066246,-0.656482,0.725412
1631290347387,-0.066307,-0.6563599999999999,0.726083
1631290347396,-0.066307,-0.656177,0.725351
1631290347406,-0.067466,-0.657458,0.726144
1631290347415,-0.066246,-0.658373,0.725595
1631290347425,-0.068076,-0.658007,0.72529
1631290347435,-0.068503,-0.658434,0.726205
1631290347444,-0.069784,-0.6581899999999999,0.728096
1631290347454,-0.070882,-0.657946,0.7269369999999999
1631290347463,-0.07155299999999999,-0.656299,0.727303
1631290347473,-0.07124799999999999,-0.6569699999999999,0.726632
1631290347483,-0.072041,-0.655933,0.727364
1631290347492,-0.072285,-0.6563599999999999,0.727303
1631290347502,-0.072468,-0.656482,0.7269369999999999
1631290347511,-0.072468,-0.656543,0.726144
1631290347521,-0.071736,-0.657031,0.725046
1631290347531,-0.071675,-0.6569699999999999,0.725656
1631290347540,-0.072285,-0.6575799999999999,0.725656
1631290347550,-0.072468,-0.656604,0.725717
1631290347559,-0.073139,-0.655567,0.725595
1631290347569,-0.073322,-0.655811,0.725412
1631290347579,-0.072834,-0.655933,0.725229
1631290347588,-0.073078,-0.655567,0.725046
1631290347598,-0.072346,-0.657031,0.725168
1631290347607,-0.07259,-0.657641,0.724985
1631290347617,-0.071309,-0.658312,0.725656
1631290347627,-0.071431,-0.6584949999999999,0.726144
1631290347636,-0.07094299999999999,-0.657641,0.725351
1631290347646,-0.07124799999999999,-0.658678,0.725778
1631290347655,-0.07155299999999999,-0.658373,0.726876
1631290347665,-0.07259,-0.656909,0.725778
1631290347675,-0.07198,-0.657031,0.726449
1631290347684,-0.071431,-0.657092,0.726022
1631290347694,-0.070516,-0.657641,0.726815
1631290347703,-0.069418,-0.656909,0.725839
1631290347713,-0.069845,-0.655811,0.723643
1631290347723,-0.069174,-0.655933,0.724253
1631290347732,-0.068686,-0.657336,0.727791
1631290347742,-0.069967,-0.657458,0.729133
1631290347751,-0.070516,-0.655201,0.726815
1631290347761,-0.07094299999999999,-0.654652,0.724131
1631290347771,-0.069967,-0.656177,0.721325
1631290347780,-0.069296,-0.657824,0.722301
1631290347790,-0.069601,-0.659593,0.723338
1631290347799,-0.068442,-0.660569,0.724314
1631290347809,-0.068686,-0.661423,0.725656
1631290347819,-0.068564,-0.661362,0.726266
1631290347828,-0.069418,-0.661728,0.726571
1631290347838,-0.069418,-0.661972,0.726327
1631290347847,-0.069967,-0.661972,0.725168
1631290347857,-0.07015,-0.659837,0.724497
1631290347867,-0.072163,-0.658251,0.724619
1631290347876,-0.072346,-0.657763,0.725229
1631290347886,-0.071431,-0.657092,0.724924
1631290347895,-0.071614,-0.655994,0.724985
1631290347905,-0.073383,-0.655018,0.726327
1631290347915,-0.072895,-0.655567,0.7269369999999999
1631290347924,-0.072773,-0.654652,0.726449
1631290347934,-0.0732,-0.653005,0.727303
1631290347943,-0.072834,-0.653981,0.7281569999999999
1631290347953,-0.0732,-0.653798,0.72651
1631290347963,-0.073688,-0.651358,0.724619
1631290347972,-0.073749,-0.652578,0.72712
1631290347982,-0.073688,-0.654774,0.727913
1631290347991,-0.072285,-0.656116,0.7296819999999999
1631290348001,-0.072102,-0.654835,0.7299869999999999
1631290348011,-0.07326099999999999,-0.654652,0.729316
1631290348020,-0.071919,-0.655201,0.7275469999999999
1631290348030,-0.071919,-0.654469,0.7275469999999999
1631290348039,-0.071675,-0.654957,0.727913
1631290348049,-0.071858,-0.653127,0.725717
1631290348059,-0.072163,-0.65392,0.726022
1631290348068,-0.072407,-0.653005,0.724802
1631290348078,-0.073383,-0.654347,0.723948
1631290348087,-0.072102,-0.654408,0.724131
1631290348097,-0.07259,-0.654957,0.725534
1631290348107,-0.072468,-0.655811,0.72407
1631290348116,-0.072651,-0.657336,0.72468
1631290348126,-0.072712,-0.6563599999999999,0.725229
1631290348135,-0.074298,-0.656726,0.726754
1631290348145,-0.075152,-0.655628,0.7281569999999999
1631290348155,-0.075274,-0.655079,0.728218
1631290348164,-0.074847,-0.654347,0.728584
1631290348174,-0.07679899999999999,-0.654164,0.729621
1631290348183,-0.077287,-0.653676,0.7278519999999999
1631290348193,-0.077348,-0.653127,0.726693
1631290348203,-0.077592,-0.653737,0.728096
1631290348212,-0.077348,-0.653615,0.7287669999999999
1631290348222,-0.077226,-0.653798,0.728523
1631290348231,-0.077226,-0.653066,0.726815
1631290348241,-0.07747,-0.653676,0.7287669999999999
1631290348251,-0.07649399999999999,-0.653432,0.727974
1631290348260,-0.078507,-0.6527,0.727791
1631290348270,-0.077348,-0.653371,0.726632
1631290348279,-0.077836,-0.654164,0.726754
1631290348289,-0.076982,-0.654286,0.727181
1631290348299,-0.078324,-0.654713,0.7272419999999999
1631290348308,-0.078202,-0.654957,0.727974
1631290348318,-0.078873,-0.65453,0.728584
1631290348327,-0.078873,-0.655079,0.728401
1631290348337,-0.079178,-0.654408,0.728828
1631290348347,-0.079239,-0.652334,0.728706
1631290348356,-0.08113,-0.651541,0.729499
1631290348366,-0.080947,-0.651846,0.72773
1631290348375,-0.08033699999999999,-0.652395,0.7278519999999999
1631290348385,-0.081069,-0.652822,0.727669
1631290348395,-0.080703,-0.652273,0.728279
1631290348404,-0.081496,-0.652334,0.729804
1631290348414,-0.081313,-0.652944,0.7299869999999999
1631290348423,-0.081069,-0.652334,0.73139
1631290348433,-0.080764,-0.65209,0.731268
1631290348443,-0.082533,-0.651053,0.732183
1631290348452,-0.080398,-0.650992,0.729438
1631290348462,-0.082228,-0.649284,0.728889
1631290348471,-0.081923,-0.648247,0.728584
1631290348481,-0.082289,-0.648613,0.729865
1631290348491,-0.082167,-0.647942,0.72895
1631290348500,-0.082411,-0.646112,0.726205
1631290348510,-0.081862,-0.64721,0.728218
1631290348519,-0.082106,-0.650016,0.732488
1631290348529,-0.08204499999999999,-0.651297,0.7327319999999999
1631290348539,-0.082106,-0.650992,0.73017
1631290348548,-0.083692,-0.650687,0.72712
1631290348558,-0.08295999999999999,-0.651907,0.726998
1631290348567,-0.082106,-0.652578,0.727608
1631290348577,-0.080947,-0.654347,0.72773
1631290348587,-0.082594,-0.653615,0.7293769999999999
1631290348596,-0.083082,-0.654042,0.729804
1631290348606,-0.083936,-0.654103,0.72895
1631290348615,-0.083509,-0.654408,0.729011
1631290348625,-0.084424,-0.65392,0.7272419999999999
1631290348635,-0.083875,-0.654042,0.7269369999999999
1631290348644,-0.084119,-0.653859,0.725656
1631290348654,-0.08418,-0.652639,0.726144
1631290348663,-0.084302,-0.652944,0.725412
1631290348673,-0.084668,-0.651663,0.726388
1631290348683,-0.085461,-0.651358,0.72712
1631290348692,-0.087169,-0.651236,0.72834
1631290348702,-0.088633,-0.65148,0.72834
1631290348711,-0.087352,-0.65148,0.728889
1631290348721,-0.088023,-0.651175,0.7302919999999999
1631290348731,-0.08881599999999999,-0.651602,0.72895
1631290348740,-0.089243,-0.651785,0.727181
1631290348750,-0.08845,-0.652334,0.727425
1631290348759,-0.08881599999999999,-0.653188,0.729926
1631290348769,-0.088267,-0.654225,0.731756
1631290348779,-0.088145,-0.653615,0.7333419999999999
1631290348788,-0.089548,-0.653066,0.730414
1631290348798,-0.08942599999999999,-0.65209,0.729499
1631290348807,-0.090463,-0.652212,0.728523
1631290348817,-0.08942599999999999,-0.651602,0.728523
1631290348827,-0.09028,-0.649955,0.727974
1631290348836,-0.09113399999999999,-0.648796,0.728584
1631290348846,-0.091561,-0.649528,0.728706
1631290348855,-0.090524,-0.649101,0.728523
1631290348865,-0.091622,-0.648674,0.72956
1631290348875,-0.092781,-0.64843,0.729255
1631290348884,-0.093208,-0.648247,0.7293769999999999
1631290348894,-0.093818,-0.648369,0.728523
1631290348903,-0.09528199999999999,-0.647454,0.7293769999999999
1631290348913,-0.09455,-0.647515,0.729194
1631290348923,-0.094855,-0.64721,0.729438
1631290348932,-0.096136,-0.64782,0.730109
1631290348942,-0.09638,-0.648186,0.72895
1631290348951,-0.09638,-0.64843,0.729926
1631290348961,-0.096441,-0.648796,0.729804
1631290348971,-0.09577,-0.649406,0.730231
1631290348980,-0.096624,-0.650321,0.7296819999999999
1631290348990,-0.096502,-0.64904,0.730048
1631290348999,-0.096868,-0.649894,0.729499
1631290349009,-0.097844,-0.649162,0.729255
1631290349019,-0.09851499999999999,-0.648125,0.729438
1631290349028,-0.098454,-0.64843,0.729438
1631290349038,-0.098698,-0.648918,0.729255
1631290349047,-0.099369,-0.648247,0.728706
1631290349057,-0.09820999999999999,-0.648552,0.729194
1631290349067,-0.098393,-0.649101,0.72956
1631290349076,-0.098454,-0.649284,0.729804
1631290349086,-0.098271,-0.650016,0.730048
1631290349095,-0.098698,-0.64965,0.730109
1631290349105,-0.099857,-0.649528,0.730231
1631290349115,-0.098942,-0.649528,0.7299869999999999
1631290349124,-0.09851499999999999,-0.649528,0.729804
1631290349134,-0.10004,-0.649223,0.730475
1631290349143,-0.100101,-0.648796,0.730536
1631290349153,-0.099369,-0.648674,0.7309019999999999
1631290349163,-0.099552,-0.647698,0.731024
1631290349172,-0.09943,-0.649101,0.730963
1631290349182,-0.099186,-0.648735,0.731024
1631290349191,-0.09943,-0.648857,0.7309019999999999
1631290349201,-0.099308,-0.649711,0.73261
1631290349211,-0.098576,-0.650199,0.731634
1631290349220,-0.099003,-0.649223,0.730536
1631290349230,-0.09820999999999999,-0.648674,0.730231
1631290349239,-0.098088,-0.647393,0.7290719999999999
1631290349249,-0.097478,-0.647942,0.730475
1631290349259,-0.096746,-0.646356,0.729316
1631290349268,-0.096868,-0.646051,0.729743
1631290349278,-0.096136,-0.647637,0.732488
1631290349287,-0.09638,-0.648796,0.733891
1631290349297,-0.095709,-0.649406,0.732793
1631290349307,-0.095465,-0.647454,0.730536
1631290349316,-0.096746,-0.647332,0.728096
1631290349326,-0.095831,-0.648064,0.7281569999999999
1631290349335,-0.095038,-0.649406,0.729438
1631290349345,-0.09455,-0.650504,0.730658
1631290349355,-0.094428,-0.650321,0.732305
1631290349364,-0.09436699999999999,-0.650382,0.731573
1631290349374,-0.093879,-0.650016,0.732061
1631290349383,-0.09406199999999999,-0.649467,0.730475
1631290349393,-0.094794,-0.647881,0.729316
1631290349403,-0.095831,-0.646966,0.7284619999999999
1631290349412,-0.096929,-0.645624,0.7287669999999999
1631290349422,-0.097417,-0.6442209999999999,0.7296819999999999
1631290349431,-0.096746,-0.6433059999999999,0.73078
1631290349441,-0.09759999999999999,-0.643367,0.731695
1631290349451,-0.096868,-0.643245,0.7327319999999999
1631290349460,-0.096075,-0.643062,0.732366
1631290349470,-0.097112,-0.643672,0.732671
1631290349479,-0.096197,-0.644587,0.7327319999999999
1631290349489,-0.096868,-0.644953,0.73261
1631290349499,-0.097539,-0.644282,0.730658
1631290349508,-0.096929,-0.644038,0.732
1631290349518,-0.096929,-0.6451359999999999,0.73444
1631290349527,-0.096075,-0.645929,0.736941
1631290349537,-0.094794,-0.6451359999999999,0.73688
1631290349547,-0.09558699999999999,-0.6445259999999999,0.734684
1631290349556,-0.09577,-0.644892,0.733769
1631290349566,-0.094855,-0.645014,0.732793
1631290349575,-0.094611,-0.64538,0.7321219999999999
1631290349585,-0.094794,-0.645502,0.73139
1631290349595,-0.095099,-0.646112,0.730841
1631290349604,-0.094611,-0.645014,0.731756
1631290349614,-0.094733,-0.644343,0.7321219999999999
1631290349623,-0.09497699999999999,-0.64477,0.73261
1631290349633,-0.094123,-0.645258,0.732793
1631290349643,-0.094855,-0.645075,0.732854
1631290349652,-0.095404,-0.644709,0.7327319999999999
1631290349662,-0.09455,-0.6451359999999999,0.732
1631290349671,-0.09436699999999999,-0.645197,0.732
1631290349681,-0.095099,-0.645197,0.732671
1631290349691,-0.094184,-0.6451359999999999,0.733159
1631290349700,-0.095221,-0.645197,0.733281
1631290349710,-0.09589199999999999,-0.645563,0.733891
1631290349719,-0.097112,-0.6448309999999999,0.735233
1631290349729,-0.097356,-0.643977,0.736148
1631290349739,-0.097478,-0.643062,0.734623
1631290349748,-0.097478,-0.64355,0.73383
1631290349758,-0.097844,-0.643733,0.734013
1631290349767,-0.09698999999999999,-0.644099,0.732976
1631290349777,-0.097112,-0.64416,0.7327319999999999
1631290349787,-0.096014,-0.646112,0.732244
1631290349796,-0.09589199999999999,-0.645929,0.7318169999999999
1631290349806,-0.09638,-0.645502,0.731268
1631290349815,-0.096136,-0.645685,0.732061
1631290349825,-0.096685,-0.645807,0.732366
1631290349835,-0.097722,-0.645502,0.7327319999999999
1631290349844,-0.098271,-0.6457459999999999,0.732976
1631290349854,-0.098393,-0.645319,0.732793
1631290349863,-0.09790499999999999,-0.6457459999999999,0.733586
1631290349873,-0.098332,-0.6457459999999999,0.732549
1631290349883,-0.098942,-0.645685,0.732976
1631290349892,-0.097234,-0.6454409999999999,0.732
1631290349902,-0.098332,-0.645502,0.731695
1631290349911,-0.099125,-0.644953,0.73139
1631290349921,-0.098576,-0.6445259999999999,0.73078
1631290349931,-0.098881,-0.644343,0.730841
1631290349940,-0.098637,-0.64477,0.730841
1631290349950,-0.098698,-0.644892,0.73139
1631290349959,-0.098637,-0.646356,0.732183
1631290349969,-0.097661,-0.646661,0.731939
1631290349979,-0.097722,-0.645807,0.732
1631290349988,-0.097112,-0.647515,0.731756
1631290349998,-0.096929,-0.647576,0.731695
1631290350007,-0.095953,-0.648003,0.731756
1631290350017,-0.095465,-0.648064,0.731573
1631290350027,-0.095404,-0.64782,0.730048
1631290350036,-0.096014,-0.648369,0.729743
1631290350046,-0.09589199999999999,-0.648674,0.7302919999999999
1631290350055,-0.095099,-0.64782,0.730414
1631290350065,-0.095526,-0.645929,0.729011
1631290350075,-0.09436699999999999,-0.646905,0.731024
1631290350084,-0.094489,-0.648369,0.732854
1631290350094,-0.093208,-0.649894,0.733098
1631290350103,-0.093391,-0.649589,0.730841
1631290350113,-0.093574,-0.649589,0.726815
1631290350123,-0.093635,-0.650138,0.724924
1631290350132,-0.093208,-0.65087,0.725717
1631290350142,-0.091866,-0.65209,0.727303
1631290350151,-0.093513,-0.652212,0.728706
1631290350161,-0.094001,-0.651907,0.728584
1631290350171,-0.094123,-0.651846,0.728706
1631290350180,-0.093818,-0.653005,0.729499
1631290350190,-0.093513,-0.653493,0.729255
1631290350199,-0.093086,-0.652944,0.7272419999999999
1631290350209,-0.093879,-0.652517,0.726632
1631290350219,-0.093696,-0.651785,0.726815
1631290350228,-0.09406199999999999,-0.650565,0.726571
1631290350238,-0.094306,-0.650321,0.7272419999999999
1631290350247,-0.09455,-0.649894,0.728279
1631290350257,-0.09497699999999999,-0.649955,0.729133
1631290350267,-0.095709,-0.648735,0.729011
1631290350276,-0.095465,-0.648308,0.729133
1631290350286,-0.096441,-0.648491,0.730719
1631290350295,-0.09638,-0.648552,0.730719
1631290350305,-0.095221,-0.648796,0.72956
1631290350315,-0.095099,-0.649162,0.7284619999999999
1631290350324,-0.09589199999999999,-0.648369,0.72773
1631290350334,-0.09528199999999999,-0.649528,0.7296819999999999
1631290350343,-0.09333,-0.650748,0.731695
1631290350353,-0.093574,-0.649833,0.7318169999999999
1631290350363,-0.094306,-0.649711,0.729804
1631290350372,-0.093391,-0.649406,0.728035
1631290350382,-0.093635,-0.649467,0.726388
1631290350391,-0.093086,-0.65026,0.725961
1631290350401,-0.092415,-0.650321,0.726266
1631290350411,-0.092476,-0.65087,0.726876
1631290350420,-0.091988,-0.651541,0.727303
1631290350430,-0.091683,-0.651297,0.727608
1631290350439,-0.091927,-0.651602,0.728218
1631290350449,-0.090951,-0.652883,0.728401
1631290350459,-0.091012,-0.652456,0.727974
1631290350468,-0.092537,-0.652578,0.7272419999999999
1631290350478,-0.092476,-0.652151,0.72712
1631290350487,-0.093879,-0.651785,0.727181
1631290350497,-0.094306,-0.652029,0.727303
1631290350507,-0.094489,-0.650931,0.727669
1631290350516,-0.094611,-0.651663,0.729316
1631290350526,-0.095648,-0.651663,0.7299869999999999
1631290350535,-0.094916,-0.651907,0.730048
1631290350545,-0.093757,-0.652212,0.7287669999999999
1631290350555,-0.094184,-0.652578,0.7287669999999999
1631290350564,-0.094123,-0.651968,0.728828
1631290350574,-0.094611,-0.651968,0.7284619999999999
1631290350583,-0.095038,-0.651663,0.727974
1631290350593,-0.094855,-0.65209,0.727669
1631290350603,-0.095526,-0.651663,0.726998
1631290350612,-0.09577,-0.651602,0.728279
1631290350622,-0.094733,-0.651846,0.7284619999999999
1631290350631,-0.095465,-0.65148,0.729743
1631290350641,-0.095526,-0.650077,0.7302919999999999
1631290350651,-0.095953,-0.650443,0.730475
1631290350660,-0.095831,-0.649772,0.730536
1631290350670,-0.096258,-0.64965,0.730353
1631290350679,-0.095953,-0.648552,0.7302919999999999
1631290350689,-0.097051,-0.648369,0.730658
1631290350699,-0.09729499999999999,-0.648003,0.729926
1631290350708,-0.09698999999999999,-0.64721,0.7299869999999999
1631290350718,-0.097417,-0.646539,0.730475
1631290350727,-0.09759999999999999,-0.64477,0.729926
1631290350737,-0.09698999999999999,-0.645563,0.73078
1631290350747,-0.09577,-0.646234,0.730658
1631290350756,-0.095465,-0.646783,0.731024
1631290350766,-0.09436699999999999,-0.647393,0.7318169999999999
1631290350775,-0.094611,-0.647637,0.731085
1631290350785,-0.094306,-0.647393,0.731146
1631290350795,-0.093513,-0.647088,0.73139
1631290350804,-0.094184,-0.647393,0.7321219999999999
1631290350814,-0.09497699999999999,-0.646356,0.7330369999999999
1631290350823,-0.094489,-0.644953,0.731573
1631290350833,-0.09406199999999999,-0.646051,0.731573
1631290350843,-0.094794,-0.646722,0.732244
1631290350852,-0.093635,-0.6454409999999999,0.731939
1631290350862,-0.093269,-0.642879,0.7305969999999999
1631290350871,-0.093696,-0.644587,0.732549
1631290350881,-0.092171,-0.646722,0.7345619999999999
1631290350891,-0.091256,-0.645929,0.736148
1631290350900,-0.0915,-0.64599,0.733281
1631290350910,-0.09272,-0.64538,0.730048
1631290350919,-0.092171,-0.646051,0.7278519999999999
1631290350929,-0.093025,-0.646966,0.726998
1631290350939,-0.092476,-0.648125,0.72956
1631290350948,-0.09235399999999999,-0.648918,0.73078
1631290350958,-0.09235399999999999,-0.650321,0.7327319999999999
1631290350967,-0.092415,-0.649833,0.733769
1631290350977,-0.092415,-0.650077,0.734623
1631290350987,-0.092415,-0.649528,0.7330369999999999
1631290350996,-0.09272,-0.649284,0.7327319999999999
1631290351006,-0.093452,-0.648552,0.731756
1631290351015,-0.093757,-0.64721,0.732
1631290351025,-0.09528199999999999,-0.6454409999999999,0.7315119999999999
1631290351035,-0.095343,-0.644038,0.732488
1631290351044,-0.095465,-0.643245,0.734989
1631290351054,-0.095526,-0.642269,0.735721
1631290351063,-0.095648,-0.641842,0.735843
1631290351073,-0.09577,-0.64172,0.736453
1631290351083,-0.095709,-0.641964,0.735721
1631290351092,-0.095221,-0.642635,0.735111
1631290351102,-0.095221,-0.643977,0.734745
1631290351111,-0.094001,-0.644343,0.732366
1631290351121,-0.094184,-0.644099,0.732061
1631290351131,-0.094428,-0.646356,0.7342569999999999
1631290351140,-0.093635,-0.647576,0.735233
1631290351150,-0.091927,-0.64782,0.736941
1631290351159,-0.092903,-0.647454,0.735111
1631290351169,-0.093147,-0.645868,0.732976
1631290351179,-0.093696,-0.646051,0.732549
1631290351188,-0.093025,-0.646051,0.730475
1631290351198,-0.09333,-0.646234,0.730719
1631290351207,-0.093025,-0.646234,0.7305969999999999
1631290351217,-0.093147,-0.646356,0.73078
1631290351227,-0.09272,-0.646539,0.732
1631290351236,-0.091561,-0.646295,0.732366
1631290351246,-0.091317,-0.646661,0.732183
1631290351255,-0.090951,-0.646295,0.731573
1631290351265,-0.091683,-0.646295,0.731268
1631290351275,-0.092232,-0.646234,0.732244
1631290351284,-0.091683,-0.645685,0.731451
1631290351294,-0.092537,-0.645868,0.732854
1631290351303,-0.09235399999999999,-0.644709,0.733159
1631290351313,-0.09272,-0.644282,0.732854
1631290351323,-0.093635,-0.644709,0.73383
1631290351332,-0.093696,-0.644099,0.7339519999999999
1631290351342,-0.094123,-0.644404,0.7345619999999999
1631290351351,-0.094184,-0.644099,0.7348669999999999
1631290351361,-0.094306,-0.644465,0.734989
1631290351371,-0.09497699999999999,-0.643428,0.734501
1631290351380,-0.094794,-0.643855,0.734013
1631290351390,-0.095343,-0.64416,0.73444
1631290351399,-0.09516,-0.6433059999999999,0.734379
1631290351409,-0.094916,-0.643123,0.734501
1631290351419,-0.095953,-0.643184,0.736148
1631290351428,-0.095099,-0.642025,0.735355
1631290351438,-0.095831,-0.641537,0.736331
1631290351447,-0.095099,-0.640988,0.7366969999999999
1631290351457,-0.095526,-0.641354,0.737368
1631290351467,-0.095404,-0.640622,0.736575
1631290351476,-0.095648,-0.641354,0.736819
1631290351486,-0.09558699999999999,-0.640744,0.73627
1631290351495,-0.095465,-0.640317,0.73688
1631290351505,-0.095831,-0.6402559999999999,0.73749
1631290351515,-0.095038,-0.639768,0.737185
1631290351524,-0.095526,-0.639463,0.737734
1631290351534,-0.095404,-0.639524,0.737978
1631290351543,-0.09455,-0.639829,0.737795
1631290351553,-0.095099,-0.639524,0.738893
1631290351563,-0.094184,-0.640134,0.73871
1631290351572,-0.093757,-0.640012,0.738771
1631290351582,-0.092171,-0.6402559999999999,0.738161
1631290351591,-0.093147,-0.640012,0.7379169999999999
1631290351601,-0.09272,-0.640439,0.737124
1631290351611,-0.092293,-0.640134,0.737734
1631290351620,-0.0915,-0.6399509999999999,0.737734
1631290351630,-0.091927,-0.6396459999999999,0.7381
1631290351639,-0.092232,-0.639219,0.738466
1631290351649,-0.09204899999999999,-0.638792,0.738344
1631290351659,-0.091683,-0.639585,0.7394419999999999
1631290351668,-0.091866,-0.637877,0.737368
1631290351678,-0.092415,-0.635864,0.73688
1631290351687,-0.091805,-0.6369009999999999,0.7391369999999999
1631290351697,-0.091195,-0.638304,0.742004
1631290351707,-0.090524,-0.638548,0.743041
1631290351716,-0.092293,-0.638365,0.739259
1631290351726,-0.092903,-0.638243,0.737063
1631290351735,-0.092232,-0.639463,0.736514
1631290351745,-0.092232,-0.640073,0.736636
1631290351755,-0.092476,-0.641293,0.736819
1631290351764,-0.09211,-0.6411709999999999,0.73749
1631290351774,-0.092476,-0.64111,0.738466
1631290351783,-0.0915,-0.641842,0.739869
1631290351793,-0.092293,-0.6414759999999999,0.740601
1631290351803,-0.093086,-0.640439,0.738893
1631290351812,-0.093086,-0.640012,0.736819
1631290351822,-0.094184,-0.638487,0.73566
1631290351831,-0.094001,-0.637572,0.73505
1631290351841,-0.094855,-0.63623,0.73566
1631290351851,-0.095099,-0.6369009999999999,0.736819
1631290351860,-0.09516,-0.637389,0.739259
1631290351870,-0.095465,-0.636962,0.740113
1631290351879,-0.095953,-0.637267,0.739686
1631290351889,-0.095709,-0.637267,0.7403569999999999
1631290351899,-0.095648,-0.637877,0.739991
1631290351908,-0.09577,-0.638548,0.739686
1631290351918,-0.096319,-0.638182,0.738039
1631290351927,-0.095465,-0.63745,0.7381
1631290351937,-0.094245,-0.63867,0.738771
1631290351947,-0.09394,-0.639768,0.741394
1631290351956,-0.092964,-0.6405609999999999,0.741638
1631290351966,-0.09406199999999999,-0.639158,0.739503
1631290351975,-0.095465,-0.638853,0.7381
1631290351985,-0.093879,-0.639524,0.738283
1631290351995,-0.094184,-0.63867,0.737124
1631290352004,-0.094184,-0.63928,0.73566
1631290352014,-0.093635,-0.639097,0.736148
1631290352023,-0.093269,-0.640134,0.73688
1631290352033,-0.092537,-0.63928,0.738466
1631290352043,-0.092781,-0.6402559999999999,0.738893
1631290352052,-0.093025,-0.640744,0.738161
1631290352062,-0.093879,-0.639219,0.7382219999999999
1631290352071,-0.093879,-0.6399509999999999,0.7370019999999999
1631290352081,-0.094428,-0.639585,0.7366969999999999
1631290352091,-0.094123,-0.63928,0.737185
1631290352100,-0.094794,-0.639158,0.7376119999999999
1631290352110,-0.09455,-0.639829,0.737673
1631290352119,-0.09589199999999999,-0.639707,0.737734
1631290352129,-0.095404,-0.640805,0.7388319999999999
1631290352139,-0.095038,-0.640439,0.73871
1631290352148,-0.096136,-0.640134,0.7379169999999999
1631290352158,-0.096136,-0.641049,0.738344
1631290352167,-0.096929,-0.640744,0.737856
1631290352177,-0.096563,-0.641415,0.737734
1631290352187,-0.097356,-0.641354,0.73749
1631290352196,-0.09698999999999999,-0.642513,0.73749
1631290352206,-0.09698999999999999,-0.6411709999999999,0.735843
1631290352215,-0.09851499999999999,-0.640988,0.736209
1631290352225,-0.098027,-0.640683,0.736758
1631290352235,-0.098637,-0.640683,0.737368
1631290352244,-0.098637,-0.640134,0.737551
1631290352254,-0.098576,-0.6405,0.738283
1631290352263,-0.099491,-0.641415,0.738466
1631290352273,-0.09881999999999999,-0.639402,0.7381
1631290352283,-0.099247,-0.638975,0.738344
1631290352292,-0.099796,-0.639402,0.738344
1631290352302,-0.098942,-0.6387309999999999,0.737856
1631290352311,-0.100101,-0.638914,0.737795
1631290352321,-0.100101,-0.639158,0.737429
1631290352331,-0.099552,-0.637999,0.73871
1631290352340,-0.099064,-0.638975,0.7385269999999999
1631290352350,-0.098576,-0.63867,0.73932
1631290352359,-0.09820999999999999,-0.638182,0.7388319999999999
1631290352369,-0.098271,-0.638914,0.7391369999999999
1631290352379,-0.097783,-0.638853,0.737795
1631290352388,-0.096929,-0.6393409999999999,0.737856
1631290352398,-0.096624,-0.6399509999999999,0.7381
1631290352407,-0.096624,-0.639585,0.7382219999999999
1631290352417,-0.09638,-0.639585,0.739076
1631290352427,-0.096075,-0.640195,0.7373069999999999
1631290352436,-0.09638,-0.6393409999999999,0.73566
1631290352446,-0.096197,-0.639402,0.737063
1631290352455,-0.095648,-0.638792,0.737368
1631290352465,-0.09558699999999999,-0.638792,0.737063
1631290352475,-0.09528199999999999,-0.636413,0.735233
1631290352484,-0.09577,-0.636413,0.7360869999999999
1631290352494,-0.096258,-0.638853,0.739686
1631290352503,-0.095343,-0.63989,0.741394
1631290352513,-0.095709,-0.640805,0.741394
1631290352523,-0.096136,-0.640988,0.739015
1631290352532,-0.095343,-0.6405609999999999,0.7360869999999999
1631290352542,-0.093879,-0.64233,0.736575
1631290352551,-0.093513,-0.6433059999999999,0.737185
1631290352561,-0.093208,-0.643062,0.738405
1631290352571,-0.093025,-0.642147,0.7397469999999999
1631290352580,-0.09455,-0.641598,0.739564
1631290352590,-0.09436699999999999,-0.641415,0.738649
1631290352599,-0.09467199999999999,-0.642025,0.738344
1631290352609,-0.093879,-0.641842,0.737124
1631290352619,-0.094184,-0.6393409999999999,0.7351719999999999
1631290352628,-0.094245,-0.638548,0.734196
1631290352638,-0.093818,-0.638487,0.7339519999999999
1631290352647,-0.09406199999999999,-0.6378159999999999,0.734806
1631290352657,-0.09436699999999999,-0.639768,0.735904
1631290352667,-0.09394,-0.6396459999999999,0.737978
1631290352676,-0.09528199999999999,-0.639585,0.738039
1631290352686,-0.094855,-0.640805,0.738039
1631290352695,-0.09528199999999999,-0.640805,0.737734
1631290352705,-0.094733,-0.6417809999999999,0.737673
1631290352715,-0.09467199999999999,-0.6405609999999999,0.735599
1631290352724,-0.095343,-0.6405609999999999,0.736636
1631290352734,-0.09528199999999999,-0.6411709999999999,0.738161
1631290352743,-0.093879,-0.640744,0.740479
1631290352753,-0.09455,-0.640988,0.74115
1631290352763,-0.09455,-0.6405609999999999,0.738466
1631290352772,-0.09467199999999999,-0.640317,0.737124
1631290352782,-0.093635,-0.640439,0.7357819999999999
1631290352791,-0.093818,-0.640439,0.735355
1631290352801,-0.094123,-0.63928,0.736148
1631290352811,-0.093818,-0.638548,0.735599
1631290352820,-0.094489,-0.6378159999999999,0.735538
1631290352830,-0.094794,-0.637755,0.73627
1631290352839,-0.094184,-0.638182,0.7354769999999999
1631290352849,-0.094428,-0.638914,0.735233
1631290352859,-0.093818,-0.639158,0.735233
1631290352868,-0.094245,-0.6390359999999999,0.735294
1631290352878,-0.095404,-0.638914,0.73627
1631290352887,-0.096014,-0.638548,0.73566
1631290352897,-0.096746,-0.638548,0.7357819999999999
1631290352907,-0.097966,-0.63928,0.7366969999999999
1631290352916,-0.098393,-0.640317,0.737063
1631290352926,-0.098942,-0.639707,0.7373069999999999
1631290352935,-0.099369,-0.638975,0.737551
1631290352945,-0.10065,-0.638609,0.736636
1631290352955,-0.100162,-0.63867,0.7370019999999999
1631290352964,-0.101016,-0.639158,0.7376119999999999
1631290352974,-0.10083299999999999,-0.639524,0.73871
1631290352983,-0.101565,-0.640378,0.737978
1631290352993,-0.101321,-0.640073,0.736819
1631290353003,-0.101992,-0.640134,0.73688
1631290353012,-0.101565,-0.640744,0.7373069999999999
1631290353022,-0.102907,-0.639768,0.736453
1631290353031,-0.102968,-0.640012,0.736514
1631290353041,-0.10284599999999999,-0.640622,0.737124
1631290353051,-0.1037,-0.6408659999999999,0.7373069999999999
1631290353060,-0.103944,-0.639524,0.7366969999999999
1631290353070,-0.1037,-0.638792,0.736819
1631290353079,-0.104554,-0.639158,0.736575
1631290353089,-0.105713,-0.639158,0.736941
1631290353099,-0.10553,-0.63867,0.737856
1631290353108,-0.10553,-0.6402559999999999,0.736758
1631290353118,-0.105896,-0.640012,0.737185
1631290353127,-0.105713,-0.6405,0.737673
1631290353137,-0.104615,-0.640927,0.736575
1631290353147,-0.10553,-0.640927,0.735721
1631290353156,-0.105103,-0.64233,0.73566
1631290353166,-0.105164,-0.6417809999999999,0.736453
1631290353175,-0.104554,-0.64172,0.736026
1631290353185,-0.104859,-0.642147,0.7363919999999999
1631290353195,-0.105408,-0.641598,0.737246
1631290353204,-0.105835,-0.641659,0.737124
1631290353214,-0.105225,-0.6411709999999999,0.736758
1631290353223,-0.105347,-0.642147,0.737185
1631290353233,-0.10553,-0.641598,0.735294
1631290353243,-0.10607899999999999,-0.640012,0.7327319999999999
1631290353252,-0.106445,-0.63867,0.73139
1631290353262,-0.105469,-0.639158,0.732976
1631290353271,-0.104554,-0.641659,0.73505
1631290353281,-0.105286,-0.6414759999999999,0.7354769999999999
1631290353291,-0.105835,-0.641293,0.73566
1631290353300,-0.105164,-0.6433059999999999,0.7373069999999999
1631290353310,-0.105347,-0.645258,0.737063
1631290353319,-0.104554,-0.6466,0.734989
1631290353329,-0.10431,-0.646722,0.7318169999999999
1631290353339,-0.104188,-0.646722,0.729743
1631290353348,-0.103639,-0.646844,0.7312069999999999
1631290353358,-0.102419,-0.647515,0.734074
1631290353367,-0.10248,-0.647576,0.734745
1631290353377,-0.10248,-0.647088,0.73444
1631290353387,-0.10309,-0.6445259999999999,0.7339519999999999
1631290353396,-0.10406599999999999,-0.6433059999999999,0.733464
1631290353406,-0.104737,-0.642513,0.733403
1631290353415,-0.104188,-0.641354,0.732244
1631290353425,-0.104188,-0.639524,0.731756
1631290353435,-0.104554,-0.638548,0.7318169999999999
1631290353444,-0.104859,-0.6372059999999999,0.731146
1631290353454,-0.104798,-0.636779,0.731634
1631290353463,-0.104188,-0.6372059999999999,0.733403
1631290353473,-0.10437099999999999,-0.638609,0.73383
1631290353483,-0.10431,-0.639768,0.7336469999999999
1631290353492,-0.10309,-0.642879,0.733159
1631290353502,-0.102602,-0.64416,0.734379
1631290353511,-0.10187,-0.645929,0.732244
1631290353521,-0.101504,-0.645502,0.730475
1631290353531,-0.10205299999999999,-0.647332,0.733403
1631290353540,-0.101626,-0.648064,0.734501
1631290353550,-0.09991799999999999,-0.647942,0.735721
1631290353559,-0.100894,-0.64782,0.733159
1631290353569,-0.101077,-0.647698,0.7302919999999999
1631290353579,-0.100345,-0.647637,0.7305969999999999
1631290353588,-0.099674,-0.647881,0.731634
1631290353598,-0.099186,-0.646905,0.730048
1631290353607,-0.099613,-0.645502,0.729865
1631290353617,-0.10052799999999999,-0.64538,0.730475
1631290353627,-0.100406,-0.645197,0.730109
1631290353636,-0.10004,-0.64538,0.729133
1631290353646,-0.101016,-0.645929,0.72956
1631290353655,-0.101931,-0.645868,0.728401
1631290353665,-0.102297,-0.646539,0.729011
1631290353675,-0.101504,-0.6466,0.728645
1631290353684,-0.101626,-0.6457459999999999,0.7281569999999999
1631290353694,-0.101809,-0.647698,0.7281569999999999
1631290353703,-0.101504,-0.648552,0.72834
1631290353713,-0.102907,-0.650016,0.728035
1631290353723,-0.102541,-0.64965,0.728279
1631290353732,-0.103212,-0.650138,0.72895
1631290353742,-0.103822,-0.650382,0.727913
1631290353751,-0.10431,-0.650748,0.727608
1631290353761,-0.104188,-0.65148,0.728584
1631290353771,-0.103944,-0.652273,0.728096
1631290353780,-0.1037,-0.6527,0.7281569999999999
1631290353790,-0.1037,-0.65209,0.726388
1631290353799,-0.103395,-0.650931,0.725534
1631290353809,-0.103639,-0.65087,0.724314
1631290353819,-0.10284599999999999,-0.651297,0.723765
1631290353828,-0.102419,-0.651602,0.723216
1631290353838,-0.102724,-0.652212,0.723643
1631290353847,-0.103212,-0.652822,0.723765
1631290353857,-0.104554,-0.653798,0.723582
1631290353867,-0.10315099999999999,-0.65453,0.723765
1631290353876,-0.10315099999999999,-0.654957,0.723948
1631290353886,-0.103334,-0.655689,0.723704
1631290353895,-0.10345599999999999,-0.655628,0.723216
1631290353905,-0.103395,-0.655079,0.723033
1631290353915,-0.102907,-0.655933,0.722972
1631290353924,-0.102419,-0.6560549999999999,0.722118
1631290353934,-0.102968,-0.656238,0.721996
1631290353943,-0.101992,-0.657336,0.722911
1631290353953,-0.101504,-0.658007,0.723033
1631290353963,-0.101504,-0.658739,0.722789
1631290353972,-0.10174799999999999,-0.658922,0.722911
1631290353982,-0.101199,-0.6591049999999999,0.722972
1631290353991,-0.101504,-0.660142,0.723033
1631290354001,-0.102114,-0.6591049999999999,0.723643
1631290354011,-0.10144299999999999,-0.658556,0.723094
1631290354020,-0.101992,-0.6581899999999999,0.723338
1631290354030,-0.10187,-0.6581899999999999,0.723826
1631290354039,-0.102358,-0.6572749999999999,0.723033
1631290354049,-0.10187,-0.655994,0.723094
1631290354059,-0.102236,-0.656116,0.723216
1631290354068,-0.101931,-0.655323,0.725839
1631290354078,-0.10126,-0.652944,0.725961
1631290354087,-0.101931,-0.653066,0.727974
1631290354097,-0.101687,-0.653493,0.729804
1631290354107,-0.101321,-0.653798,0.73078
1631290354116,-0.101382,-0.652639,0.728035
1631290354126,-0.10187,-0.650687,0.725046
1631290354135,-0.101931,-0.649772,0.723582
1631290354145,-0.101382,-0.649589,0.723704
1631290354155,-0.100894,-0.650748,0.726144
1631290354164,-0.100589,-0.650992,0.726876
1631290354174,-0.099735,-0.650992,0.729804
1631290354183,-0.100406,-0.652029,0.73017
1631290354193,-0.09991799999999999,-0.651297,0.7312069999999999
1631290354203,-0.099369,-0.649833,0.7299869999999999
1631290354212,-0.100894,-0.648796,0.7293769999999999
1631290354222,-0.101016,-0.646844,0.7290719999999999
1631290354231,-0.10174799999999999,-0.645929,0.728645
1631290354241,-0.10126,-0.64416,0.729499
1631290354251,-0.101504,-0.6439159999999999,0.731024
1631290354260,-0.099857,-0.643367,0.732183
1631290354270,-0.10004,-0.64355,0.733281
1631290354279,-0.100467,-0.643794,0.734135
1631290354289,-0.099674,-0.643062,0.734318
1631290354299,-0.099125,-0.643184,0.734318
1631290354308,-0.09943,-0.6423909999999999,0.734745
1631290354318,-0.100467,-0.64294,0.73444
1631290354327,-0.099674,-0.642635,0.7336469999999999
1631290354337,-0.099064,-0.641049,0.731329
1631290354347,-0.099003,-0.641903,0.733586
1631290354356,-0.099247,-0.64294,0.73627
1631290354366,-0.09759999999999999,-0.643794,0.738344
1631290354375,-0.097783,-0.643245,0.737856
1631290354385,-0.098149,-0.6420859999999999,0.736758
1631290354395,-0.099125,-0.63989,0.735538
1631290354404,-0.099674,-0.63989,0.7351719999999999
1631290354414,-0.09881999999999999,-0.6393409999999999,0.7354769999999999
1631290354423,-0.099613,-0.638365,0.73505
1631290354433,-0.100284,-0.638548,0.736026
1631290354443,-0.100772,-0.638243,0.736758
1631290354452,-0.099796,-0.637938,0.7376119999999999
1631290354462,-0.099735,-0.637877,0.738344
1631290354471,-0.100589,-0.637328,0.738405
1631290354481,-0.101565,-0.6369009999999999,0.738771
1631290354491,-0.101504,-0.636535,0.739503
1631290354500,-0.10187,-0.635559,0.739808
1631290354510,-0.103273,-0.634705,0.73993
1631290354519,-0.103517,-0.634644,0.740845
1631290354529,-0.10431,-0.6344,0.7403569999999999
1631290354539,-0.10467599999999999,-0.6329359999999999,0.742004
1631290354548,-0.10492,-0.6317159999999999,0.741943
1631290354558,-0.105469,-0.630984,0.741394
1631290354567,-0.105835,-0.631411,0.7427969999999999
1631290354577,-0.105591,-0.631533,0.7418819999999999
1631290354587,-0.106323,-0.631289,0.742553
1631290354596,-0.106018,-0.630618,0.741638
1631290354606,-0.106445,-0.630679,0.742553
1631290354615,-0.106445,-0.631533,0.742858
1631290354625,-0.10699399999999999,-0.630313,0.7421869999999999
1631290354635,-0.10668899999999999,-0.630618,0.742919
1631290354644,-0.106201,-0.630191,0.743163
1631290354654,-0.10614,-0.629764,0.744017
1631290354663,-0.106872,-0.629093,0.743163
1631290354673,-0.107482,-0.629093,0.744444
1631290354683,-0.106628,-0.630435,0.7442
1631290354692,-0.107421,-0.629337,0.744078
1631290354702,-0.106933,-0.629642,0.744749
1631290354711,-0.10668899999999999,-0.628727,0.74481
1631290354721,-0.106811,-0.628239,0.744383
1631290354731,-0.106933,-0.62769,0.745603
1631290354740,-0.10607899999999999,-0.628239,0.746457
1631290354750,-0.10607899999999999,-0.628056,0.746091
1631290354759,-0.105164,-0.627751,0.746457
1631290354769,-0.107848,-0.627751,0.746213
1631290354779,-0.10668899999999999,-0.629032,0.746396
1631290354788,-0.10614,-0.630313,0.745847
1631290354798,-0.104493,-0.630496,0.745054
1631290354807,-0.10467599999999999,-0.630557,0.745054
1631290354817,-0.103395,-0.6317159999999999,0.745359
1631290354827,-0.102541,-0.632448,0.744932
1631290354836,-0.102785,-0.632875,0.744017
1631290354846,-0.101382,-0.63379,0.743834
1631290354855,-0.102114,-0.6335459999999999,0.744627
1631290354865,-0.102602,-0.6329359999999999,0.744139
1631290354875,-0.102236,-0.631594,0.743651
1631290354884,-0.102236,-0.6332409999999999,0.7431019999999999
1631290354894,-0.10248,-0.63196,0.744078
1631290354903,-0.102236,-0.63013,0.742736
1631290354913,-0.10315099999999999,-0.62891,0.742675
1631290354923,-0.10309,-0.630679,0.745603
1631290354932,-0.10205299999999999,-0.631655,0.748775
1631290354942,-0.102297,-0.631228,0.747677
1631290354951,-0.10406599999999999,-0.63013,0.744078
1631290354961,-0.104798,-0.628727,0.740784
1631290354971,-0.104493,-0.630435,0.740418
1631290354980,-0.104005,-0.630679,0.7403569999999999
1631290354990,-0.102968,-0.63135,0.7409669999999999
1631290354999,-0.103395,-0.633424,0.741211
1631290355009,-0.10284599999999999,-0.63379,0.7431019999999999
1631290355019,-0.101931,-0.634217,0.74359
1631290355028,-0.101931,-0.6341559999999999,0.74359
1631290355038,-0.102175,-0.6341559999999999,0.741699
1631290355047,-0.102602,-0.633302,0.739503
1631290355057,-0.103273,-0.632692,0.7394419999999999
1631290355067,-0.104005,-0.631472,0.7385269999999999
1631290355076,-0.103517,-0.631655,0.7409669999999999
1631290355086,-0.103639,-0.631533,0.742126
1631290355095,-0.10437099999999999,-0.630618,0.74237
1631290355105,-0.10437099999999999,-0.631472,0.743041
1631290355115,-0.104798,-0.631594,0.742309
1631290355124,-0.105652,-0.630374,0.7431019999999999
1631290355134,-0.104249,-0.630801,0.744139
1631290355143,-0.10492,-0.6323259999999999,0.7434069999999999
1631290355153,-0.10467599999999999,-0.631838,0.7427969999999999
1631290355163,-0.10431,-0.63379,0.742248
1631290355172,-0.103334,-0.6341559999999999,0.741089
1631290355182,-0.103212,-0.634034,0.740601
1631290355191,-0.10284599999999999,-0.633912,0.74176
1631290355201,-0.10248,-0.636047,0.743468
1631290355211,-0.101016,-0.6356809999999999,0.74481
1631290355220,-0.102175,-0.635132,0.741943
1631290355230,-0.10205299999999999,-0.6344609999999999,0.740174
1631290355239,-0.101992,-0.634095,0.73871
1631290355249,-0.10174799999999999,-0.634644,0.7376119999999999
1631290355259,-0.10065,-0.636352,0.737795
1631290355268,-0.101687,-0.635864,0.738771
1631290355278,-0.101077,-0.63684,0.739564
1631290355287,-0.10126,-0.63745,0.741089
1631290355297,-0.09991799999999999,-0.637938,0.7415769999999999
1631290355307,-0.100162,-0.637633,0.740906
1631290355316,-0.099735,-0.636962,0.73993
1631290355326,-0.101199,-0.637023,0.739503
1631290355335,-0.10174799999999999,-0.637084,0.7391369999999999
1631290355345,-0.10174799999999999,-0.636718,0.737856
1631290355355,-0.101992,-0.637328,0.739076
1631290355364,-0.103212,-0.6378159999999999,0.739686
1631290355374,-0.10248,-0.637084,0.740296
1631290355383,-0.102358,-0.636413,0.739198
1631290355393,-0.103578,-0.63745,0.7394419999999999
1631290355403,-0.102419,-0.63867,0.73993
1631290355412,-0.102358,-0.6384259999999999,0.739503
1631290355422,-0.10309,-0.638365,0.739381
1631290355431,-0.103578,-0.638609,0.7388319999999999
1631290355441,-0.103944,-0.637938,0.738649
1631290355451,-0.103578,-0.637877,0.737551
1631290355460,-0.104005,-0.637999,0.738344
1631290355470,-0.104615,-0.63806,0.7379169999999999
1631290355479,-0.104798,-0.637084,0.737673
1631290355489,-0.104737,-0.636962,0.738954
1631290355499,-0.105164,-0.637145,0.739198
1631290355508,-0.105286,-0.637267,0.739808
1631290355518,-0.105347,-0.636413,0.739808
1631290355527,-0.10553,-0.6356809999999999,0.7400519999999999
1631290355537,-0.105713,-0.635132,0.739808
1631290355547,-0.10614,-0.635925,0.7400519999999999
1631290355556,-0.10577399999999999,-0.635498,0.739625
1631290355566,-0.105469,-0.635254,0.73932
1631290355575,-0.10553,-0.634339,0.739869
1631290355585,-0.10553,-0.635498,0.7388319999999999
1631290355595,-0.10492,-0.6359859999999999,0.738466
1631290355604,-0.104249,-0.635498,0.738344
1631290355614,-0.103639,-0.63684,0.7385269999999999
1631290355623,-0.102907,-0.636962,0.738771
1631290355633,-0.103273,-0.637145,0.737856
1631290355643,-0.10431,-0.6375109999999999,0.737795
1631290355652,-0.10248,-0.637877,0.7381
1631290355662,-0.10205299999999999,-0.638365,0.738954
1631290355671,-0.10144299999999999,-0.6384259999999999,0.7381
1631290355681,-0.101016,-0.639219,0.7385269999999999
1631290355691,-0.10052799999999999,-0.639219,0.738588
1631290355700,-0.10052799999999999,-0.6384259999999999,0.7391369999999999
1631290355710,-0.102175,-0.63745,0.7381
1631290355719,-0.10144299999999999,-0.637145,0.737856
1631290355729,-0.101687,-0.637999,0.738893
1631290355739,-0.100894,-0.638182,0.739198
1631290355748,-0.10205299999999999,-0.636108,0.739259
1631290355758,-0.102419,-0.6344,0.7376119999999999
1631290355767,-0.101687,-0.634949,0.740418
1631290355777,-0.101626,-0.637877,0.744017
1631290355787,-0.101626,-0.636474,0.744566
1631290355796,-0.101565,-0.634827,0.741394
1631290355806,-0.102541,-0.635437,0.737124
1631290355815,-0.102114,-0.636108,0.73505
1631290355825,-0.101992,-0.637938,0.735111
1631290355835,-0.10144299999999999,-0.6387309999999999,0.736514
1631290355844,-0.102968,-0.638853,0.738344
1631290355854,-0.102175,-0.638548,0.739381
1631290355863,-0.10376099999999999,-0.639158,0.740906
1631290355873,-0.102541,-0.639585,0.740296
1631290355883,-0.102297,-0.63989,0.739198
1631290355892,-0.102602,-0.639219,0.73749
1631290355902,-0.10345599999999999,-0.6378159999999999,0.73627
1631290355911,-0.10467599999999999,-0.637694,0.737246
1631290355921,-0.105042,-0.637084,0.7373069999999999
1631290355931,-0.104798,-0.636413,0.738466
1631290355940,-0.104554,-0.636047,0.7394419999999999
1631290355950,-0.105591,-0.635803,0.740418
1631290355959,-0.105408,-0.63562,0.74115
1631290355969,-0.105164,-0.6344,0.74115
1631290355979,-0.105835,-0.634644,0.741211
1631290355988,-0.105164,-0.6353759999999999,0.73993
1631290355998,-0.10577399999999999,-0.635132,0.739564
1631290356007,-0.10492,-0.63684,0.740296
1631290356017,-0.103944,-0.636779,0.737978
1631290356027,-0.1037,-0.6365959999999999,0.736148
1631290356036,-0.10315099999999999,-0.637023,0.737368
1631290356046,-0.102541,-0.63806,0.739015
1631290356055,-0.101626,-0.638548,0.740235
1631290356065,-0.101626,-0.637694,0.739076
1631290356075,-0.102419,-0.637145,0.7363919999999999
1631290356084,-0.102419,-0.636718,0.735111
1631290356094,-0.102297,-0.638609,0.73444
1631290356103,-0.100955,-0.639219,0.7339519999999999
1631290356113,-0.101077,-0.638853,0.734501
1631290356123,-0.101504,-0.640439,0.735965
1631290356132,-0.100345,-0.639524,0.736575
1631290356142,-0.100772,-0.640744,0.737124
1631290356151,-0.10083299999999999,-0.641232,0.737978
1631290356161,-0.101809,-0.64111,0.736514
1631290356171,-0.102724,-0.6405,0.7357819999999999
1631290356180,-0.103578,-0.6402559999999999,0.736026
1631290356190,-0.1037,-0.640317,0.735843
1631290356199,-0.103517,-0.6399509999999999,0.736514
1631290356209,-0.10437099999999999,-0.639829,0.736941
1631290356219,-0.103639,-0.6402559999999999,0.737185
1631290356228,-0.104249,-0.640195,0.7370019999999999
1631290356238,-0.104554,-0.640744,0.736209
1631290356247,-0.10431,-0.640317,0.7370019999999999
1631290356257,-0.104188,-0.641049,0.736819
1631290356267,-0.104188,-0.641415,0.735904
1631290356276,-0.105286,-0.6420859999999999,0.7351719999999999
1631290356286,-0.10437099999999999,-0.641049,0.735111
1631290356295,-0.104615,-0.642147,0.7348669999999999
1631290356305,-0.105042,-0.642757,0.735721
1631290356315,-0.105164,-0.642513,0.735599
1631290356324,-0.10553,-0.641232,0.73566
1631290356334,-0.105957,-0.6414759999999999,0.7360869999999999
1631290356343,-0.10607899999999999,-0.6408659999999999,0.735904
1631290356353,-0.10577399999999999,-0.640805,0.735721
1631290356363,-0.106445,-0.640927,0.7357819999999999
1631290356372,-0.10553,-0.640988,0.735965
1631290356382,-0.105896,-0.6390359999999999,0.736514
1631290356391,-0.10638399999999999,-0.639219,0.735965
1631290356401,-0.10675,-0.639524,0.73627
1631290356411,-0.106201,-0.6387309999999999,0.7363919999999999
1631290356420,-0.106262,-0.6390359999999999,0.736453
1631290356430,-0.10614,-0.638792,0.736636
1631290356439,-0.105347,-0.638792,0.7363919999999999
1631290356449,-0.105042,-0.638975,0.7360869999999999
1631290356459,-0.105408,-0.639158,0.736148
1631290356468,-0.10492,-0.639097,0.735233
1631290356478,-0.10492,-0.6393409999999999,0.735599
1631290356487,-0.104432,-0.640134,0.73505
1631290356497,-0.10309,-0.640988,0.7348669999999999
1631290356507,-0.103822,-0.640378,0.734684
1631290356516,-0.10309,-0.641232,0.735294
1631290356526,-0.102358,-0.641232,0.734745
1631290356535,-0.10315099999999999,-0.641903,0.734501
1631290356545,-0.10315099999999999,-0.641964,0.73444
1631290356555,-0.102724,-0.642574,0.734928
1631290356564,-0.102602,-0.64172,0.7357819999999999
1631290356574,-0.103273,-0.640683,0.736636
1631290356583,-0.104188,-0.641415,0.736758
1631290356593,-0.10437099999999999,-0.639097,0.736636
1631290356603,-0.10492,-0.638975,0.736636
1631290356612,-0.105347,-0.63867,0.7370019999999999
1631290356622,-0.10498099999999999,-0.639158,0.738405
1631290356631,-0.104859,-0.638304,0.7370019999999999
1631290356641,-0.106872,-0.6356809999999999,0.735721
1631290356651,-0.106323,-0.636352,0.7388319999999999
1631290356660,-0.105957,-0.637877,0.7412719999999999
1631290356670,-0.10553,-0.637938,0.7424919999999999
1631290356679,-0.105469,-0.637023,0.739991
1631290356689,-0.10668899999999999,-0.636413,0.7354769999999999
1631290356699,-0.106567,-0.637938,0.7336469999999999
1631290356708,-0.105896,-0.638853,0.732976
1631290356718,-0.105957,-0.640134,0.73383
1631290356727,-0.106262,-0.6405609999999999,0.736209
1631290356737,-0.10638399999999999,-0.64111,0.7370019999999999
1631290356747,-0.10699399999999999,-0.642452,0.737978
1631290356756,-0.106628,-0.64172,0.7385269999999999
1631290356766,-0.106872,-0.64172,0.737185
1631290356775,-0.10760399999999999,-0.6408659999999999,0.735111
1631290356785,-0.108092,-0.63989,0.735294
1631290356795,-0.108519,-0.638487,0.734745
1631290356804,-0.109129,-0.636962,0.735965
1631290356814,-0.11022699999999999,-0.637328,0.737185
1631290356823,-0.109739,-0.635559,0.737978
1631290356833,-0.10961699999999999,-0.634705,0.73871
1631290356843,-0.110166,-0.6347659999999999,0.7397469999999999
1631290356852,-0.109251,-0.635254,0.739381
1631290356862,-0.109434,-0.635132,0.7394419999999999
1631290356871,-0.108946,-0.63501,0.738893
1631290356881,-0.109373,-0.636962,0.7376119999999999
1631290356891,-0.109129,-0.636779,0.737673
1631290356900,-0.108092,-0.6362909999999999,0.735538
1631290356910,-0.10790899999999999,-0.637023,0.735965
1631290356919,-0.107116,-0.63806,0.737185
1631290356929,-0.105896,-0.639768,0.73932
1631290356939,-0.105042,-0.639158,0.738344
1631290356948,-0.106628,-0.639829,0.736453
1631290356958,-0.105835,-0.638487,0.734928
1631290356967,-0.10553,-0.6390359999999999,0.7330369999999999
1631290356977,-0.106262,-0.639829,0.732488
1631290356987,-0.10614,-0.639707,0.732976
1631290356996,-0.106811,-0.6405609999999999,0.734013
1631290357006,-0.106018,-0.640012,0.735416
1631290357015,-0.10614,-0.6402559999999999,0.73627
1631290357025,-0.106323,-0.639463,0.736514
1631290357035,-0.106872,-0.640012,0.737063
1631290357044,-0.107848,-0.6393409999999999,0.736148
1631290357054,-0.10931199999999999,-0.639463,0.7363919999999999
1631290357063,-0.10931199999999999,-0.63867,0.735843
1631290357073,-0.1098,-0.639402,0.736636
1631290357083,-0.109739,-0.63928,0.736575
1631290357092,-0.110105,-0.638853,0.736148
1631290357102,-0.109983,-0.639097,0.736819
1631290357111,-0.110166,-0.638304,0.73627
1631290357121,-0.110166,-0.639097,0.736636
1631290357131,-0.110898,-0.639524,0.735904
1631290357140,-0.11053199999999999,-0.639097,0.73627
1631290357150,-0.109983,-0.640073,0.735904
1631290357159,-0.110898,-0.640622,0.7354769999999999
1631290357169,-0.111752,-0.6402559999999999,0.735599
1631290357179,-0.111874,-0.640378,0.7351719999999999
1631290357188,-0.11083699999999999,-0.640073,0.7345619999999999
1631290357198,-0.11102,-0.640805,0.734074
1631290357207,-0.110898,-0.6402559999999999,0.7345619999999999
1631290357217,-0.11114199999999999,-0.6402559999999999,0.735233
1631290357227,-0.112057,-0.63989,0.734989
1631290357236,-0.111874,-0.639219,0.735294
1631290357246,-0.112118,-0.63867,0.7360869999999999
1631290357255,-0.11223999999999999,-0.639158,0.736148
1631290357265,-0.112667,-0.638243,0.7357819999999999
1631290357275,-0.11345999999999999,-0.638182,0.7366969999999999
1631290357284,-0.113216,-0.638365,0.736758
1631290357294,-0.11254499999999999,-0.638182,0.736331
1631290357303,-0.113033,-0.637755,0.736575
1631290357313,-0.112484,-0.638914,0.736453
1631290357323,-0.112118,-0.6378159999999999,0.736514
1631290357332,-0.112362,-0.63806,0.73566
1631290357342,-0.112362,-0.63867,0.736209
1631290357351,-0.112057,-0.638914,0.735355
1631290357361,-0.111996,-0.639097,0.7354769999999999
1631290357371,-0.11114199999999999,-0.638914,0.734684
1631290357380,-0.111569,-0.639768,0.734318
1631290357390,-0.111081,-0.6399509999999999,0.733769
1631290357399,-0.110288,-0.640439,0.734074
1631290357409,-0.110776,-0.640927,0.733769
1631290357419,-0.111081,-0.64111,0.733525
1631290357428,-0.110959,-0.641049,0.7336469999999999
1631290357438,-0.110654,-0.641659,0.733525
1631290357447,-0.110715,-0.6411709999999999,0.73444
1631290357457,-0.111996,-0.640622,0.735355
1631290357467,-0.111203,-0.640988,0.7348669999999999
1631290357476,-0.111386,-0.640012,0.735294
1631290357486,-0.11223999999999999,-0.6396459999999999,0.735904
1631290357495,-0.112789,-0.639585,0.736819
1631290357505,-0.113582,-0.638304,0.7360869999999999
1631290357515,-0.113826,-0.638243,0.7360869999999999
1631290357524,-0.113582,-0.6390359999999999,0.736209
1631290357534,-0.113338,-0.639158,0.7373069999999999
1631290357543,-0.113887,-0.636962,0.7360869999999999
1631290357553,-0.114802,-0.634705,0.7351719999999999
1631290357563,-0.114558,-0.636169,0.737246
1631290357572,-0.113216,-0.638975,0.740418
1631290357582,-0.112118,-0.6384259999999999,0.741028
1631290357591,-0.113948,-0.6384259999999999,0.73749
1631290357601,-0.113948,-0.637938,0.733708
1631290357611,-0.113826,-0.638792,0.732549
1631290357620,-0.114009,-0.640195,0.732488
1631290357630,-0.113399,-0.6405,0.733891
1631290357639,-0.113643,-0.63989,0.7354769999999999
1631290357649,-0.113948,-0.6399509999999999,0.736148
1631290357659,-0.112606,-0.640805,0.736819
1631290357668,-0.112179,-0.641293,0.736514
1631290357678,-0.112606,-0.6408659999999999,0.735538
1631290357687,-0.113582,-0.639585,0.73383
1631290357697,-0.114314,-0.63867,0.731695
1631290357707,-0.114741,-0.637572,0.7330369999999999
1631290357716,-0.11486299999999999,-0.637938,0.733403
1631290357726,-0.11468,-0.637938,0.734074
1631290357735,-0.114253,-0.636413,0.735294
1631290357745,-0.114741,-0.63684,0.7363919999999999
1631290357755,-0.113948,-0.637145,0.735904
1631290357764,-0.114497,-0.638182,0.735294
1631290357774,-0.114436,-0.638304,0.736026
1631290357783,-0.114436,-0.63867,0.736026
1631290357793,-0.114558,-0.639707,0.735416
1631290357803,-0.113338,-0.639463,0.73322
1631290357812,-0.113948,-0.638975,0.7339519999999999
1631290357822,-0.113399,-0.6405,0.736758
1631290357831,-0.11284999999999999,-0.6411709999999999,0.7391369999999999
1631290357841,-0.111813,-0.641842,0.738893
1631290357851,-0.112057,-0.641293,0.7360869999999999
1631290357860,-0.111996,-0.639463,0.734013
1631290357870,-0.113216,-0.6396459999999999,0.7318169999999999
1631290357879,-0.112972,-0.640378,0.731634
1631290357889,-0.113216,-0.640317,0.732244
1631290357899,-0.11315499999999999,-0.640195,0.7330369999999999
1631290357908,-0.112606,-0.6405,0.7345619999999999
1631290357918,-0.113338,-0.640439,0.736026
1631290357927,-0.112972,-0.640683,0.736331
1631290357937,-0.113582,-0.63928,0.7351719999999999
1631290357947,-0.11406999999999999,-0.6393409999999999,0.73322
1631290357956,-0.11486299999999999,-0.638975,0.7327319999999999
1631290357966,-0.115046,-0.638548,0.732366
1631290357975,-0.1159,-0.6387309999999999,0.733464
1631290357985,-0.116754,-0.638609,0.73383
1631290357995,-0.116632,-0.6387309999999999,0.735355
1631290358004,-0.117364,-0.63867,0.735294
1631290358014,-0.11651,-0.639524,0.735233
1631290358023,-0.11730299999999999,-0.640622,0.736453
1631290358033,-0.118279,-0.6396459999999999,0.736514
1631290358043,-0.11840099999999999,-0.6399509999999999,0.73566
1631290358052,-0.118828,-0.639585,0.734196
1631290358062,-0.118767,-0.639768,0.734013
1631290358071,-0.119438,-0.639219,0.73322
1631290358081,-0.120109,-0.6396459999999999,0.733403
1631290358091,-0.119499,-0.640195,0.7336469999999999
1631290358100,-0.119987,-0.63989,0.733464
1631290358110,-0.119743,-0.63989,0.734745
1631290358119,-0.12071899999999999,-0.640622,0.73383
1631290358129,-0.120048,-0.640378,0.733891
1631290358139,-0.118828,-0.640622,0.733586
1631290358148,-0.12023099999999999,-0.640073,0.733464
1631290358158,-0.120292,-0.639768,0.7342569999999999
1631290358167,-0.12071899999999999,-0.639219,0.734135
1631290358177,-0.120475,-0.639097,0.7354769999999999
1631290358187,-0.119865,-0.639158,0.73444
1631290358196,-0.120658,-0.639524,0.735111
1631290358206,-0.121268,-0.639463,0.735294
1631290358215,-0.12078,-0.639097,0.735294
1631290358225,-0.120292,-0.638914,0.735843
1631290358235,-0.12102399999999999,-0.638182,0.7357819999999999
1631290358244,-0.120414,-0.638243,0.734501
1631290358254,-0.119987,-0.6390359999999999,0.7345619999999999
1631290358263,-0.118828,-0.6396459999999999,0.734135
1631290358273,-0.117974,-0.640378,0.734623
1631290358283,-0.117669,-0.6405,0.734196
1631290358292,-0.117547,-0.640805,0.734501
1631290358302,-0.11712,-0.641354,0.734074
1631290358311,-0.117059,-0.64111,0.732976
1631290358321,-0.11712,-0.6417809999999999,0.73322
1631290358331,-0.116571,-0.642452,0.73322
1631290358340,-0.1159,-0.643367,0.7324269999999999
1631290358350,-0.115412,-0.642635,0.732854
1631290358359,-0.1159,-0.64294,0.732854
1631290358369,-0.115717,-0.642635,0.7327319999999999
1631290358379,-0.116022,-0.64233,0.732549
1631290358388,-0.116144,-0.641964,0.732915
1631290358398,-0.116144,-0.6414759999999999,0.732488
1631290358407,-0.116144,-0.641232,0.731634
1631290358417,-0.115839,-0.6411709999999999,0.731939
1631290358427,-0.11608299999999999,-0.639707,0.731695
1631290358436,-0.115107,-0.639829,0.73261
1631290358446,-0.11577799999999999,-0.638792,0.7321219999999999
1631290358455,-0.115839,-0.638914,0.73322
1631290358465,-0.116754,-0.6405,0.73627
1631290358475,-0.117059,-0.641964,0.736575
1631290358484,-0.11608299999999999,-0.6414759999999999,0.736209
1631290358494,-0.1159,-0.642269,0.7330369999999999
1631290358503,-0.115839,-0.643367,0.731573
1631290358513,-0.114741,-0.643855,0.731695
1631290358523,-0.11345999999999999,-0.644709,0.73383
1631290358532,-0.11376499999999999,-0.644404,0.735355
1631290358542,-0.113887,-0.644038,0.735355
1631290358551,-0.114009,-0.643245,0.734135
1631290358561,-0.114436,-0.642818,0.73261
1631290358571,-0.113704,-0.641537,0.7312069999999999
1631290358580,-0.114192,-0.640805,0.729926
1631290358590,-0.114436,-0.640988,0.7293769999999999
1631290358599,-0.114192,-0.640195,0.7293769999999999
1631290358609,-0.113338,-0.640439,0.730414
1631290358619,-0.113948,-0.6390359999999999,0.730658
1631290358628,-0.11345999999999999,-0.640195,0.7309019999999999
1631290358638,-0.11315499999999999,-0.6405,0.731146
1631290358647,-0.112911,-0.64172,0.7327319999999999
1631290358657,-0.112789,-0.641964,0.733891
1631290358667,-0.112179,-0.642757,0.733708
1631290358676,-0.112667,-0.643672,0.732915
1631290358686,-0.113277,-0.643062,0.731939
1631290358695,-0.112728,-0.641964,0.730048
1631290358705,-0.112301,-0.64294,0.732366
1631290358715,-0.112179,-0.644892,0.735355
1631290358724,-0.111691,-0.6445259999999999,0.735599
1631290358734,-0.110898,-0.644099,0.7336469999999999
1631290358743,-0.111996,-0.643977,0.731695
1631290358753,-0.111203,-0.64355,0.73261
1631290358763,-0.110959,-0.6436109999999999,0.731634
1631290358772,-0.110654,-0.64233,0.731146
1631290358782,-0.111508,-0.64111,0.732549
1631290358791,-0.110959,-0.641964,0.732244
1631290358801,-0.11083699999999999,-0.641293,0.731756
1631290358811,-0.111569,-0.640439,0.730963
1631290358820,-0.111874,-0.6405,0.730719
1631290358830,-0.11102,-0.641903,0.730658
1631290358839,-0.11163,-0.641659,0.731146
1631290358849,-0.11254499999999999,-0.642147,0.731634
1631290358859,-0.112972,-0.6411709999999999,0.73139
1631290358868,-0.112728,-0.642025,0.731085
1631290358878,-0.113277,-0.64233,0.73261
1631290358887,-0.11468,-0.642513,0.733403
1631290358897,-0.114558,-0.643123,0.733769
1631290358907,-0.114314,-0.64233,0.733098
1631290358916,-0.116022,-0.642574,0.7327319999999999
1631290358926,-0.115046,-0.643489,0.733403
1631290358935,-0.116022,-0.643062,0.732793
1631290358945,-0.11712,-0.643062,0.732244
1631290358955,-0.11699799999999999,-0.64233,0.7330369999999999
1631290358964,-0.117242,-0.642269,0.7327319999999999
1631290358974,-0.117364,-0.642147,0.731695
1631290358983,-0.117242,-0.642025,0.7315119999999999
1631290358993,-0.11773,-0.64233,0.732488
1631290359003,-0.11773,-0.642025,0.732366
1631290359012,-0.118889,-0.64111,0.732366
1631290359022,-0.11895,-0.640683,0.732366
1631290359031,-0.119072,-0.641049,0.732915
1631290359041,-0.119377,-0.6402559999999999,0.733403
1631290359051,-0.119804,-0.640073,0.733586
1631290359060,-0.119682,-0.6396459999999999,0.73444
1631290359070,-0.119438,-0.640195,0.733769
1631290359079,-0.11992599999999999,-0.639524,0.734196
1631290359089,-0.11962099999999999,-0.63928,0.733464
1631290359099,-0.11962099999999999,-0.63928,0.73444
1631290359108,-0.119804,-0.638914,0.733891
1631290359118,-0.119438,-0.639524,0.7333419999999999
1631290359127,-0.118279,-0.640012,0.7336469999999999
1631290359137,-0.118157,-0.63989,0.7327319999999999
1631290359147,-0.118035,-0.6405,0.733891
1631290359156,-0.118035,-0.640195,0.733403
1631290359166,-0.11779099999999999,-0.6408659999999999,0.7327319999999999
1631290359175,-0.117608,-0.640927,0.7330369999999999
1631290359185,-0.11608299999999999,-0.6414759999999999,0.733098
1631290359195,-0.115656,-0.642818,0.733586
1631290359204,-0.11516799999999999,-0.64233,0.7324269999999999
1631290359214,-0.115412,-0.642513,0.732061
1631290359223,-0.114924,-0.641354,0.73261
1631290359233,-0.115351,-0.641293,0.732366
1631290359243,-0.115534,-0.641049,0.73261
1631290359252,-0.114924,-0.641537,0.732793
1631290359262,-0.114436,-0.64111,0.731695
1631290359271,-0.114497,-0.640317,0.729926
1631290359281,-0.115595,-0.640195,0.730109
1631290359291,-0.115046,-0.640927,0.732854
1631290359300,-0.114741,-0.64172,0.734623
1631290359310,-0.115595,-0.6405609999999999,0.73444
1631290359319,-0.115717,-0.640622,0.734806
1631290359329,-0.116327,-0.6423909999999999,0.7360869999999999
1631290359339,-0.115656,-0.642757,0.736514
1631290359348,-0.115656,-0.64294,0.736209
1631290359358,-0.11608299999999999,-0.642208,0.7336469999999999
1631290359367,-0.115412,-0.64172,0.732244
1631290359377,-0.116144,-0.641964,0.732793
1631290359387,-0.114802,-0.6433059999999999,0.73444
1631290359396,-0.11486299999999999,-0.642818,0.73505
1631290359406,-0.115534,-0.64233,0.7348669999999999
1631290359415,-0.11577799999999999,-0.641903,0.734318
1631290359425,-0.1159,-0.641903,0.733464
1631290359435,-0.116266,-0.641415,0.7321219999999999
1631290359444,-0.116327,-0.6411709999999999,0.7309019999999999
1631290359454,-0.116327,-0.640439,0.729865
1631290359463,-0.116327,-0.6381209999999999,0.731268
1631290359473,-0.11669299999999999,-0.63806,0.731573
1631290359483,-0.11773,-0.637694,0.732793
1631290359492,-0.117486,-0.6372059999999999,0.734623
1631290359502,-0.117669,-0.637938,0.734623
1631290359511,-0.11779099999999999,-0.638853,0.734501
1631290359521,-0.116571,-0.639219,0.734806
1631290359531,-0.11651,-0.639158,0.734684
1631290359540,-0.117364,-0.6399509999999999,0.734501
1631290359550,-0.11669299999999999,-0.638304,0.732305
1631290359559,-0.116937,-0.638304,0.732488
1631290359569,-0.11669299999999999,-0.6393409999999999,0.733891
1631290359579,-0.116205,-0.640195,0.7357819999999999
1631290359588,-0.116266,-0.6396459999999999,0.736514
1631290359598,-0.116632,-0.6393409999999999,0.73444
1631290359607,-0.117486,-0.63928,0.733159
1631290359617,-0.11699799999999999,-0.639402,0.733708
1631290359627,-0.1159,-0.639463,0.732793
1631290359636,-0.116937,-0.638243,0.732854
1631290359646,-0.116022,-0.637328,0.732915
1631290359655,-0.117852,-0.637572,0.732671
1631290359665,-0.11712,-0.638182,0.732549
1631290359675,-0.117181,-0.639463,0.731878
1631290359684,-0.116632,-0.6402559999999999,0.731878
1631290359694,-0.117242,-0.6408659999999999,0.7315119999999999
1631290359703,-0.116754,-0.641537,0.7321219999999999
1631290359713,-0.117181,-0.6405,0.7327319999999999
1631290359723,-0.118279,-0.641049,0.734196
1631290359732,-0.118218,-0.64111,0.734623
1631290359742,-0.11956,-0.64111,0.734684
1631290359751,-0.119743,-0.641293,0.735111
1631290359761,-0.12017,-0.6414759999999999,0.734989
1631290359771,-0.120658,-0.641354,0.73505
1631290359780,-0.120536,-0.640744,0.734989
1631290359790,-0.119865,-0.640927,0.735843
1631290359799,-0.121085,-0.640744,0.735599
1631290359809,-0.120658,-0.640439,0.735294
1631290359819,-0.120902,-0.6402559999999999,0.734135
1631290359828,-0.120963,-0.63928,0.732976
1631290359838,-0.120597,-0.639463,0.7318169999999999
1631290359847,-0.120841,-0.6405609999999999,0.732
1631290359857,-0.12071899999999999,-0.640622,0.731939
1631290359867,-0.121146,-0.641415,0.73261
1631290359876,-0.121207,-0.641354,0.732549
1631290359886,-0.12193899999999999,-0.6414759999999999,0.731878
1631290359895,-0.12132899999999999,-0.641293,0.731024
1631290359905,-0.12163399999999999,-0.641049,0.731268
1631290359915,-0.12193899999999999,-0.640378,0.73078
1631290359924,-0.122122,-0.6411709999999999,0.7324269999999999
1631290359934,-0.12224399999999999,-0.6414759999999999,0.732854
1631290359943,-0.122976,-0.6411709999999999,0.733708
1631290359953,-0.12224399999999999,-0.641293,0.7339519999999999
1631290359963,-0.123281,-0.640927,0.734928
1631290359972,-0.123525,-0.640622,0.735233
1631290359982,-0.123708,-0.6396459999999999,0.73505
1631290359991,-0.124806,-0.6390359999999999,0.73566
1631290360001,-0.124196,-0.638548,0.73505
1631290360011,-0.124196,-0.63806,0.7354769999999999
1631290360020,-0.12425699999999999,-0.63745,0.734501
1631290360030,-0.123098,-0.637938,0.734379
1631290360039,-0.12254899999999999,-0.638365,0.733098
1631290360049,-0.122122,-0.6387309999999999,0.732488
1631290360059,-0.12071899999999999,-0.638914,0.733525
1631290360068,-0.12078,-0.640439,0.732976
1631290360078,-0.119438,-0.640683,0.733708
1631290360087,-0.119133,-0.640927,0.734135
1631290360097,-0.118767,-0.64111,0.7342569999999999
1631290360107,-0.118035,-0.641354,0.733769
1631290360116,-0.117913,-0.64111,0.734501
1631290360126,-0.11840099999999999,-0.640988,0.735233
1631290360135,-0.117974,-0.640195,0.734013
1631290360145,-0.11773,-0.6402559999999999,0.733708
1631290360155,-0.117364,-0.639585,0.734196
1631290360164,-0.11651,-0.638792,0.7333419999999999
1631290360174,-0.116937,-0.636779,0.732305
1631290360183,-0.117059,-0.636962,0.734501
1631290360193,-0.1159,-0.63867,0.737795
1631290360203,-0.115046,-0.6393409999999999,0.739503
1631290360212,-0.11486299999999999,-0.638853,0.73871
1631290360222,-0.115717,-0.637938,0.734989
1631290360231,-0.116144,-0.638487,0.731451
1631290360241,-0.115229,-0.638548,0.731085
1631290360251,-0.11468,-0.639219,0.7318169999999999
1631290360260,-0.113887,-0.63989,0.734135
1631290360270,-0.11468,-0.639707,0.735904
1631290360279,-0.113948,-0.640439,0.736514
1631290360289,-0.113216,-0.641049,0.736209
1631290360299,-0.113887,-0.641842,0.734989
1631290360308,-0.113094,-0.641964,0.733098
1631290360318,-0.113521,-0.640683,0.731329
1631290360327,-0.114558,-0.640744,0.732915
1631290360337,-0.114558,-0.6396459999999999,0.733403
1631290360347,-0.115717,-0.6390359999999999,0.734074
1631290360356,-0.115229,-0.638548,0.735233
1631290360366,-0.115412,-0.638487,0.737429
1631290360375,-0.115717,-0.6375109999999999,0.737429
1631290360385,-0.115595,-0.637084,0.7376119999999999
1631290360395,-0.114985,-0.637389,0.7370019999999999
1631290360404,-0.114924,-0.637572,0.736575
1631290360414,-0.115046,-0.6359859999999999,0.735294
1631290360423,-0.115717,-0.636779,0.735965
1631290360433,-0.113704,-0.6378159999999999,0.735721
1631290360443,-0.113948,-0.636352,0.7336469999999999
1631290360452,-0.113948,-0.63745,0.7345619999999999
1631290360462,-0.112362,-0.6396459999999999,0.7354769999999999
1631290360471,-0.11114199999999999,-0.6402559999999999,0.736819
1631290360481,-0.111752,-0.640073,0.737063
1631290360491,-0.111569,-0.639707,0.734745
1631290360500,-0.112057,-0.640134,0.731756
1631290360510,-0.111874,-0.63989,0.732
1631290360519,-0.11163,-0.640073,0.730414
1631290360529,-0.111264,-0.640195,0.730475
1631290360539,-0.111447,-0.641659,0.731695
1631290360548,-0.112362,-0.640927,0.733464
1631290360558,-0.11114199999999999,-0.641598,0.734318
1631290360567,-0.110959,-0.64172,0.7345619999999999
1631290360577,-0.111508,-0.641354,0.7339519999999999
1631290360587,-0.111996,-0.6411709999999999,0.7324269999999999
1631290360596,-0.112667,-0.640378,0.7324269999999999
1631290360606,-0.113277,-0.640622,0.732976
1631290360615,-0.113521,-0.640927,0.733281
1631290360625,-0.11468,-0.640134,0.733098
1631290360635,-0.114497,-0.6402559999999999,0.7330369999999999
1631290360644,-0.11468,-0.640134,0.734135
1631290360654,-0.115107,-0.6405,0.734501
1631290360663,-0.115107,-0.641049,0.733708
1631290360673,-0.115595,-0.64172,0.733769
1631290360683,-0.115107,-0.64172,0.733403
1631290360692,-0.11486299999999999,-0.642208,0.733769
1631290360702,-0.115656,-0.643184,0.7330369999999999
1631290360711,-0.115534,-0.642635,0.73261
1631290360721,-0.114436,-0.6439159999999999,0.732488
1631290360731,-0.116327,-0.643977,0.732915
1631290360740,-0.115107,-0.644404,0.732
1631290360750,-0.116266,-0.6442209999999999,0.731878
1631290360759,-0.116022,-0.643367,0.731878
1631290360769,-0.11638799999999999,-0.64294,0.733098
1631290360779,-0.116327,-0.643733,0.731939
1631290360788,-0.117364,-0.64233,0.732976
1631290360798,-0.116205,-0.641842,0.73383
1631290360807,-0.11651,-0.6417809999999999,0.734623
1631290360817,-0.11651,-0.641598,0.7336469999999999
1631290360827,-0.11669299999999999,-0.640805,0.732915
1631290360836,-0.116205,-0.6408659999999999,0.7336469999999999
1631290360846,-0.116754,-0.640317,0.7336469999999999
1631290360855,-0.11730299999999999,-0.640012,0.7342569999999999
1631290360865,-0.117425,-0.639768,0.733769
1631290360875,-0.11669299999999999,-0.640378,0.733098
1631290360884,-0.11547299999999999,-0.6405,0.733525
1631290360894,-0.115107,-0.64111,0.7327319999999999
1631290360903,-0.115046,-0.641293,0.732183
1631290360913,-0.114802,-0.64233,0.731329
1631290360923,-0.113338,-0.642574,0.73139
1631290360932,-0.113277,-0.643367,0.731634
1631290360942,-0.112484,-0.643184,0.731878
1631290360951,-0.113094,-0.643672,0.731146
1631290360961,-0.112118,-0.6430009999999999,0.7318169999999999
1631290360971,-0.112484,-0.642513,0.732244
1631290360980,-0.113216,-0.6423909999999999,0.731756
1631290360990,-0.112728,-0.642025,0.732854
1631290360999,-0.112728,-0.641964,0.73383
1631290361009,-0.114497,-0.640988,0.7333419999999999
1631290361019,-0.114314,-0.640317,0.732915
1631290361028,-0.113094,-0.640927,0.73383
1631290361038,-0.11315499999999999,-0.640988,0.736148
1631290361047,-0.113826,-0.638243,0.734806
1631290361057,-0.114253,-0.637023,0.733891
1631290361067,-0.11406999999999999,-0.638243,0.7354769999999999
1631290361076,-0.113643,-0.639585,0.73871
1631290361086,-0.113338,-0.63989,0.739625
1631290361095,-0.11345999999999999,-0.63867,0.73627
1631290361105,-0.114497,-0.638975,0.732305
1631290361115,-0.115046,-0.63989,0.7302919999999999
1631290361124,-0.113277,-0.641354,0.730231
1631290361134,-0.113338,-0.642269,0.7321219999999999
1631290361143,-0.114497,-0.6426959999999999,0.734196
1631290361153,-0.113826,-0.642757,0.734501
1631290361163,-0.113643,-0.643672,0.735416
1631290361172,-0.113948,-0.643672,0.735294
1631290361182,-0.114253,-0.643367,0.73444
1631290361191,-0.114497,-0.642269,0.732244
1631290361201,-0.115595,-0.64172,0.731695
1631290361211,-0.115656,-0.640622,0.732061
1631290361220,-0.115534,-0.63928,0.732671
1631290361230,-0.116266,-0.63928,0.7336469999999999
1631290361239,-0.116327,-0.638792,0.7342569999999999
1631290361249,-0.115839,-0.638548,0.736148
1631290361259,-0.115534,-0.637755,0.735843
1631290361268,-0.116022,-0.637267,0.735721
1631290361278,-0.11638799999999999,-0.637023,0.734989
1631290361287,-0.11651,-0.637694,0.73566
