timestamp,ax,ay,az
1630937999936,-0.723521,-0.056974,-0.67954
1630937999945,-0.723765,-0.055144,-0.678686
1630937999955,-0.723826,-0.054351,-0.678564
1630937999964,-0.722728,-0.056547,-0.6771
1630937999974,-0.724192,-0.057096,-0.677466
1630937999984,-0.724619,-0.05917,-0.67771
1630937999993,-0.72407,-0.05856,-0.677649
1630938000003,-0.723338,-0.058438,-0.677527
1630938000012,-0.722667,-0.057767,-0.675514
1630938000022,-0.722545,-0.058438,-0.675148
1630938000032,-0.722789,-0.05917,-0.673684
1630938000041,-0.722423,-0.059109,-0.673562
1630938000051,-0.723155,-0.058133,-0.67466
1630938000060,-0.722484,-0.059292,-0.675819
1630938000070,-0.721691,-0.058804,-0.675636
1630938000080,-0.723277,-0.05978,-0.675575
1630938000089,-0.723338,-0.059536,-0.677954
1630938000099,-0.722911,-0.061183,-0.677527
1630938000108,-0.726022,-0.062708,-0.677954
1630938000118,-0.724619,-0.062891,-0.680455
1630938000128,-0.72346,-0.065453,-0.677893
1630938000137,-0.723155,-0.067466,-0.674782
1630938000147,-0.723338,-0.06770999999999999,-0.675148
1630938000156,-0.725046,-0.064538,-0.676917
1630938000166,-0.726083,-0.059414,-0.679845
1630938000176,-0.7281569999999999,-0.057034999999999995,-0.680821
1630938000185,-0.7299869999999999,-0.056364,-0.680638
1630938000195,-0.7305969999999999,-0.060878,-0.680882
1630938000204,-0.730475,-0.063928,-0.677222
1630938000214,-0.7299869999999999,-0.065941,-0.6771
1630938000224,-0.7299869999999999,-0.068442,-0.6771
1630938000233,-0.730536,-0.06709999999999999,-0.676429
1630937420092,-0.791231,0.37990799999999997,-0.457012
1630937420101,-0.792512,0.378749,-0.459818
1630937420111,-0.792512,0.378139,-0.45933
1630937420121,-0.792939,0.379786,-0.458537
1630937420130,-0.79239,0.382409,-0.460123
1630937420140,-0.793122,0.378932,-0.456524
1630937420149,-0.794708,0.379542,-0.45566999999999996
1630937420159,-0.79605,0.38064,-0.455731
1630937420169,-0.79605,0.381921,-0.451278
1630937420178,-0.795013,0.389668,-0.44426299999999996
1630937420188,-0.797636,0.390888,-0.43981
1630937420197,-0.800747,0.388143,-0.443897
1630937420207,-0.8039189999999999,0.387838,-0.44804499999999997
1630937420217,-0.804712,0.387411,-0.452132
1630937420226,-0.805688,0.385398,-0.456097
1630937420236,-0.805993,0.382226,-0.457378
1630937420245,-0.8063589999999999,0.37759,-0.457622
1630937420255,-0.8057489999999999,0.37454,-0.457744
1630937420265,-0.8045289999999999,0.37637,-0.45688999999999996
1630937420274,-0.804407,0.381067,-0.454633
1630937420284,-0.803675,0.385459,-0.450851
1630937420293,-0.8005639999999999,0.390156,-0.446398
1630937420303,-0.7984289999999999,0.393511,-0.441152
1630937420313,-0.794403,0.396195,-0.436394
1630937420322,-0.792939,0.397964,-0.432856
1630937420332,-0.791841,0.39894,-0.429989
1630937420341,-0.7917799999999999,0.398696,-0.425475
1630937420351,-0.792634,0.398818,-0.424438
1630937420361,-0.792207,0.394792,-0.425597
1630937420370,-0.7890349999999999,0.389058,-0.428464
1630937420380,-0.787998,0.385398,-0.430782
1630937420389,-0.789157,0.387472,-0.432002
1630937420399,-0.788364,0.388387,-0.433161
1630937420409,-0.789584,0.389241,-0.435174
1630937420418,-0.788059,0.392962,-0.433771
1630937420428,-0.788242,0.398025,-0.430294
1630937420437,-0.792451,0.396866,-0.429257
1630937420447,-0.795806,0.391803,-0.43541799999999997
1630937420457,-0.79849,0.38295799999999997,-0.44304299999999996
1630937420466,-0.803492,0.379847,-0.454572
1630937420476,-0.804468,0.373808,-0.466101
1630937420485,-0.808372,0.367342,-0.475922
1630937420495,-0.8109339999999999,0.362157,-0.488488
1630937420505,-0.815021,0.356423,-0.495991
1630937420514,-0.816363,0.350811,-0.503433
1630937420524,-0.815387,0.345138,-0.508252
1630937420533,-0.814655,0.339709,-0.509716
1630937420543,-0.813252,0.334219,-0.511668
1630937420553,-0.8087989999999999,0.329583,-0.511912
1630937420562,-0.806237,0.326533,-0.511424
1630937420572,-0.805078,0.325252,-0.509472
1630937420581,-0.803126,0.326228,-0.508679
1630937420591,-0.80215,0.324886,-0.505934
1630937420601,-0.800198,0.32574,-0.504287
1630937420610,-0.798368,0.325801,-0.502518
1630937420620,-0.795684,0.325435,-0.499224
1630937420629,-0.793366,0.324032,-0.49654
1630937420639,-0.7917799999999999,0.324825,-0.496662
1630937420649,-0.7902549999999999,0.323727,-0.494954
1630937420658,-0.790682,0.325252,-0.49233099999999996
1630937420668,-0.790682,0.327082,-0.49080599999999996
1630937420677,-0.790621,0.32848499999999997,-0.489098
1630937420687,-0.790682,0.329583,-0.487268
1630937420697,-0.790316,0.329644,-0.48440099999999997
1630937420706,-0.793305,0.330193,-0.48318099999999997
1630937420716,-0.793244,0.331718,-0.482266
1630937420725,-0.793305,0.333243,-0.479521
1630937420735,-0.793244,0.333548,-0.475617
1630937420745,-0.794342,0.336598,-0.471408
1630937420754,-0.795989,0.340441,-0.471225
1630937420764,-0.798307,0.346114,-0.470615
1630937420773,-0.801113,0.350933,-0.471347
1630937420783,-0.8033089999999999,0.353983,-0.469334
1630937420793,-0.805322,0.356972,-0.46665
1630937420802,-0.8054439999999999,0.356667,-0.465125
1630937420812,-0.805627,0.357765,-0.46433199999999997
1630937420821,-0.8042239999999999,0.357643,-0.464454
1630937420831,-0.80398,0.356606,-0.463478
1630937420841,-0.8039189999999999,0.35746,-0.46238
1630937420850,-0.803431,0.358253,-0.462014
1630937420860,-0.8030039999999999,0.357643,-0.46128199999999997
1630937420869,-0.802455,0.357643,-0.46299
1630937420879,-0.803736,0.359412,-0.463905
1630937420889,-0.806298,0.360693,-0.46482
1630937420898,-0.805383,0.362523,-0.465674
1630937420908,-0.804956,0.362462,-0.467138
1630937420917,-0.804773,0.363194,-0.46768699999999996
1630937420927,-0.8033089999999999,0.362584,-0.467504
1630937420937,-0.801906,0.36362099999999997,-0.46665
1630937420946,-0.799405,0.362828,-0.46402699999999997
1630937420956,-0.79666,0.36234,-0.462929
1630937420965,-0.792756,0.362706,-0.46097699999999997
1630937420975,-0.789584,0.360388,-0.45872
1630937420985,-0.785741,0.35868,-0.457195
1630937420994,-0.784582,0.35770399999999997,-0.456341
1630937421004,-0.7875099999999999,0.35807,-0.45627999999999996
1630937421013,-0.785009,0.35800899999999997,-0.457561
1630937421023,-0.785802,0.35685,-0.455548
1630937421033,-0.785863,0.358192,-0.457256
1630937421042,-0.787388,0.360327,-0.457561
1630937421052,-0.789157,0.36051,-0.457012
1630937421061,-0.7917799999999999,0.363255,-0.457439
1630937421071,-0.797087,0.36392599999999997,-0.4575
1630937421081,-0.8005639999999999,0.36539,-0.460123
1630937421090,-0.803187,0.367098,-0.461648
1630937421100,-0.8054439999999999,0.370758,-0.464088
1630937421109,-0.808982,0.37454,-0.466711
1630937421119,-0.811178,0.3782,-0.4697
1630937421129,-0.815021,0.378749,-0.471225
1630937421138,-0.817888,0.380945,-0.472628
1630937421148,-0.818071,0.380579,-0.473177
1630937421157,-0.816668,0.378139,-0.471957
1630937421167,-0.817095,0.377407,-0.466955
1630937421177,-0.815997,0.377529,-0.46421
1630937421186,-0.81252,0.378444,-0.462563
1630937421196,-0.813008,0.383324,-0.45872
1630937421205,-0.8113,0.385764,-0.457256
1630937421215,-0.809836,0.392413,-0.458659
1630937421225,-0.807091,0.396622,-0.459086
1630937421234,-0.804651,0.397964,-0.45975699999999997
1630937421244,-0.80276,0.396744,-0.458415
1630937421253,-0.800015,0.395341,-0.457927
1630937421263,-0.7987339999999999,0.39100999999999997,-0.459025
1630937421273,-0.797087,0.392718,-0.459574
1630937421282,-0.791292,0.389119,-0.461099
1630937421292,-0.7884249999999999,0.38674,-0.45627999999999996
1630937421301,-0.783667,0.38186,-0.454023
1630937421311,-0.7795799999999999,0.375882,-0.452803
1630937421321,-0.778238,0.371856,-0.45109499999999997
1630937421330,-0.7768349999999999,0.36850099999999997,-0.452437
1630937421340,-0.781654,0.36539,-0.45353499999999997
1630937421349,-0.783606,0.361547,-0.459879
1630937421359,-0.785192,0.35678899999999997,-0.46494199999999997
1630937421369,-0.7878149999999999,0.35221399999999997,-0.46738199999999996
1630937421378,-0.7878149999999999,0.351299,-0.471103
1630937421388,-0.786778,0.352763,-0.47329899999999997
1630937421397,-0.788608,0.352397,-0.474092
1630937421407,-0.792207,0.353068,-0.475678
1630937421417,-0.792512,0.353251,-0.48000899999999996
1630937421426,-0.791536,0.350872,-0.480436
1630937421436,-0.793793,0.348676,-0.476776
1630937421445,-0.796233,0.349286,-0.475678
1630937421455,-0.797392,0.348615,-0.475617
1630937421465,-0.796172,0.34709,-0.472872
1630937421474,-0.797087,0.34526,-0.470737
1630937421484,-0.796538,0.34446699999999997,-0.468053
1630937421493,-0.793,0.343918,-0.46677199999999996
1630937421503,-0.791719,0.343369,-0.463905
1630937421513,-0.792451,0.345565,-0.460916
1630937421522,-0.791231,0.348432,-0.461709
1630937421532,-0.791109,0.353617,-0.46250199999999997
1630937421541,-0.791841,0.356545,-0.463783
1630937421551,-0.792756,0.360266,-0.462868
1630937421561,-0.795196,0.364353,-0.46463699999999997
1630937421570,-0.798673,0.36417,-0.46299
1630937421580,-0.801113,0.361791,-0.46555199999999997
1630937421589,-0.8020889999999999,0.35953399999999996,-0.46616199999999997
1630937421599,-0.805932,0.360266,-0.467748
1630937421609,-0.807396,0.360876,-0.470249
1630937421618,-0.809348,0.365268,-0.469578
1630937421628,-0.810446,0.368928,-0.468785
1630937421637,-0.810995,0.374357,-0.467809
1630937421647,-0.807396,0.376431,-0.463783
1630937421657,-0.807152,0.377956,-0.457378
1630937421666,-0.8052,0.377895,-0.453596
1630937421676,-0.804285,0.380152,-0.44895999999999997
1630937421685,-0.803675,0.38552,-0.444141
1630937421695,-0.8039189999999999,0.390949,-0.443592
1630937421705,-0.801906,0.395463,-0.442555
1630937421714,-0.802028,0.399245,-0.44090799999999997
1630937421724,-0.80215,0.406321,-0.43968799999999997
1630937421733,-0.802516,0.409615,-0.437309
1630937421743,-0.801601,0.410652,-0.434381
1630937421753,-0.799832,0.410591,-0.431697
1630937421762,-0.79605,0.407724,-0.426512
1630937421772,-0.791109,0.408395,-0.423767
1630937421781,-0.786107,0.407419,-0.419192
1630937421791,-0.784338,0.409432,-0.413702
1630937421801,-0.782081,0.411018,-0.410957
1630937421810,-0.7795799999999999,0.413397,-0.408822
1630937421820,-0.7768349999999999,0.416508,-0.40565
1630937421829,-0.778787,0.420473,-0.40077
1630937421839,-0.779702,0.425292,-0.400099
1630937421849,-0.7801899999999999,0.426207,-0.397598
1630937421858,-0.781837,0.430355,-0.398574
1630937421868,-0.781837,0.435906,-0.400526
1630937421877,-0.783179,0.441762,-0.398513
1630937421887,-0.7859849999999999,0.446581,-0.399123
1630937421897,-0.787937,0.448106,-0.399306
1630937421906,-0.788852,0.447191,-0.399611
1630937421916,-0.790316,0.45017999999999997,-0.398513
1630937421925,-0.790926,0.450851,-0.395402
1630937421935,-0.791536,0.45139999999999997,-0.393999
1630937421945,-0.793732,0.453474,-0.393023
1630937421954,-0.792207,0.457134,-0.394304
1630937421964,-0.790621,0.455487,-0.39009499999999997
1630937421973,-0.791902,0.45975699999999997,-0.38613
1630937421983,-0.792512,0.46372199999999997,-0.38734999999999997
1630937421993,-0.792268,0.46555199999999997,-0.383812
1630937422002,-0.7914749999999999,0.468846,-0.381189
1630937422012,-0.7911699999999999,0.471835,-0.379542
1630937422021,-0.789218,0.471652,-0.377529
1630937422031,-0.787266,0.468419,-0.37393
1630937422041,-0.789157,0.46921199999999996,-0.372039
1630937422050,-0.789767,0.47092,-0.372405
1630937422060,-0.7899499999999999,0.471896,-0.372283
1630937422069,-0.791048,0.470493,-0.37063599999999997
1630937422079,-0.791597,0.469578,-0.371124
1630937422089,-0.7917799999999999,0.471835,-0.368623
1630937422098,-0.791353,0.474641,-0.366732
1630937422108,-0.791536,0.476471,-0.36423099999999997
1630937422117,-0.789584,0.480375,-0.361791
1630937422127,-0.788913,0.483669,-0.358985
1630937422137,-0.787754,0.484218,-0.35685
1630937422146,-0.786107,0.484584,-0.3538
1630937422156,-0.783972,0.485499,-0.350323
1630937422165,-0.784826,0.48861,-0.348188
1630937422175,-0.783423,0.490745,-0.3477
1630937422185,-0.782691,0.49349,-0.346175
1630937422194,-0.780434,0.49654,-0.346175
1630937422204,-0.779824,0.498614,-0.345199
1630937422213,-0.779092,0.499346,-0.347334
1630937422223,-0.779397,0.49946799999999997,-0.346419
1630937422233,-0.781471,0.501725,-0.34599199999999997
1630937422242,-0.779519,0.500017,-0.348493
1630937422252,-0.781593,0.499834,-0.347151
1630937422261,-0.7820199999999999,0.501481,-0.347334
1630937422271,-0.782752,0.503433,-0.346663
1630937422281,-0.7820199999999999,0.505019,-0.345016
1630937422290,-0.7814099999999999,0.509167,-0.343735
1630937422300,-0.780373,0.50996,-0.34343
1630937422309,-0.7777499999999999,0.509533,-0.342576
1630937422319,-0.776347,0.510936,-0.343613
1630937422329,-0.7768349999999999,0.511546,-0.343735
1630937422338,-0.776957,0.5124,-0.348005
1630937422348,-0.7762249999999999,0.5139859999999999,-0.349774
1630937422357,-0.775249,0.5127659999999999,-0.351421
1630937422367,-0.773358,0.512522,-0.352946
1630937422377,-0.77287,0.512644,-0.351787
1630937422386,-0.770186,0.511424,-0.35221399999999997
1630937422396,-0.769637,0.5124,-0.350811
1630937422405,-0.768173,0.513254,-0.35343399999999997
1630937422415,-0.768173,0.5142909999999999,-0.35319
1630937422425,-0.76677,0.515328,-0.354532
1630937422434,-0.765794,0.516304,-0.35587399999999997
1630937422444,-0.764513,0.5185609999999999,-0.357765
1630937422453,-0.763964,0.517829,-0.356362
1630937422463,-0.762073,0.518073,-0.354715
1630937422473,-0.759938,0.5170359999999999,-0.353922
1630937422482,-0.760609,0.518195,-0.35404399999999997
1630937422492,-0.759633,0.516365,-0.353312
1630937422501,-0.758535,0.514962,-0.357338
1630937422511,-0.762195,0.515267,-0.360022
1630937422521,-0.763598,0.513254,-0.364292
1630937422530,-0.763842,0.507093,-0.365085
1630937422540,-0.764757,0.499712,-0.36545099999999997
1630937422549,-0.765123,0.495259,-0.366122
1630937422559,-0.765123,0.494649,-0.365207
1630937422569,-0.765794,0.498675,-0.364597
1630937422578,-0.766892,0.500017,-0.359656
1630937422588,-0.770491,0.502396,-0.354593
1630937422597,-0.776591,0.503738,-0.354532
1630937422607,-0.782142,0.507764,-0.357948
1630937422617,-0.785802,0.50935,-0.362706
1630937422626,-0.786351,0.508618,-0.365695
1630937422636,-0.786656,0.505202,-0.365024
1630937422645,-0.786473,0.499712,-0.363194
1630937422655,-0.785619,0.496479,-0.361974
1630937422665,-0.786778,0.496235,-0.35861899999999997
1630937422674,-0.786717,0.49641799999999997,-0.357887
1630937422684,-0.786412,0.498309,-0.355752
1630937422693,-0.786534,0.499102,-0.352885
1630937422703,-0.7859849999999999,0.499529,-0.352336
1630937422713,-0.786229,0.500749,-0.347822
1630937422722,-0.786534,0.499712,-0.34568699999999997
1630937422732,-0.787388,0.500139,-0.344833
1630937422741,-0.787449,0.499529,-0.346114
1630937422751,-0.787571,0.496662,-0.345199
1630937422761,-0.787693,0.49519799999999997,-0.34599199999999997
1630937422770,-0.789096,0.49288,-0.348066
1630937422780,-0.787693,0.490867,-0.349286
1630937422789,-0.789218,0.48684099999999997,-0.34953
1630937422799,-0.789706,0.483974,-0.349103
1630937422809,-0.790682,0.48257099999999997,-0.349042
1630937422818,-0.788303,0.482388,-0.353556
1630937422828,-0.789584,0.479033,-0.350994
1630937422837,-0.790621,0.47970399999999996,-0.350079
1630937422847,-0.791414,0.478118,-0.35014
1630937422857,-0.791231,0.47885,-0.350872
1630937422866,-0.792817,0.47763,-0.35160399999999997
1630937422876,-0.79483,0.477386,-0.351848
1630937422885,-0.796538,0.475983,-0.351177
1630937422895,-0.79666,0.476105,-0.351299
1630937422905,-0.79727,0.476593,-0.353068
1630937422914,-0.79727,0.47458,-0.35465399999999997
1630937422924,-0.797575,0.474397,-0.35587399999999997
1630937422933,-0.795318,0.47238399999999997,-0.357216
1630937422943,-0.793732,0.46860199999999996,-0.356972
1630937422953,-0.794952,0.467748,-0.35746
1630937422962,-0.794586,0.469334,-0.359717
1630937422972,-0.793549,0.47116399999999997,-0.361425
1630937422981,-0.793183,0.473116,-0.365024
1630937422991,-0.7920849999999999,0.477081,-0.367952
1630937423001,-0.790499,0.478545,-0.37149
1630937423010,-0.787449,0.47909399999999996,-0.373625
1630937423020,-0.785558,0.479521,-0.374967
1630937423029,-0.784521,0.4819,-0.37637
1630937423039,-0.784704,0.48470599999999997,-0.378017
1630937423049,-0.781654,0.485682,-0.382531
1630937423058,-0.778909,0.484828,-0.386313
1630937423068,-0.777384,0.483852,-0.389424
1630937423077,-0.774822,0.481168,-0.391071
1630937423087,-0.772931,0.47665399999999997,-0.391193
1630937423097,-0.772199,0.475556,-0.392657
1630937423106,-0.77165,0.47421399999999997,-0.395524
1630937423116,-0.771345,0.473116,-0.397476
1630937423125,-0.769942,0.470493,-0.399733
1630937423135,-0.77104,0.46909,-0.400465
1630937423145,-0.772199,0.469456,-0.400221
1630937423154,-0.773236,0.46890699999999996,-0.399855
1630937423164,-0.773602,0.468541,-0.39955
1630937423173,-0.773053,0.469029,-0.398391
1630937423183,-0.774944,0.469334,-0.398513
1630937423193,-0.777628,0.470371,-0.397354
1630937423202,-0.777262,0.470981,-0.396988
1630937423212,-0.777628,0.46890699999999996,-0.396378
1630937423221,-0.777872,0.469334,-0.394853
1630937423231,-0.778116,0.469883,-0.393694
1630937423241,-0.777872,0.46909,-0.395036
1630937423250,-0.779336,0.467809,-0.39405999999999997
1630937423260,-0.7792749999999999,0.467016,-0.394182
1630937423269,-0.780678,0.467748,-0.394731
1630937423279,-0.780251,0.46829699999999996,-0.394487
1630937423289,-0.7789699999999999,0.467443,-0.393694
1630937423298,-0.7795799999999999,0.46787,-0.390888
1630937423308,-0.778848,0.46555199999999997,-0.392169
1630937423317,-0.780129,0.464088,-0.39039999999999997
1630937423327,-0.781166,0.46250199999999997,-0.390827
1630937423337,-0.782508,0.462624,-0.392047
1630937423346,-0.782752,0.46494199999999997,-0.390888
1630937423356,-0.783301,0.465979,-0.389729
1630937423365,-0.7853749999999999,0.465674,-0.386801
1630937423375,-0.7850699999999999,0.46860199999999996,-0.386679
1630937423385,-0.783728,0.468724,-0.385581
1630937423394,-0.783972,0.46646699999999996,-0.383507
1630937423404,-0.783667,0.467138,-0.383324
1630937423413,-0.784582,0.464271,-0.38186
1630937423423,-0.781837,0.465064,-0.381372
1630937423433,-0.781349,0.463966,-0.380884
1630937423442,-0.782447,0.466955,-0.38082299999999997
1630937423452,-0.783484,0.469822,-0.38356799999999996
1630937423461,-0.784643,0.473177,-0.384666
1630937423471,-0.785497,0.47397,-0.387045
1630937423481,-0.784643,0.47299399999999997,-0.388143
1630937423490,-0.783789,0.46890699999999996,-0.38613
1630937423500,-0.783423,0.465796,-0.384727
1630937423509,-0.783179,0.464576,-0.38552
1630937423519,-0.781654,0.4636,-0.387167
1630937423529,-0.7777499999999999,0.462258,-0.386801
1630937423538,-0.775371,0.460184,-0.386557
1630937423548,-0.776347,0.45975699999999997,-0.384666
1630937423557,-0.777384,0.460001,-0.384788
1630937423567,-0.7780549999999999,0.46055,-0.390156
1630937423577,-0.7798849999999999,0.461953,-0.39253499999999997
1630937423586,-0.775249,0.467565,-0.391559
1630937423596,-0.7756149999999999,0.470188,-0.383751
1630937423605,-0.778604,0.472018,-0.380091
1630937423615,-0.781837,0.469334,-0.38265299999999997
1630937423625,-0.785741,0.467016,-0.388814
1630937423634,-0.7890349999999999,0.46890699999999996,-0.39436499999999997
1630937423644,-0.793488,0.464759,-0.400221
1630937423653,-0.794403,0.46128199999999997,-0.40699199999999996
1630937423663,-0.799588,0.454877,-0.41473899999999997
1630937423673,-0.802333,0.45884199999999997,-0.422913
1630937423682,-0.802028,0.463661,-0.426207
1630937423692,-0.806847,0.461404,-0.423279
1630937423701,-0.8072739999999999,0.462136,-0.41846
1630937423711,-0.813801,0.457744,-0.418521
1630937423721,-0.81801,0.452498,-0.43072099999999997
1630937423730,-0.817766,0.451156,-0.435662
1630937423740,-0.813557,0.448716,-0.44334799999999996
1630937423749,-0.8113,0.449692,-0.435601
1630937423759,-0.808067,0.445422,-0.429745
1630937423769,-0.80398,0.442799,-0.420961
1630937423778,-0.79544,0.440481,-0.41297
1630937423788,-0.786229,0.430599,-0.402173
1630937423797,-0.778238,0.422059,-0.392901
1630937423807,-0.7783599999999999,0.409188,-0.38308
1630937423817,-0.7783599999999999,0.408334,-0.38125
1630937423826,-0.7746999999999999,0.41656899999999997,-0.387716
1630937423836,-0.776408,0.422242,-0.388692
1630937423845,-0.774029,0.432673,-0.38613
1630937423855,-0.768112,0.45231499999999997,-0.378444
1630937423865,-0.771223,0.465003,-0.368562
1630937423874,-0.779153,0.468358,-0.360693
1630937423884,-0.781959,0.468053,-0.364048
1630937423893,-0.785253,0.468419,-0.36112
1630937423903,-0.785619,0.466711,-0.355325
1630937423913,-0.781044,0.479216,-0.344223
1630937423922,-0.775127,0.491355,-0.324886
1630937423932,-0.774944,0.492453,-0.309575
1630937423941,-0.776347,0.49227,-0.307745
1630937423951,-0.778604,0.486475,-0.316285
1630937423961,-0.783423,0.481168,-0.32757
1630937423970,-0.788303,0.475556,-0.34172199999999997
1630937423980,-0.793305,0.471408,-0.3538
1630937423989,-0.797392,0.470615,-0.365268
1630937423999,-0.800442,0.467626,-0.37563799999999997
1630937424009,-0.8036139999999999,0.46433199999999997,-0.379176
1630937424018,-0.808433,0.459635,-0.382226
1630937424028,-0.810446,0.455487,-0.38552
1630937424037,-0.810995,0.456768,-0.38795999999999997
1630937424047,-0.812581,0.457622,-0.387716
1630937424057,-0.8152039999999999,0.453596,-0.39009499999999997
1630937424066,-0.8145939999999999,0.454084,-0.391376
1630937424076,-0.812337,0.45017999999999997,-0.393816
1630937424085,-0.809226,0.444019,-0.397659
1630937424095,-0.809165,0.437065,-0.402234
1630937424105,-0.809165,0.42639,-0.408883
1630937424114,-0.806908,0.42212,-0.406748
1630937424124,-0.80581,0.418765,-0.409859
1630937424133,-0.805017,0.415166,-0.41290899999999997
1630937424143,-0.8057489999999999,0.412177,-0.41260399999999997
1630937424153,-0.806115,0.409859,-0.416142
1630937424162,-0.804956,0.409554,-0.419253
1630937424172,-0.805688,0.41114,-0.422669
1630937424181,-0.80581,0.412055,-0.426268
1630937424191,-0.806115,0.410469,-0.428464
1630937424201,-0.806237,0.406504,-0.43005
1630937424210,-0.805078,0.404613,-0.432124
1630937424220,-0.8054439999999999,0.404064,-0.432185
1630937424229,-0.8036139999999999,0.395036,-0.434747
1630937424239,-0.8042239999999999,0.392657,-0.4331
1630937424249,-0.8045289999999999,0.390522,-0.431392
1630937424258,-0.801418,0.39131499999999997,-0.431819
1630937424268,-0.800198,0.391864,-0.429867
1630937424277,-0.799161,0.39070499999999997,-0.431697
1630937424287,-0.798978,0.389302,-0.432307
1630937424297,-0.79849,0.389424,-0.435296
1630937424306,-0.798307,0.384788,-0.44060299999999997
1630937424316,-0.799161,0.381616,-0.438956
1630937424325,-0.8036139999999999,0.383751,-0.440176
1630937424335,-0.803187,0.38143299999999997,-0.43981
1630937424345,-0.8005639999999999,0.384788,-0.439017
1630937424354,-0.799283,0.382592,-0.435784
1630937424364,-0.798795,0.38173799999999997,-0.432124
1630937424373,-0.796843,0.379359,-0.432856
1630937424383,-0.794708,0.374906,-0.432002
1630937424393,-0.793854,0.371673,-0.434259
1630937424402,-0.791597,0.367525,-0.43676
1630937424412,-0.791658,0.36539,-0.440359
1630937424421,-0.791597,0.36478,-0.44164
1630937424431,-0.792634,0.36423099999999997,-0.442067
1630937424441,-0.79422,0.363194,-0.442677
1630937424450,-0.794342,0.361364,-0.44591
1630937424460,-0.798063,0.363987,-0.444202
1630937424469,-0.799832,0.363255,-0.445361
1630937424479,-0.8002589999999999,0.360815,-0.44865499999999997
1630937424489,-0.803248,0.35831399999999997,-0.449753
1630937424498,-0.804468,0.361913,-0.450729
1630937424508,-0.8063589999999999,0.362645,-0.454816
1630937424517,-0.807396,0.361486,-0.46067199999999997
1630937424527,-0.809836,0.35868,-0.45994
1630937424537,-0.809775,0.360144,-0.460611
1630937424546,-0.80764,0.35563,-0.457561
1630937424556,-0.809043,0.358436,-0.455487
1630937424565,-0.809287,0.363743,-0.455243
1630937424575,-0.81008,0.367525,-0.45566999999999996
1630937424585,-0.810446,0.368257,-0.457317
1630937424594,-0.811666,0.36850099999999997,-0.459879
1630937424604,-0.814655,0.369294,-0.458659
1630937424613,-0.814838,0.37033099999999997,-0.4575
1630937424623,-0.813191,0.370514,-0.457927
1630937424633,-0.81191,0.37094099999999997,-0.457561
1630937424642,-0.812398,0.373015,-0.454938
1630937424652,-0.811422,0.373137,-0.453718
1630937424661,-0.8100189999999999,0.374113,-0.45383999999999997
1630937424671,-0.808921,0.374479,-0.452254
1630937424681,-0.809653,0.374357,-0.44865499999999997
1630937424690,-0.809958,0.377102,-0.448899
1630937424700,-0.808921,0.37685799999999997,-0.450302
1630937424709,-0.809226,0.378139,-0.451766
1630937424719,-0.810446,0.377102,-0.452498
1630937424729,-0.810446,0.375699,-0.455182
1630937424738,-0.808067,0.372283,-0.46219699999999997
1630937424748,-0.8057489999999999,0.37088,-0.46604
1630937424757,-0.804407,0.366244,-0.47116399999999997
1630937424767,-0.802943,0.360876,-0.472445
1630937424777,-0.799832,0.358863,-0.47360399999999997
1630937424786,-0.796599,0.360693,-0.47482399999999997
1630937424796,-0.793915,0.363194,-0.475251
1630937424805,-0.791231,0.367708,-0.47299399999999997
1630937424815,-0.791231,0.37002599999999997,-0.472506
1630937424825,-0.7887299999999999,0.364719,-0.472811
1630937424834,-0.786534,0.36539,-0.472872
1630937424844,-0.7814099999999999,0.365695,-0.470493
1630937424853,-0.783179,0.372954,-0.469639
1630937424863,-0.782813,0.371734,-0.470371
1630937424873,-0.781532,0.371124,-0.471652
1630937424882,-0.7829349999999999,0.372954,-0.472262
1630937424892,-0.782447,0.375272,-0.471957
1630937424901,-0.781166,0.374906,-0.473177
1630937424911,-0.779458,0.374235,-0.47299399999999997
1630937424921,-0.779153,0.376614,-0.47116399999999997
1630937424930,-0.779641,0.37929799999999997,-0.468358
1630937424940,-0.7780549999999999,0.38173799999999997,-0.466528
1630937424949,-0.7771399999999999,0.38082299999999997,-0.464881
1630937424959,-0.778177,0.37960299999999997,-0.46219699999999997
1630937424969,-0.7783599999999999,0.380091,-0.46128199999999997
1630937424978,-0.779214,0.38204299999999997,-0.463234
1630937424988,-0.779946,0.380701,-0.465918
1630937424997,-0.780007,0.379115,-0.46646699999999996
1630937425007,-0.781532,0.378566,-0.468114
1630937425017,-0.781776,0.377529,-0.470066
1630937425026,-0.782874,0.376492,-0.470676
1630937425036,-0.782142,0.377834,-0.471835
1630937425045,-0.782508,0.378261,-0.47177399999999997
1630937425055,-0.782752,0.37698,-0.47177399999999997
1630937425065,-0.7826299999999999,0.372222,-0.474275
1630937425074,-0.784704,0.369294,-0.4758
1630937425084,-0.785253,0.365695,-0.479582
1630937425093,-0.787571,0.361303,-0.48312
1630937425103,-0.788059,0.359473,-0.488549
1630937425113,-0.7865949999999999,0.360144,-0.491782
1630937425122,-0.784582,0.364048,-0.487573
1630937425132,-0.789706,0.364048,-0.482266
1630937425141,-0.790987,0.360449,-0.486658
1630937425151,-0.793183,0.35648399999999997,-0.491172
1630937425161,-0.796721,0.355996,-0.494832
1630937425170,-0.797758,0.356301,-0.497089
1630937425180,-0.798307,0.359717,-0.496845
1630937425189,-0.797758,0.359473,-0.499224
1630937425199,-0.80032,0.35746,-0.501054
1630937425209,-0.800015,0.359595,-0.502518
1630937425218,-0.797087,0.358802,-0.504897
1630937425228,-0.795501,0.357277,-0.502274
1630937425237,-0.791414,0.35648399999999997,-0.500017
1630937425247,-0.789401,0.355386,-0.498004
1630937425257,-0.785863,0.354105,-0.495869
1630937425266,-0.785253,0.355081,-0.49019599999999997
1630937425276,-0.7832399999999999,0.356301,-0.489708
1630937425285,-0.781349,0.358131,-0.486719
1630937425295,-0.779946,0.358253,-0.485682
1630937425305,-0.7780549999999999,0.35624,-0.482266
1630937425314,-0.7765299999999999,0.355813,-0.478728
1630937425324,-0.7746999999999999,0.357887,-0.477081
1630937425333,-0.773358,0.360754,-0.474153
1630937425343,-0.774944,0.365207,-0.469639
1630937425353,-0.777872,0.368684,-0.46555199999999997
1630937425362,-0.777567,0.369782,-0.462624
1630937425372,-0.778421,0.377102,-0.457378
1630937425381,-0.780312,0.38295799999999997,-0.452986
1630937425391,-0.780922,0.38552,-0.454816
1630937425401,-0.784033,0.385398,-0.455182
1630937425410,-0.785863,0.381555,-0.45914699999999997
1630937425420,-0.789462,0.379115,-0.463539
1630937425429,-0.790743,0.375516,-0.47275
1630937425439,-0.793183,0.371978,-0.47702
1630937425449,-0.799222,0.366,-0.483608
1630937425458,-0.8002589999999999,0.363438,-0.493978
1630937425468,-0.802333,0.360266,-0.498614
1630937425477,-0.8026989999999999,0.357582,-0.499102
1630937425487,-0.8017839999999999,0.354471,-0.49977299999999997
1630937425497,-0.7999539999999999,0.354288,-0.49916299999999997
1630937425506,-0.798185,0.353312,-0.496296
1630937425516,-0.796233,0.351848,-0.493917
1630937425525,-0.793122,0.352275,-0.489159
1630937425535,-0.791536,0.354105,-0.486719
1630937425545,-0.790011,0.35465399999999997,-0.48470599999999997
1630937425554,-0.789279,0.354288,-0.47939899999999996
1630937425564,-0.787998,0.35526399999999997,-0.478057
1630937425573,-0.788242,0.354715,-0.47641
1630937425583,-0.788181,0.35404399999999997,-0.474336
1630937425593,-0.786473,0.353678,-0.473543
1630937425602,-0.786046,0.353495,-0.470981
1630937425612,-0.786961,0.354471,-0.468419
1630937425621,-0.784826,0.356667,-0.46463699999999997
1630937425631,-0.785436,0.36051,-0.46177
1630937425641,-0.786351,0.365939,-0.459879
1630937425650,-0.787083,0.366,-0.457256
1630937425660,-0.7899499999999999,0.368257,-0.456768
1630937425669,-0.7917799999999999,0.369782,-0.454694
1630937425679,-0.792817,0.368623,-0.455731
1630937425689,-0.795379,0.369294,-0.45536499999999996
1630937425698,-0.793915,0.368013,-0.455914
1630937425708,-0.796172,0.368257,-0.456097
1630937425717,-0.79727,0.36880599999999997,-0.455914
1630937425727,-0.796965,0.370514,-0.457988
1630937425737,-0.797087,0.369477,-0.459025
1630937425746,-0.79727,0.370392,-0.458171
1630937425756,-0.7993439999999999,0.37124599999999996,-0.461221
1630937425765,-0.801296,0.37149,-0.463295
1630937425775,-0.801235,0.370087,-0.466406
1630937425785,-0.800442,0.37027,-0.466589
1630937425794,-0.800686,0.368928,-0.46646699999999996
1630937425804,-0.8020889999999999,0.36722,-0.468785
1630937425813,-0.802821,0.364719,-0.474336
1630937425823,-0.802577,0.362157,-0.479033
1630937425833,-0.8026989999999999,0.358558,-0.48257099999999997
1630937425842,-0.801845,0.356118,-0.485438
1630937425852,-0.800198,0.35563,-0.487268
1630937425861,-0.799527,0.35678899999999997,-0.487573
1630937425871,-0.797514,0.355386,-0.488122
1630937425881,-0.796538,0.354471,-0.485804
1630937425890,-0.795135,0.352458,-0.484828
1630937425900,-0.793915,0.352702,-0.48348599999999997
1630937425909,-0.793549,0.352702,-0.484157
1630937425919,-0.793122,0.353007,-0.484157
1630937425929,-0.792817,0.353678,-0.482205
1630937425938,-0.794037,0.3538,-0.480863
1630937425948,-0.794403,0.354227,-0.479338
1630937425957,-0.792573,0.354593,-0.47909399999999996
1630937425967,-0.7905599999999999,0.355325,-0.475861
1630937425977,-0.791902,0.354715,-0.472506
1630937425986,-0.792878,0.358497,-0.471225
1630937425996,-0.791414,0.356972,-0.467565
1630937426005,-0.792207,0.35892399999999997,-0.462258
1630937426015,-0.791841,0.362706,-0.458598
1630937426025,-0.792878,0.366122,-0.457744
1630937426034,-0.79361,0.370514,-0.457744
1630937426044,-0.795562,0.373076,-0.459513
1630937426053,-0.797514,0.37576,-0.45994
1630937426063,-0.799405,0.37637,-0.461831
1630937426073,-0.798856,0.375516,-0.461343
1630937426082,-0.796599,0.3721,-0.46189199999999997
1630937426092,-0.795684,0.369904,-0.461404
1630937426101,-0.793671,0.367159,-0.459635
1630937426111,-0.7920849999999999,0.367708,-0.458354
1630937426121,-0.7905599999999999,0.368623,-0.457256
1630937426130,-0.790987,0.369843,-0.4575
1630937426140,-0.790804,0.369172,-0.460794
1630937426149,-0.790743,0.36819599999999997,-0.465064
1630937426159,-0.791048,0.367342,-0.468785
1630937426169,-0.792634,0.366,-0.47329899999999997
1630937426178,-0.792878,0.364719,-0.477447
1630937426188,-0.793732,0.363499,-0.480375
1630937426197,-0.791902,0.36356,-0.481961
1630937426207,-0.792146,0.361547,-0.481473
1630937426217,-0.7920849999999999,0.361181,-0.482632
1630937426226,-0.792146,0.36234,-0.48257099999999997
1630937426236,-0.792756,0.362889,-0.484035
1630937426245,-0.791597,0.36234,-0.48318099999999997
1630937426255,-0.791719,0.361974,-0.483547
1630937426265,-0.792146,0.363682,-0.484889
1630937426274,-0.791902,0.364719,-0.486414
1630937426284,-0.790621,0.36362099999999997,-0.48556
1630937426293,-0.790133,0.362157,-0.481839
1630937426303,-0.789096,0.36417,-0.482449
1630937426313,-0.790194,0.366122,-0.480985
1630937426322,-0.7911699999999999,0.370087,-0.480375
1630937426332,-0.791292,0.37393,-0.478972
1630937426341,-0.791353,0.376614,-0.476837
1630937426351,-0.790987,0.37533299999999997,-0.474641
1630937426361,-0.7896449999999999,0.374418,-0.475007
1630937426370,-0.790011,0.376675,-0.47573899999999997
1630937426380,-0.788608,0.377041,-0.47482399999999997
1630937426389,-0.787632,0.38003,-0.473116
1630937426399,-0.787144,0.38173799999999997,-0.470371
1630937426409,-0.787449,0.384056,-0.468175
1630937426418,-0.7859849999999999,0.384422,-0.467138
1630937426428,-0.784643,0.38491,-0.465308
1630937426437,-0.783484,0.387228,-0.462746
1630937426447,-0.781532,0.389851,-0.460428
1630937426457,-0.781288,0.39039999999999997,-0.457134
1630937426466,-0.779336,0.39100999999999997,-0.455304
1630937426476,-0.7792749999999999,0.39192499999999997,-0.45383999999999997
1630937426485,-0.779214,0.391803,-0.453169
1630937426495,-0.7795799999999999,0.394487,-0.453718
1630937426505,-0.778604,0.39405999999999997,-0.456463
1630937426514,-0.777384,0.39344999999999997,-0.457988
1630937426524,-0.778238,0.391803,-0.457866
1630937426533,-0.778604,0.392291,-0.458049
1630937426543,-0.779702,0.392718,-0.45975699999999997
1630937426553,-0.780678,0.393511,-0.46116
1630937426562,-0.781166,0.393511,-0.46250199999999997
1630937426572,-0.780312,0.393084,-0.46238
1630937426581,-0.780617,0.392901,-0.46238
1630937426591,-0.781959,0.390278,-0.464271
1630937426601,-0.7820199999999999,0.38917999999999997,-0.46463699999999997
1630937426610,-0.783972,0.388387,-0.465613
1630937426620,-0.784277,0.387228,-0.467626
1630937426629,-0.7844599999999999,0.387838,-0.469883
1630937426639,-0.7856799999999999,0.386435,-0.469883
1630937426649,-0.786107,0.386435,-0.470371
1630937426658,-0.786412,0.38552,-0.47031
1630937426668,-0.7862899999999999,0.387045,-0.470371
1630937426677,-0.786168,0.388143,-0.469151
1630937426687,-0.786717,0.38795999999999997,-0.46726
1630937426697,-0.786229,0.386252,-0.467138
1630937426706,-0.787876,0.386923,-0.46707699999999996
1630937426716,-0.788608,0.387228,-0.467748
1630937426725,-0.788608,0.385764,-0.46665
1630937426735,-0.789706,0.386252,-0.46616199999999997
1630937426745,-0.790194,0.388692,-0.465064
1630937426754,-0.7920849999999999,0.391132,-0.463966
1630937426764,-0.790682,0.395158,-0.46219699999999997
1630937426773,-0.790133,0.39283999999999997,-0.458964
1630937426783,-0.7902549999999999,0.393572,-0.455792
1630937426793,-0.7902549999999999,0.392779,-0.452742
1630937426802,-0.790438,0.396927,-0.449082
1630937426812,-0.7899499999999999,0.39588999999999996,-0.448106
1630937426821,-0.790316,0.393816,-0.448228
1630937426831,-0.790743,0.395341,-0.448899
1630937426841,-0.792512,0.398208,-0.45170499999999997
1630937426850,-0.795318,0.40199,-0.45536499999999996
1630937426860,-0.794952,0.40333199999999997,-0.45872
1630937426869,-0.794891,0.40199,-0.457195
1630937426879,-0.793854,0.397842,-0.456158
1630937426889,-0.792146,0.385825,-0.45627999999999996
1630937426898,-0.788669,0.373076,-0.46055
1630937426908,-0.7844599999999999,0.361974,-0.469273
1630937426917,-0.781898,0.357338,-0.473543
1630937426927,-0.779641,0.371368,-0.47153
1630937426937,-0.775371,0.391437,-0.464698
1630937426946,-0.774212,0.40668699999999997,-0.452559
1630937426956,-0.777506,0.411262,-0.443531
1630937426965,-0.777384,0.408273,-0.444324
1630937426975,-0.773602,0.403088,-0.440969
1630937426985,-0.770247,0.408578,-0.427122
1630937426994,-0.77348,0.413946,-0.41260399999999997
1630937427004,-0.77348,0.412848,-0.4087
1630937427013,-0.772443,0.415898,-0.409798
1630937427023,-0.772931,0.423767,-0.411628
1630937427033,-0.780068,0.425475,-0.415166
1630937427042,-0.7835449999999999,0.421571,-0.427244
1630937427052,-0.783972,0.417728,-0.440481
1630937427061,-0.787327,0.410896,-0.453169
1630937427071,-0.792939,0.406138,-0.46067199999999997
1630937427081,-0.794464,0.396744,-0.473665
1630937427090,-0.794647,0.386496,-0.48470599999999997
1630937427100,-0.795867,0.381006,-0.491599
1630937427109,-0.796294,0.375028,-0.49593
1630937427119,-0.795318,0.374296,-0.493002
1630937427129,-0.795196,0.374296,-0.49202599999999996
1630937427138,-0.796721,0.37094099999999997,-0.493734
1630937427148,-0.796233,0.36941599999999997,-0.495869
1630937427157,-0.793549,0.36362099999999997,-0.498614
1630937427167,-0.793244,0.361364,-0.496906
1630937427177,-0.792329,0.358375,-0.496662
1630937427186,-0.792146,0.35373899999999997,-0.498736
1630937427196,-0.789401,0.346358,-0.500871
1630937427205,-0.788974,0.337086,-0.5002
1630937427215,-0.786473,0.330437,-0.500139
1630937427225,-0.785924,0.330498,-0.497089
1630937427234,-0.786839,0.33458499999999997,-0.492575
1630937427244,-0.7856799999999999,0.342454,-0.48928099999999997
1630937427253,-0.783667,0.352275,-0.482449
1630937427263,-0.783667,0.35922899999999997,-0.476837
1630937427273,-0.7835449999999999,0.36453599999999997,-0.469883
1630937427282,-0.785009,0.36697599999999997,-0.46341699999999997
1630937427292,-0.787083,0.369904,-0.457988
1630937427301,-0.789279,0.372832,-0.456158
1630937427311,-0.790743,0.379115,-0.451522
1630937427321,-0.794891,0.385398,-0.445361
1630937427330,-0.797575,0.384788,-0.44426299999999996
1630937427340,-0.799161,0.385642,-0.44426299999999996
1630937427349,-0.8002589999999999,0.386374,-0.442555
1630937427359,-0.80093,0.386313,-0.438529
1630937427369,-0.798856,0.386069,-0.437004
1630937427378,-0.8023939999999999,0.385825,-0.43785799999999997
1630937427388,-0.806237,0.384666,-0.443836
1630937427397,-0.808128,0.382287,-0.452498
1630937427407,-0.808128,0.377041,-0.460245
1630937427417,-0.807945,0.373564,-0.464149
1630937427426,-0.806298,0.370514,-0.465613
1630937427436,-0.806603,0.36783,-0.468053
1630937427445,-0.805078,0.36728099999999997,-0.470249
1630937427455,-0.8051389999999999,0.36636599999999997,-0.468846
1630937427465,-0.804163,0.36661,-0.468419
1630937427474,-0.8023939999999999,0.366732,-0.464454
1630937427484,-0.7990389999999999,0.364414,-0.462624
1630937427493,-0.797453,0.363743,-0.46250199999999997
1630937427503,-0.797514,0.362828,-0.463295
1630937427513,-0.798368,0.362645,-0.463539
1630937427522,-0.799588,0.362706,-0.465613
1630937427532,-0.7993439999999999,0.362584,-0.46543
1630937427541,-0.799222,0.361913,-0.463295
1630937427551,-0.7999539999999999,0.362767,-0.460855
1630937427561,-0.79971,0.367098,-0.459574
1630937427570,-0.797026,0.371307,-0.458537
1630937427580,-0.7999539999999999,0.368562,-0.453718
1630937427589,-0.8005639999999999,0.373564,-0.451583
1630937427599,-0.800015,0.374296,-0.448289
1630937427609,-0.799222,0.37393,-0.443714
1630937427618,-0.799588,0.375089,-0.440786
1630937427628,-0.8023939999999999,0.377895,-0.43694299999999997
1630937427637,-0.80398,0.383995,-0.437675
1630937427647,-0.807518,0.389119,-0.439627
1630937427657,-0.809653,0.394243,-0.442494
1630937427666,-0.810507,0.396195,-0.444324
1630937427676,-0.8087989999999999,0.39466999999999997,-0.44395799999999996
1630937427685,-0.806603,0.39131499999999997,-0.445788
1630937427695,-0.806176,0.385764,-0.44365299999999996
1630937427705,-0.810568,0.386069,-0.445056
1630937427714,-0.809775,0.38795999999999997,-0.448472
1630937427724,-0.80764,0.38765499999999997,-0.450363
1630937427733,-0.808067,0.388509,-0.447191
1630937427743,-0.806298,0.388021,-0.44804499999999997
1630937427753,-0.803736,0.384605,-0.448472
1630937427762,-0.805932,0.382592,-0.45109499999999997
1630937427772,-0.806786,0.380884,-0.454572
1630937427781,-0.805505,0.3782,-0.458537
1630937427791,-0.802516,0.374235,-0.45914699999999997
1630937427801,-0.800198,0.372222,-0.459269
1630937427810,-0.796904,0.36911099999999997,-0.457561
1630937427820,-0.795806,0.36697599999999997,-0.455731
1630937427829,-0.793549,0.365329,-0.45627999999999996
1630937427839,-0.790377,0.36295,-0.457378
1630937427849,-0.788852,0.355996,-0.455853
1630937427858,-0.7890349999999999,0.353678,-0.456768
1630937427868,-0.788852,0.352031,-0.460611
1630937427877,-0.788852,0.350262,-0.46311199999999997
1630937427887,-0.787754,0.348188,-0.46543
1630937427897,-0.785924,0.343186,-0.465491
1630937427906,-0.7850699999999999,0.342149,-0.463051
1630937427916,-0.7841549999999999,0.34202699999999997,-0.461221
1630937427925,-0.783667,0.340624,-0.45945199999999997
1630937427935,-0.786046,0.34050199999999997,-0.460611
1630937427945,-0.789889,0.34221,-0.462136
1630937427954,-0.791963,0.344406,-0.462624
1630937427964,-0.793732,0.345565,-0.464881
1630937427973,-0.794891,0.345321,-0.465918
1630937427983,-0.796172,0.344955,-0.46707699999999996
1630937427993,-0.800137,0.347395,-0.469639
1630937428002,-0.801601,0.348859,-0.470005
1630937428012,-0.802577,0.349164,-0.47336
1630937428021,-0.8036139999999999,0.350323,-0.476776
1630937428031,-0.8042239999999999,0.353861,-0.475556
1630937428041,-0.804895,0.356301,-0.47482399999999997
1630937428050,-0.804895,0.355996,-0.472201
1630937428060,-0.8057489999999999,0.355203,-0.47360399999999997
1630937428069,-0.803553,0.35563,-0.476288
1630937428079,-0.801357,0.35648399999999997,-0.477386
1630937428089,-0.801418,0.357338,-0.48122899999999996
1630937428098,-0.803187,0.359595,-0.486353
1630937428108,-0.805688,0.359107,-0.490684
1630937428117,-0.805322,0.361303,-0.492697
1630937428127,-0.802882,0.36417,-0.48989099999999997
1630937428137,-0.805017,0.367403,-0.485194
1630937428146,-0.807152,0.374601,-0.484828
1630937428156,-0.8036139999999999,0.365939,-0.484828
1630937428165,-0.795623,0.361242,-0.48958599999999997
1630937428175,-0.787937,0.359961,-0.49324599999999996
1630937428185,-0.787144,0.34629699999999997,-0.503372
1630937428194,-0.790316,0.345565,-0.511302
1630937428204,-0.7905599999999999,0.351177,-0.514169
1630937428213,-0.788486,0.357216,-0.516304
1630937428223,-0.785741,0.35648399999999997,-0.51911
1630937428233,-0.781166,0.35587399999999997,-0.522892
1630937428242,-0.774761,0.355996,-0.52338
1630937428252,-0.773663,0.35868,-0.518805
1630937428261,-0.774883,0.35922899999999997,-0.518439
1630937428271,-0.771894,0.355996,-0.5197809999999999
1630937428281,-0.76799,0.362584,-0.5194759999999999
1630937428290,-0.768417,0.373259,-0.515389
1630937428300,-0.765123,0.381982,-0.510997
1630937428309,-0.766648,0.389363,-0.506178
1630937428319,-0.763415,0.392352,-0.500383
1630937428329,-0.7589009999999999,0.395158,-0.49044
1630937428338,-0.758413,0.393938,-0.478972
1630937428348,-0.756888,0.396927,-0.467016
1630937428357,-0.75518,0.406931,-0.457195
1630937428367,-0.75823,0.423584,-0.447008
1630937428377,-0.757132,0.438651,-0.44164
1630937428386,-0.753533,0.45017999999999997,-0.435174
1630937428396,-0.757864,0.452986,-0.425048
1630937428405,-0.759877,0.45688999999999996,-0.416935
1630937428415,-0.758779,0.457134,-0.409493
1630937428425,-0.759694,0.463661,-0.410408
1630937428434,-0.7653059999999999,0.481778,-0.408334
1630937428444,-0.762927,0.485438,-0.401075
1630937428453,-0.7610359999999999,0.481717,-0.39375499999999997
1630937428463,-0.756644,0.481046,-0.38887499999999997
1630937428473,-0.758413,0.481107,-0.38265299999999997
1630937428482,-0.760853,0.48556,-0.379176
1630937428492,-0.762317,0.487634,-0.378627
1630937428501,-0.761158,0.48653599999999997,-0.380396
1630937428511,-0.759389,0.4819,-0.379969
1630937428521,-0.7598159999999999,0.480192,-0.37777299999999997
1630937428530,-0.760182,0.472445,-0.382104
1630937428540,-0.763842,0.468785,-0.389302
1630937428549,-0.7656109999999999,0.465918,-0.395219
1630937428559,-0.765428,0.459208,-0.405528
1630937428569,-0.769393,0.448228,-0.409676
1630937428578,-0.769393,0.436089,-0.415105
1630937428588,-0.765062,0.428708,-0.422486
1630937428597,-0.767319,0.416325,-0.422852
1630937428607,-0.769515,0.408334,-0.428708
1630937428617,-0.769332,0.40138,-0.437004
1630937428626,-0.769576,0.390644,-0.43968799999999997
1630937428636,-0.77165,0.38021299999999997,-0.449021
1630937428645,-0.772138,0.378322,-0.45414499999999997
1630937428655,-0.770918,0.387838,-0.458354
1630937428665,-0.778604,0.386008,-0.457988
1630937428674,-0.7838499999999999,0.37637,-0.46177
1630937428684,-0.7817149999999999,0.36234,-0.47458
1630937428693,-0.792939,0.355447,-0.492514
1630937428703,-0.794891,0.341966,-0.507032
1630937428713,-0.791597,0.335073,-0.5155109999999999
1630937428722,-0.795318,0.337696,-0.511241
1630937428732,-0.801662,0.346419,-0.509777
1630937428741,-0.806298,0.34446699999999997,-0.509777
1630937428751,-0.813862,0.335561,-0.514535
1630937428761,-0.816485,0.32391,-0.526247
1630937428770,-0.817217,0.315675,-0.539057
1630937428780,-0.816607,0.299754,-0.546377
1630937428789,-0.812947,0.283589,-0.552782
1630937428799,-0.8081889999999999,0.274927,-0.55693
1630937428809,-0.8054439999999999,0.268949,-0.555344
1630937428818,-0.8008689999999999,0.264618,-0.549427
1630937428828,-0.797148,0.2623,-0.541497
1630937428837,-0.79422,0.261629,-0.53558
1630937428847,-0.792268,0.254248,-0.530578
1630937428857,-0.788852,0.24759899999999999,-0.52948
1630937428866,-0.792451,0.254858,-0.529846
1630937428876,-0.795562,0.25925,-0.534909
1630937428885,-0.790926,0.260165,-0.536983
1630937428895,-0.790011,0.25681,-0.533445
1630937428905,-0.790377,0.256444,-0.532713
1630937428914,-0.787571,0.25315,-0.528931
1630937428924,-0.790438,0.253577,-0.527955
1630937428933,-0.791292,0.25376,-0.528748
1630937428943,-0.793793,0.254187,-0.526491
1630937428953,-0.795501,0.25668799999999997,-0.52887
1630937428962,-0.795623,0.25681,-0.526735
1630937428972,-0.795196,0.258274,-0.526674
1630937428981,-0.796172,0.25851799999999997,-0.525149
1630937428991,-0.798307,0.260226,-0.521123
1630937429001,-0.799161,0.261019,-0.5206959999999999
1630937429010,-0.798124,0.269681,-0.51972
1630937429020,-0.804468,0.264618,-0.516304
1630937429029,-0.805871,0.272304,-0.513925
1630937429039,-0.808128,0.27572,-0.509838
1630937429049,-0.812215,0.277062,-0.51057
1630937429058,-0.813313,0.278465,-0.512644
1630937429068,-0.815021,0.28041699999999997,-0.510692
1630937429077,-0.817583,0.280295,-0.512949
1630937429087,-0.819962,0.283101,-0.5188659999999999
1630937429097,-0.821304,0.281149,-0.522099
1630937429106,-0.8245979999999999,0.282308,-0.524844
1630937429116,-0.824842,0.280966,-0.529602
1630937429125,-0.8235,0.278648,-0.532652
1630937429135,-0.821182,0.274927,-0.535031
1630937429145,-0.818315,0.274622,-0.536373
1630937429154,-0.81679,0.276513,-0.534848
1630937429164,-0.8136789999999999,0.279136,-0.532957
1630937429173,-0.812642,0.2806,-0.531005
1630937429183,-0.808067,0.282186,-0.531188
1630937429193,-0.806237,0.285358,-0.529053
1630937429202,-0.805017,0.285724,-0.526491
1630937429212,-0.80276,0.285785,-0.522282
1630937429221,-0.798002,0.285663,-0.519964
1630937429231,-0.796538,0.28377199999999997,-0.514413
1630937429241,-0.797148,0.283711,-0.512522
1630937429250,-0.794586,0.283406,-0.510509
1630937429260,-0.793366,0.28346699999999997,-0.505446
1630937429269,-0.793366,0.282918,-0.500322
1630937429279,-0.793488,0.287188,-0.498004
1630937429289,-0.795379,0.289689,-0.498126
1630937429298,-0.797209,0.294813,-0.49641799999999997
1630937429308,-0.8008689999999999,0.301218,-0.494527
1630937429317,-0.807518,0.308782,-0.490684
1630937429327,-0.814838,0.317444,-0.487512
1630937429337,-0.817949,0.324459,-0.48745099999999997
1630937429346,-0.817461,0.327265,-0.487207
1630937429356,-0.819352,0.324886,-0.484828
1630937429365,-0.820267,0.325801,-0.486292
1630937429375,-0.82106,0.324886,-0.482632
1630937429385,-0.819596,0.32513,-0.482327
1630937429394,-0.818193,0.325191,-0.481534
1630937429404,-0.813801,0.326594,-0.478423
1630937429413,-0.8118489999999999,0.32848499999999997,-0.47665399999999997
1630937429423,-0.807823,0.329156,-0.477752
1630937429433,-0.8052,0.327143,-0.477935
1630937429442,-0.802638,0.324703,-0.482022
1630937429452,-0.798551,0.323056,-0.477386
1630937429461,-0.797209,0.325191,-0.478606
1630937429471,-0.794403,0.325984,-0.480741
1630937429481,-0.794281,0.326411,-0.480863
1630937429490,-0.794769,0.326716,-0.482022
1630937429500,-0.793915,0.325374,-0.48007
1630937429509,-0.791109,0.326106,-0.481839
1630937429519,-0.789767,0.32817999999999997,-0.481778
1630937429529,-0.786839,0.32848499999999997,-0.4819
1630937429538,-0.786534,0.328912,-0.48287599999999997
1630937429548,-0.7832399999999999,0.326289,-0.484828
1630937429557,-0.7826299999999999,0.320921,-0.482205
1630937429567,-0.782569,0.322385,-0.485072
1630937429577,-0.782447,0.32256799999999997,-0.48531599999999997
1630937429586,-0.783301,0.323788,-0.486475
1630937429596,-0.783911,0.323117,-0.487024
1630937429605,-0.7850699999999999,0.321897,-0.488549
1630937429615,-0.784216,0.319335,-0.487634
1630937429625,-0.784643,0.31781,-0.48922
1630937429634,-0.789401,0.317505,-0.491782
1630937429644,-0.792512,0.319945,-0.495747
1630937429653,-0.796904,0.323788,-0.498309
1630937429663,-0.799283,0.326655,-0.501176
1630937429673,-0.800015,0.327143,-0.500688
1630937429682,-0.801235,0.326167,-0.498736
1630937429692,-0.801967,0.324886,-0.498675
1630937429701,-0.804956,0.325679,-0.497272
1630937429711,-0.807152,0.324825,-0.494954
1630937429721,-0.8091039999999999,0.32574,-0.49458799999999997
1630937429730,-0.810995,0.329461,-0.493734
1630937429740,-0.812703,0.331169,-0.493185
1630937429749,-0.81435,0.332023,-0.48989099999999997
1630937429759,-0.81374,0.332511,-0.486902
1630937429769,-0.814167,0.331596,-0.482205
1630937429778,-0.8133739999999999,0.332572,-0.480192
1630937429788,-0.811727,0.331413,-0.47756899999999997
1630937429797,-0.809653,0.331291,-0.474702
1630937429807,-0.807335,0.328119,-0.47214
1630937429817,-0.804041,0.324886,-0.470066
1630937429826,-0.8017839999999999,0.319152,-0.469334
1630937429836,-0.798673,0.315736,-0.469761
1630937429845,-0.795928,0.313967,-0.467138
1630937429855,-0.793488,0.309697,-0.465369
1630937429865,-0.789584,0.306159,-0.462868
1630937429874,-0.787144,0.302682,-0.461831
1630937429884,-0.789889,0.301889,-0.462258
1630937429893,-0.79605,0.302987,-0.461648
1630937429903,-0.802455,0.308294,-0.46585699999999997
1630937429913,-0.807091,0.312442,-0.469944
1630937429922,-0.811056,0.314211,-0.472262
1630937429932,-0.814167,0.318115,-0.47336
1630937429941,-0.820389,0.322141,-0.476288
1630937429951,-0.824232,0.32757,-0.478362
1630937429961,-0.827099,0.329827,-0.47939899999999996
1630937429970,-0.831064,0.331657,-0.479216
1630937429980,-0.833199,0.333914,-0.480558
1630937429989,-0.832467,0.33458499999999997,-0.480192
1630937429999,-0.831552,0.337086,-0.48031399999999996
1630937430009,-0.830027,0.340624,-0.48007
1630937430018,-0.8291729999999999,0.344406,-0.47824
1630937430028,-0.826794,0.346175,-0.476288
1630937430037,-0.825696,0.35258,-0.477081
1630937430047,-0.82045,0.352336,-0.474702
1630937430057,-0.816851,0.353983,-0.471347
1630937430066,-0.811605,0.354227,-0.469151
1630937430076,-0.8084939999999999,0.352946,-0.464088
1630937430085,-0.8014789999999999,0.354166,-0.461099
1630937430095,-0.795013,0.351543,-0.459818
1630937430105,-0.7899499999999999,0.349652,-0.45505999999999996
1630937430114,-0.7884249999999999,0.346785,-0.45231499999999997
1630937430124,-0.789279,0.348981,-0.455609
1630937430133,-0.7881199999999999,0.350445,-0.461343
1630937430143,-0.787754,0.347029,-0.464271
1630937430153,-0.785802,0.343735,-0.464454
1630937430162,-0.785192,0.338916,-0.465369
1630937430172,-0.783789,0.335134,-0.466406
1630937430181,-0.783728,0.334158,-0.469883
1630937430191,-0.784216,0.33488999999999997,-0.474458
1630937430201,-0.785558,0.33458499999999997,-0.47763
1630937430210,-0.787144,0.333121,-0.48000899999999996
1630937430220,-0.7887299999999999,0.333792,-0.481168
1630937430229,-0.791048,0.334097,-0.482266
1630937430239,-0.793122,0.334707,-0.484767
1630937430249,-0.795562,0.334768,-0.488732
1630937430258,-0.797392,0.333487,-0.490745
1630937430268,-0.798917,0.330986,-0.494222
1630937430277,-0.799466,0.32696,-0.497089
1630937430287,-0.802882,0.325618,-0.495381
1630937430297,-0.803065,0.323544,-0.498065
1630937430306,-0.803797,0.32269,-0.497089
1630937430316,-0.8066639999999999,0.322751,-0.496601
1630937430325,-0.807213,0.323422,-0.497882
1630937430335,-0.807457,0.324398,-0.49959
1630937430345,-0.806176,0.325374,-0.498187
1630937430354,-0.806725,0.320555,-0.494161
1630937430364,-0.8087989999999999,0.321104,-0.49166
1630937430373,-0.80825,0.32012799999999997,-0.492575
1630937430383,-0.806786,0.32086,-0.492453
1630937430393,-0.805993,0.323666,-0.490318
1630937430402,-0.806725,0.325923,-0.487207
1630937430412,-0.806725,0.325496,-0.483852
1630937430421,-0.804956,0.32574,-0.48068
1630937430431,-0.804773,0.325496,-0.477447
1630937430441,-0.803126,0.325496,-0.4758
1630937430450,-0.80398,0.325862,-0.472933
1630937430460,-0.803736,0.328058,-0.470188
1630937430469,-0.8042239999999999,0.331413,-0.469822
1630937430479,-0.804712,0.33458499999999997,-0.46890699999999996
1630937430489,-0.806298,0.337147,-0.465369
1630937430498,-0.809043,0.339831,-0.46238
1630937430508,-0.809226,0.34404,-0.46116
1630937430517,-0.809043,0.346419,-0.459086
1630937430527,-0.808006,0.347273,-0.45597499999999996
1630937430537,-0.808555,0.3477,-0.454084
1630937430546,-0.807213,0.348249,-0.452498
1630937430556,-0.807701,0.348127,-0.452742
1630937430565,-0.8078839999999999,0.350628,-0.45353499999999997
1630937430575,-0.807518,0.348066,-0.45444999999999997
1630937430585,-0.8072739999999999,0.34892,-0.454084
1630937430594,-0.806786,0.347334,-0.455243
1630937430604,-0.805871,0.347395,-0.456951
1630937430613,-0.808006,0.347334,-0.458232
1630937430623,-0.810263,0.347273,-0.461526
1630937430633,-0.8124589999999999,0.346236,-0.467321
1630937430642,-0.810202,0.343796,-0.472811
1630937430652,-0.810263,0.343064,-0.47421399999999997
1630937430661,-0.810263,0.34233199999999997,-0.475922
1630937430671,-0.810995,0.339099,-0.480436
1630937430681,-0.811178,0.336537,-0.48806099999999997
1630937430690,-0.809531,0.333243,-0.491843
1630937430700,-0.8084939999999999,0.328912,-0.496296
1630937430709,-0.804468,0.32452,-0.498004
1630937430719,-0.8020889999999999,0.322202,-0.498309
1630937430729,-0.801235,0.32134799999999997,-0.497577
1630937430738,-0.799588,0.32147,-0.49654
1630937430748,-0.796538,0.32134799999999997,-0.493612
1630937430757,-0.794952,0.321714,-0.49233099999999996
1630937430767,-0.793427,0.321714,-0.489342
1630937430777,-0.792939,0.320921,-0.48775599999999997
1630937430786,-0.793732,0.320372,-0.48897599999999997
1630937430796,-0.793305,0.321592,-0.48983
1630937430805,-0.795257,0.323788,-0.48922
1630937430815,-0.795989,0.328363,-0.488244
1630937430825,-0.796904,0.331352,-0.485438
1630937430834,-0.795989,0.335195,-0.482205
1630937430844,-0.792756,0.334768,-0.47787399999999997
1630937430853,-0.793183,0.333548,-0.473482
1630937430863,-0.794281,0.33427999999999997,-0.472445
1630937430873,-0.793549,0.335073,-0.472018
1630937430882,-0.794525,0.332816,-0.469334
1630937430892,-0.793915,0.329461,-0.466345
1630937430901,-0.795928,0.33244999999999997,-0.466528
1630937430911,-0.799527,0.335622,-0.468724
1630937430921,-0.803248,0.33916,-0.46909
1630937430930,-0.8057489999999999,0.341356,-0.469456
1630937430940,-0.8081889999999999,0.343003,-0.469273
1630937430949,-0.811117,0.341844,-0.468114
1630937430959,-0.811056,0.340746,-0.467016
1630937430969,-0.810202,0.338977,-0.46482
1630937430978,-0.809348,0.337696,-0.465979
1630937430988,-0.809287,0.335683,-0.46494199999999997
1630937430997,-0.808433,0.33488999999999997,-0.465796
1630937431007,-0.81008,0.335561,-0.463478
1630937431017,-0.81008,0.33366999999999997,-0.465064
1630937431026,-0.812215,0.33366999999999997,-0.46524699999999997
1630937431036,-0.813801,0.334524,-0.46482
1630937431045,-0.815631,0.334158,-0.465491
1630937431055,-0.814716,0.332389,-0.46604
1630937431065,-0.816363,0.332511,-0.465064
1630937431074,-0.816973,0.332084,-0.463661
1630937431084,-0.816729,0.331474,-0.46219699999999997
1630937431093,-0.817095,0.331291,-0.463295
1630937431103,-0.817095,0.331962,-0.463356
1630937431113,-0.818315,0.332694,-0.46311199999999997
1630937431122,-0.818742,0.332816,-0.462563
1630937431132,-0.818986,0.333121,-0.461648
1630937431141,-0.819291,0.330864,-0.461709
1630937431151,-0.81923,0.329888,-0.460489
1630937431161,-0.820145,0.331962,-0.460306
1630937431170,-0.818986,0.331962,-0.459513
1630937431180,-0.818864,0.330864,-0.457256
1630937431189,-0.818254,0.332267,-0.456768
1630937431199,-0.817949,0.332938,-0.45444999999999997
1630937431209,-0.818315,0.334707,-0.453779
1630937431218,-0.818254,0.335988,-0.453291
1630937431228,-0.819657,0.334951,-0.452559
1630937431237,-0.818986,0.336842,-0.450973
1630937431247,-0.819413,0.33672,-0.450119
1630937431257,-0.819779,0.33733,-0.447679
1630937431266,-0.818681,0.336964,-0.448472
1630937431276,-0.817888,0.337452,-0.447008
1630937431285,-0.817156,0.337391,-0.44652
1630937431295,-0.817095,0.3355,-0.446398
1630937431305,-0.816973,0.335988,-0.447801
1630937431314,-0.81801,0.335927,-0.446703
1630937431324,-0.817827,0.336537,-0.447557
1630937431333,-0.817827,0.337879,-0.447984
1630937431343,-0.817705,0.339343,-0.447557
1630937431353,-0.816485,0.337086,-0.447923
1630937431362,-0.816607,0.335195,-0.44865499999999997
1630937431372,-0.81679,0.335927,-0.44926499999999997
1630937431381,-0.815387,0.335256,-0.450119
1630937431391,-0.816058,0.33458499999999997,-0.450607
1630937431401,-0.814472,0.333121,-0.45200999999999997
1630937431410,-0.815021,0.33275499999999997,-0.451583
1630937431420,-0.814167,0.33122999999999997,-0.453352
1630937431429,-0.815387,0.331108,-0.454511
1630937431439,-0.815753,0.33092499999999997,-0.456402
1630937431449,-0.815997,0.331291,-0.456524
1630937431458,-0.816607,0.331291,-0.457439
1630937431468,-0.815265,0.330132,-0.457622
1630937431477,-0.815997,0.329766,-0.458659
1630937431487,-0.816485,0.328729,-0.458476
1630937431497,-0.816241,0.328729,-0.460916
1630937431506,-0.81618,0.327814,-0.46097699999999997
1630937431516,-0.816485,0.327814,-0.461648
1630937431525,-0.817034,0.327692,-0.460855
1630937431535,-0.816851,0.328668,-0.460306
1630937431545,-0.817705,0.33031499999999997,-0.45914699999999997
1630937431554,-0.817644,0.33061999999999997,-0.459086
1630937431564,-0.818742,0.331291,-0.45933
1630937431573,-0.818315,0.33153499999999997,-0.458598
1630937431583,-0.817949,0.332694,-0.458476
1630937431593,-0.818864,0.333853,-0.457561
1630937431602,-0.817888,0.334036,-0.45627999999999996
1630937431612,-0.815692,0.332694,-0.45566999999999996
1630937431621,-0.8155089999999999,0.333548,-0.45292499999999997
1630937431631,-0.815326,0.33336499999999997,-0.452559
1630937431641,-0.816363,0.334768,-0.453047
1630937431650,-0.818986,0.337574,-0.455121
1630937431660,-0.819535,0.339404,-0.457622
1630937431669,-0.819962,0.33733,-0.457439
1630937431679,-0.817095,0.337452,-0.454816
1630937431689,-0.8152039999999999,0.334402,-0.452132
1630937431698,-0.8152039999999999,0.331474,-0.450851
1630937431708,-0.814655,0.33183999999999997,-0.450912
1630937431717,-0.812703,0.332694,-0.45231499999999997
1630937431727,-0.814655,0.332938,-0.451339
1630937431737,-0.813801,0.332328,-0.451522
1630937431746,-0.814716,0.335134,-0.451949
1630937431756,-0.817217,0.337269,-0.454633
1630937431765,-0.818071,0.33794,-0.457805
1630937431775,-0.819657,0.341234,-0.458293
1630937431785,-0.822097,0.33989199999999997,-0.45872
1630937431794,-0.8221579999999999,0.338123,-0.457439
1630937431804,-0.82167,0.336415,-0.457073
1630937431813,-0.820816,0.335988,-0.455853
1630937431823,-0.819291,0.33611,-0.456036
1630937431833,-0.817644,0.337513,-0.456097
1630937431842,-0.816973,0.337818,-0.454694
1630937431852,-0.814472,0.337696,-0.452681
1630937431861,-0.813618,0.339038,-0.45139999999999997
1630937431871,-0.81374,0.341173,-0.451278
1630937431881,-0.8133739999999999,0.342088,-0.45017999999999997
1630937431890,-0.815143,0.342698,-0.45078999999999997
1630937431900,-0.8130689999999999,0.341966,-0.449936
1630937431909,-0.81191,0.34202699999999997,-0.448533
1630937431919,-0.811971,0.34141699999999997,-0.447984
1630937431929,-0.81313,0.341234,-0.449753
1630937431938,-0.813862,0.341844,-0.451156
1630937431948,-0.812825,0.341051,-0.45170499999999997
1630937431957,-0.812886,0.34050199999999997,-0.451217
1630937431967,-0.8133739999999999,0.34050199999999997,-0.450119
1630937431977,-0.8127639999999999,0.33916,-0.45017999999999997
1630937431986,-0.812947,0.339404,-0.45109499999999997
1630937431996,-0.8136789999999999,0.33989199999999997,-0.45261999999999997
1630937432005,-0.8139839999999999,0.341478,-0.454206
1630937432015,-0.81191,0.33733,-0.453474
1630937432025,-0.813618,0.337513,-0.450912
1630937432034,-0.81435,0.33733,-0.451278
1630937432044,-0.81557,0.339221,-0.451522
1630937432053,-0.814472,0.33989199999999997,-0.453413
1630937432063,-0.815265,0.339831,-0.454023
1630937432073,-0.815631,0.33989199999999997,-0.454023
1630937432082,-0.816058,0.338733,-0.45322999999999997
1630937432092,-0.8145939999999999,0.338489,-0.454328
1630937432101,-0.8161189999999999,0.336659,-0.45353499999999997
1630937432111,-0.815753,0.335866,-0.455426
1630937432121,-0.814838,0.335073,-0.455914
1630937432130,-0.815997,0.333548,-0.456402
1630937432140,-0.814838,0.333121,-0.455914
1630937432149,-0.814777,0.332572,-0.454877
1630937432159,-0.815265,0.333243,-0.45658499999999996
1630937432169,-0.815997,0.334768,-0.456097
1630937432178,-0.8161189999999999,0.336598,-0.45688999999999996
1630937432188,-0.816729,0.335683,-0.458293
1630937432197,-0.816607,0.334341,-0.457988
1630937432207,-0.816546,0.334402,-0.457805
1630937432217,-0.817217,0.333914,-0.457012
1630937432226,-0.816302,0.33427999999999997,-0.457195
1630937432236,-0.816058,0.333426,-0.457866
1630937432245,-0.817156,0.333792,-0.456524
1630937432255,-0.816546,0.333548,-0.457622
1630937432265,-0.815326,0.333182,-0.457744
1630937432274,-0.8161189999999999,0.333243,-0.457683
1630937432284,-0.816546,0.332633,-0.457988
1630937432293,-0.815936,0.332267,-0.45658499999999996
1630937432303,-0.815936,0.334036,-0.456097
1630937432313,-0.8158139999999999,0.333487,-0.456097
1630937432322,-0.815875,0.33275499999999997,-0.456036
1630937432332,-0.816363,0.33366999999999997,-0.457256
1630937432341,-0.817034,0.334524,-0.456158
1630937432351,-0.817583,0.334768,-0.455792
1630937432361,-0.817644,0.334097,-0.455792
1630937432370,-0.81679,0.333609,-0.45597499999999996
1630937432380,-0.816302,0.334707,-0.45322999999999997
1630937432389,-0.8161189999999999,0.334036,-0.454023
1630937432399,-0.816912,0.33305999999999997,-0.454572
1630937432409,-0.81679,0.335439,-0.453474
1630937432418,-0.816546,0.336598,-0.453596
1630937432428,-0.815692,0.336232,-0.452254
1630937432437,-0.8145939999999999,0.334768,-0.450729
1630937432447,-0.815082,0.333853,-0.449387
1630937432457,-0.8155089999999999,0.333121,-0.449631
1630937432466,-0.8164239999999999,0.332572,-0.450851
1630937432476,-0.817095,0.334768,-0.451217
1630937432485,-0.818498,0.335988,-0.451888
1630937432495,-0.819474,0.337391,-0.451278
1630937432505,-0.818376,0.33611,-0.450668
1630937432514,-0.820328,0.337086,-0.450851
1630937432524,-0.817583,0.336537,-0.452071
1630937432533,-0.818681,0.335988,-0.449753
1630937432543,-0.819474,0.335805,-0.448716
1630937432553,-0.819352,0.33366999999999997,-0.446276
1630937432562,-0.818559,0.3355,-0.446276
1630937432572,-0.817827,0.338184,-0.446947
1630937432581,-0.819352,0.339526,-0.44712999999999997
1630937432591,-0.820694,0.34111199999999997,-0.449143
1630937432601,-0.8230729999999999,0.344284,-0.450973
1630937432610,-0.8245979999999999,0.34599199999999997,-0.454389
1630937432620,-0.824842,0.342759,-0.455426
1630937432629,-0.8230729999999999,0.338001,-0.452559
1630937432639,-0.82106,0.333609,-0.450119
1630937432649,-0.819657,0.333304,-0.448289
1630937432658,-0.818132,0.333182,-0.447862
1630937432668,-0.817034,0.334646,-0.446703
1630937432677,-0.815753,0.336354,-0.444812
1630937432687,-0.81557,0.336598,-0.445666
1630937432697,-0.8145939999999999,0.337818,-0.445971
1630937432706,-0.815692,0.337391,-0.446154
1630937432716,-0.8155089999999999,0.33672,-0.447374
1630937432725,-0.815753,0.335683,-0.450729
1630937432735,-0.816241,0.335378,-0.451156
1630937432745,-0.8161189999999999,0.33488999999999997,-0.452254
1630937432754,-0.816485,0.335134,-0.451217
1630937432764,-0.817583,0.334341,-0.450424
1630937432773,-0.817278,0.335256,-0.44956999999999997
1630937432783,-0.8174,0.334951,-0.450302
1630937432793,-0.817339,0.335622,-0.449509
1630937432802,-0.817278,0.335256,-0.450119
1630937432812,-0.817095,0.33672,-0.451034
1630937432821,-0.818925,0.336476,-0.452071
1630937432831,-0.815936,0.335866,-0.452681
1630937432841,-0.815387,0.331169,-0.449692
1630937432850,-0.816607,0.334158,-0.449387
1630937432860,-0.8174,0.336598,-0.451888
1630937432869,-0.818132,0.337818,-0.45322999999999997
1630937432879,-0.819535,0.33916,-0.456158
1630937432889,-0.818742,0.338672,-0.455853
1630937432898,-0.818742,0.336659,-0.45353499999999997
1630937432908,-0.817949,0.334951,-0.454328
1630937432917,-0.817339,0.333609,-0.453291
1630937432927,-0.8164239999999999,0.333792,-0.45505999999999996
1630937432937,-0.815997,0.334524,-0.455914
1630937432946,-0.816729,0.334524,-0.457317
1630937432956,-0.8164239999999999,0.33305999999999997,-0.456951
1630937432965,-0.817522,0.333914,-0.45688999999999996
1630937432975,-0.816241,0.33458499999999997,-0.455609
1630937432985,-0.814716,0.333609,-0.454267
1630937432994,-0.814045,0.335134,-0.454267
1630937433004,-0.814167,0.335256,-0.45353499999999997
1630937433013,-0.815326,0.335073,-0.45475499999999996
1630937433023,-0.815448,0.334951,-0.456402
1630937433033,-0.815753,0.33458499999999997,-0.456402
1630937433042,-0.817034,0.33427999999999997,-0.457622
1630937433052,-0.818315,0.335073,-0.457195
1630937433061,-0.81679,0.335439,-0.456646
1630937433071,-0.817461,0.334402,-0.45658499999999996
1630937433081,-0.816912,0.334768,-0.455914
1630937433090,-0.816851,0.335256,-0.454694
1630937433100,-0.817949,0.33672,-0.45414499999999997
1630937433109,-0.81679,0.335805,-0.454389
1630937433119,-0.815997,0.334829,-0.452803
1630937433129,-0.815021,0.334158,-0.45322999999999997
1630937433138,-0.8158139999999999,0.333914,-0.451766
1630937433148,-0.8158139999999999,0.334646,-0.45139999999999997
1630937433157,-0.815387,0.334402,-0.45292499999999997
1630937433167,-0.8148989999999999,0.334951,-0.45261999999999997
1630937433177,-0.815692,0.334158,-0.451949
1630937433186,-0.816485,0.333426,-0.452986
1630937433196,-0.815875,0.33397499999999997,-0.453962
1630937433205,-0.8161189999999999,0.334097,-0.453718
1630937433215,-0.8174,0.3355,-0.452437
1630937433225,-0.81679,0.335073,-0.451827
1630937433234,-0.816546,0.334524,-0.45292499999999997
1630937433244,-0.817522,0.333914,-0.451339
1630937433253,-0.817522,0.333914,-0.450424
1630937433263,-0.816546,0.332999,-0.452498
1630937433273,-0.817034,0.333914,-0.452071
1630937433282,-0.818559,0.335439,-0.452864
1630937433292,-0.819352,0.33672,-0.452742
1630937433301,-0.819291,0.336842,-0.454206
1630937433311,-0.820389,0.336964,-0.454084
1630937433321,-0.819291,0.33488999999999997,-0.45261999999999997
1630937433330,-0.819047,0.335073,-0.452559
1630937433340,-0.818864,0.334402,-0.452254
1630937433349,-0.817278,0.332877,-0.44987499999999997
1630937433359,-0.816546,0.33183999999999997,-0.44834999999999997
1630937433369,-0.817095,0.333548,-0.446886
1630937433378,-0.818193,0.33611,-0.448838
1630937433388,-0.820023,0.338306,-0.45078999999999997
1630937433397,-0.820694,0.339465,-0.452498
1630937433407,-0.8224629999999999,0.342149,-0.45353499999999997
1630937433417,-0.8224629999999999,0.339831,-0.455121
1630937433426,-0.821121,0.33672,-0.454206
1630937433436,-0.820816,0.334341,-0.452437
1630937433445,-0.819596,0.332328,-0.453413
1630937433455,-0.818132,0.331962,-0.452986
1630937433465,-0.816973,0.332267,-0.451644
1630937433474,-0.815143,0.332694,-0.44987499999999997
1630937433484,-0.815692,0.333487,-0.44895999999999997
1630937433493,-0.815692,0.333731,-0.449448
1630937433503,-0.816058,0.335561,-0.451278
1630937433513,-0.816668,0.335012,-0.450424
1630937433522,-0.816729,0.336476,-0.450302
1630937433532,-0.815936,0.335805,-0.450546
1630937433541,-0.815936,0.33488999999999997,-0.449814
1630937433551,-0.817095,0.334341,-0.44895999999999997
1630937433561,-0.817705,0.335439,-0.451034
1630937433570,-0.817583,0.33458499999999997,-0.450058
1630937433580,-0.817827,0.334768,-0.450302
1630937433589,-0.818193,0.334036,-0.450546
1630937433599,-0.818132,0.335378,-0.449448
1630937433609,-0.819047,0.334768,-0.450546
1630937433618,-0.81923,0.334951,-0.450912
1630937433628,-0.81984,0.335866,-0.451278
1630937433637,-0.817339,0.335195,-0.450607
1630937433647,-0.818193,0.332999,-0.449753
1630937433657,-0.817278,0.334524,-0.448716
1630937433666,-0.817217,0.334097,-0.448533
1630937433676,-0.81801,0.334829,-0.448228
1630937433685,-0.818376,0.33611,-0.449753
1630937433695,-0.818437,0.335927,-0.449387
1630937433705,-0.818803,0.33427999999999997,-0.448533
1630937433714,-0.818315,0.334463,-0.44895999999999997
1630937433724,-0.818376,0.332328,-0.44956999999999997
1630937433733,-0.818254,0.332328,-0.449936
1630937433743,-0.819169,0.33214499999999997,-0.45139999999999997
1630937433753,-0.818864,0.331352,-0.453047
1630937433762,-0.819413,0.331657,-0.452376
1630937433772,-0.820877,0.332511,-0.452742
1630937433781,-0.821609,0.333121,-0.451156
1630937433791,-0.820938,0.335195,-0.45170499999999997
1630937433801,-0.820755,0.335866,-0.450607
1630937433810,-0.820755,0.336659,-0.451339
1630937433820,-0.820389,0.336476,-0.451522
1630937433829,-0.820694,0.335744,-0.450973
1630937433839,-0.820877,0.334402,-0.450851
1630937433849,-0.82045,0.335134,-0.45139999999999997
1630937433858,-0.820755,0.336354,-0.45170499999999997
1630937433868,-0.81984,0.336781,-0.450851
1630937433877,-0.819962,0.336171,-0.451339
1630937433887,-0.818986,0.33611,-0.451034
1630937433897,-0.818986,0.336171,-0.451339
1630937433906,-0.81862,0.335561,-0.451522
1630937433916,-0.818498,0.336232,-0.451278
1630937433925,-0.818071,0.335805,-0.45109499999999997
1630937433935,-0.817522,0.334158,-0.45170499999999997
1630937433945,-0.817156,0.333487,-0.450973
1630937433954,-0.81679,0.333914,-0.45139999999999997
1630937433964,-0.816058,0.33427999999999997,-0.451339
1630937433973,-0.81557,0.334219,-0.451827
1630937433983,-0.81618,0.333487,-0.45170499999999997
1630937433993,-0.81679,0.33488999999999997,-0.450851
1630937434002,-0.817766,0.334768,-0.450607
1630937434012,-0.817278,0.334036,-0.450668
1630937434021,-0.818315,0.33427999999999997,-0.449692
1630937434031,-0.818193,0.333792,-0.449814
1630937434041,-0.817949,0.335073,-0.448899
1630937434050,-0.81801,0.336049,-0.44895999999999997
1630937434060,-0.818986,0.336049,-0.447557
1630937434069,-0.81984,0.337574,-0.447557
1630937434079,-0.818803,0.338306,-0.447374
1630937434089,-0.819413,0.338672,-0.447496
1630937434098,-0.818437,0.33916,-0.447252
1630937434108,-0.818254,0.337086,-0.447374
1630937434117,-0.818803,0.335927,-0.44652
1630937434127,-0.818132,0.334768,-0.448228
1630937434137,-0.817644,0.335927,-0.450729
1630937434146,-0.818376,0.33611,-0.451034
1630937434156,-0.819413,0.336049,-0.450973
1630937434165,-0.818925,0.335439,-0.450912
1630937434175,-0.818315,0.334524,-0.44956999999999997
1630937434185,-0.817095,0.332389,-0.450729
1630937434194,-0.81862,0.330864,-0.450058
1630937434204,-0.816973,0.331596,-0.452986
1630937434213,-0.8164239999999999,0.329522,-0.45200999999999997
1630937434223,-0.815387,0.327997,-0.449143
1630937434233,-0.816546,0.329217,-0.448716
1630937434242,-0.817766,0.332877,-0.453047
1630937434252,-0.820145,0.335134,-0.454694
1630937434261,-0.821609,0.336781,-0.457134
1630937434271,-0.821609,0.337208,-0.457622
1630937434281,-0.821914,0.335439,-0.456341
1630937434290,-0.821792,0.331474,-0.454694
1630937434300,-0.820755,0.331169,-0.454511
1630937434309,-0.820694,0.329827,-0.453169
1630937434319,-0.81923,0.330986,-0.453047
1630937434329,-0.816607,0.332023,-0.453596
1630937434338,-0.816546,0.332694,-0.45261999999999997
1630937434348,-0.815936,0.33366999999999997,-0.45231499999999997
1630937434357,-0.815997,0.334951,-0.451217
1630937434367,-0.81618,0.335988,-0.452132
1630937434377,-0.81618,0.335622,-0.451461
1630937434386,-0.816546,0.336232,-0.452498
1630937434396,-0.816729,0.334951,-0.452254
1630937434405,-0.815692,0.33366999999999997,-0.45231499999999997
1630937434415,-0.816363,0.333304,-0.45170499999999997
1630937434425,-0.816729,0.333792,-0.452193
1630937434434,-0.816607,0.33336499999999997,-0.451766
1630937434444,-0.816912,0.332999,-0.45292499999999997
1630937434453,-0.817583,0.33366999999999997,-0.452071
1630937434463,-0.8174,0.334097,-0.452132
1630937434473,-0.818559,0.334402,-0.450851
1630937434482,-0.819413,0.334707,-0.451034
1630937434492,-0.819657,0.33611,-0.451888
1630937434501,-0.818071,0.336171,-0.452437
1630937434511,-0.818986,0.334402,-0.449326
1630937434521,-0.81923,0.336476,-0.449021
1630937434530,-0.820023,0.336293,-0.448838
1630937434540,-0.819779,0.337757,-0.44804499999999997
1630937434549,-0.820694,0.339526,-0.448594
1630937434559,-0.820023,0.33989199999999997,-0.447496
1630937434569,-0.819535,0.338367,-0.447496
1630937434578,-0.81984,0.337513,-0.446581
1630937434588,-0.819047,0.337147,-0.44834999999999997
1630937434597,-0.819169,0.336598,-0.448228
1630937434607,-0.818742,0.336232,-0.447252
1630937434617,-0.818864,0.335683,-0.448411
1630937434626,-0.818681,0.334768,-0.44834999999999997
1630937434636,-0.818803,0.335073,-0.44804499999999997
1630937434645,-0.818498,0.335561,-0.449082
1630937434655,-0.818071,0.336171,-0.448899
1630937434665,-0.818376,0.335805,-0.45048499999999997
1630937434674,-0.819108,0.3355,-0.451278
1630937434684,-0.817766,0.335866,-0.452193
1630937434693,-0.817339,0.335134,-0.452437
1630937434703,-0.817888,0.335439,-0.451278
1630937434713,-0.818071,0.33427999999999997,-0.451034
1630937434722,-0.817522,0.333853,-0.45139999999999997
1630937434732,-0.817095,0.333914,-0.451827
1630937434741,-0.817461,0.334829,-0.451949
1630937434751,-0.817156,0.334463,-0.451949
1630937434761,-0.81679,0.334402,-0.45231499999999997
1630937434770,-0.817278,0.334707,-0.453108
1630937434780,-0.817644,0.334341,-0.453169
1630937434789,-0.816729,0.334707,-0.452742
1630937434799,-0.816302,0.334646,-0.452986
1630937434809,-0.817949,0.335012,-0.45170499999999997
1630937434818,-0.817034,0.33366999999999997,-0.452193
1630937434828,-0.818376,0.334036,-0.451827
1630937434837,-0.817644,0.334097,-0.45261999999999997
1630937434847,-0.817583,0.334707,-0.45200999999999997
1630937434857,-0.81801,0.334341,-0.450668
1630937434866,-0.816973,0.333914,-0.450729
1630937434876,-0.817705,0.33397499999999997,-0.449509
1630937434885,-0.817034,0.334341,-0.449082
1630937434895,-0.817949,0.335073,-0.449326
1630937434905,-0.818254,0.334768,-0.447496
1630937434914,-0.81862,0.33427999999999997,-0.449021
1630937434924,-0.818742,0.334158,-0.449448
1630937434933,-0.819779,0.334951,-0.44956999999999997
1630937434943,-0.820084,0.334707,-0.449143
1630937434953,-0.820023,0.333853,-0.450058
1630937434962,-0.819718,0.333609,-0.450241
1630937434972,-0.820023,0.334219,-0.449692
1630937434981,-0.821304,0.333731,-0.449021
1630937434991,-0.821121,0.33397499999999997,-0.44956999999999997
1630937435001,-0.821243,0.33366999999999997,-0.449387
1630937435010,-0.821304,0.334219,-0.44987499999999997
1630937435020,-0.820755,0.33397499999999997,-0.449692
1630937435029,-0.820572,0.334951,-0.450241
1630937435039,-0.821548,0.335256,-0.449387
1630937435049,-0.819413,0.332938,-0.448594
1630937435058,-0.819962,0.332938,-0.448777
1630937435068,-0.820572,0.332694,-0.449692
1630937435077,-0.819901,0.33275499999999997,-0.449936
1630937435087,-0.820389,0.334341,-0.450912
1630937435097,-0.820755,0.335134,-0.450668
1630937435106,-0.82045,0.334524,-0.450546
1630937435116,-0.81923,0.334219,-0.448899
1630937435125,-0.81923,0.331413,-0.448838
1630937435135,-0.820145,0.330132,-0.44895999999999997
1630937435145,-0.819169,0.331108,-0.45048499999999997
1630937435154,-0.818193,0.330559,-0.449387
1630937435164,-0.8174,0.328119,-0.447374
1630937435173,-0.818803,0.329888,-0.446642
1630937435183,-0.818986,0.333609,-0.449387
1630937435193,-0.820694,0.336049,-0.452559
1630937435202,-0.8230729999999999,0.337269,-0.45444999999999997
1630937435212,-0.8245979999999999,0.336842,-0.454023
1630937435221,-0.82472,0.334951,-0.453108
1630937435231,-0.8236829999999999,0.331718,-0.451217
1630937435241,-0.821426,0.329888,-0.451339
1630937435250,-0.82045,0.328729,-0.451766
1630937435260,-0.819474,0.329156,-0.452254
1630937435269,-0.818986,0.328729,-0.452132
1630937435279,-0.817888,0.329766,-0.452376
1630937435289,-0.817278,0.330498,-0.452803
1630937435298,-0.816363,0.330498,-0.452132
1630937435308,-0.815997,0.330376,-0.45322999999999997
1630937435317,-0.817766,0.331169,-0.452376
1630937435327,-0.816912,0.329827,-0.454572
1630937435337,-0.816973,0.329156,-0.454267
1630937435346,-0.817156,0.329461,-0.454511
1630937435356,-0.818132,0.32817999999999997,-0.454816
1630937435365,-0.818864,0.32787499999999997,-0.45444999999999997
1630937435375,-0.818437,0.32817999999999997,-0.45475499999999996
1630937435385,-0.818498,0.329583,-0.454694
1630937435394,-0.819596,0.33000999999999997,-0.454328
1630937435404,-0.819596,0.329034,-0.454328
1630937435413,-0.819657,0.329034,-0.45414499999999997
1630937435423,-0.820267,0.329949,-0.45444999999999997
1630937435433,-0.8221579999999999,0.332267,-0.454328
1630937435442,-0.818559,0.331657,-0.455121
1630937435452,-0.819718,0.329888,-0.451278
1630937435461,-0.818986,0.33244999999999997,-0.450119
1630937435471,-0.820145,0.332084,-0.449448
1630937435481,-0.818254,0.332938,-0.450607
1630937435490,-0.819169,0.334829,-0.450668
1630937435500,-0.820023,0.334463,-0.451583
1630937435509,-0.820023,0.334341,-0.45078999999999997
1630937435519,-0.818193,0.333792,-0.45109499999999997
1630937435529,-0.818376,0.332267,-0.44987499999999997
1630937435538,-0.818193,0.331596,-0.449448
1630937435548,-0.817827,0.330742,-0.449631
1630937435557,-0.817522,0.330803,-0.450668
1630937435567,-0.818254,0.33183999999999997,-0.450546
1630937435577,-0.818071,0.33183999999999997,-0.451949
1630937435586,-0.819413,0.332633,-0.451644
1630937435596,-0.820023,0.333609,-0.450424
1630937435605,-0.820206,0.33397499999999997,-0.451034
1630937435615,-0.819657,0.334646,-0.450973
1630937435625,-0.818803,0.334036,-0.451522
1630937435634,-0.819535,0.333121,-0.450607
1630937435644,-0.819291,0.332328,-0.451217
1630937435653,-0.819779,0.333487,-0.452559
1630937435663,-0.819352,0.33366999999999997,-0.451766
1630937435673,-0.82045,0.333914,-0.452864
1630937435682,-0.819657,0.333243,-0.452803
1630937435692,-0.817949,0.334036,-0.452742
1630937435701,-0.817827,0.333792,-0.452254
1630937435711,-0.817827,0.334768,-0.45170499999999997
1630937435721,-0.817766,0.333609,-0.451827
1630937435730,-0.818132,0.334524,-0.45231499999999997
1630937435740,-0.818193,0.333853,-0.45231499999999997
1630937435749,-0.817583,0.33305999999999997,-0.452681
1630937435759,-0.817949,0.331657,-0.452132
1630937435769,-0.818376,0.332084,-0.451949
1630937435778,-0.817522,0.33153499999999997,-0.45261999999999997
1630937435788,-0.817827,0.330864,-0.45292499999999997
1630937435797,-0.818376,0.33183999999999997,-0.452437
1630937435807,-0.817461,0.331779,-0.451156
1630937435817,-0.817095,0.332023,-0.451644
1630937435826,-0.818254,0.33275499999999997,-0.450912
1630937435836,-0.81679,0.33214499999999997,-0.451278
1630937435845,-0.819291,0.332694,-0.450912
1630937435855,-0.818986,0.332938,-0.450424
1630937435865,-0.819169,0.333304,-0.44956999999999997
1630937435874,-0.818986,0.332694,-0.451339
1630937435884,-0.818803,0.333426,-0.450668
1630937435893,-0.818925,0.33366999999999997,-0.450607
1630937435903,-0.819413,0.332267,-0.450912
1630937435913,-0.820145,0.333609,-0.45170499999999997
1630937435922,-0.818315,0.333426,-0.452071
1630937435932,-0.818132,0.332572,-0.451827
1630937435941,-0.81862,0.332267,-0.452437
1630937435951,-0.819108,0.332328,-0.451949
1630937435961,-0.819047,0.332389,-0.45292499999999997
1630937435970,-0.818864,0.332511,-0.455243
1630937435980,-0.81923,0.331962,-0.454999
1630937435989,-0.818986,0.332389,-0.45383999999999997
1630937435999,-0.817278,0.331291,-0.454084
1630937436009,-0.817339,0.329644,-0.454206
1630937436018,-0.817461,0.328302,-0.45200999999999997
1630937436028,-0.81679,0.328241,-0.451766
1630937436037,-0.816729,0.329217,-0.453413
1630937436047,-0.819291,0.332206,-0.456158
1630937436057,-0.81801,0.333548,-0.456524
1630937436066,-0.818254,0.333243,-0.454816
1630937436076,-0.818193,0.333304,-0.454389
1630937436085,-0.817949,0.334158,-0.455609
1630937436095,-0.816973,0.330742,-0.453291
1630937436105,-0.817949,0.331291,-0.453108
1630937436114,-0.817461,0.330376,-0.452376
1630937436124,-0.816973,0.329339,-0.449692
1630937436133,-0.8164239999999999,0.332084,-0.449692
1630937436143,-0.817705,0.335134,-0.450363
1630937436153,-0.819108,0.336598,-0.451522
1630937436162,-0.82045,0.339404,-0.452986
1630937436172,-0.822585,0.34080699999999997,-0.455792
1630937436181,-0.823195,0.33977,-0.457622
1630937436191,-0.821853,0.335805,-0.456036
1630937436201,-0.820267,0.332938,-0.453413
1630937436210,-0.818193,0.331779,-0.452803
1630937436220,-0.817644,0.33061999999999997,-0.451949
1630937436229,-0.8161189999999999,0.331962,-0.451461
1630937436239,-0.814228,0.331596,-0.450851
1630937436249,-0.814106,0.332389,-0.450912
1630937436258,-0.815021,0.334097,-0.45139999999999997
1630937436268,-0.814106,0.334097,-0.451644
1630937436277,-0.815082,0.334036,-0.452132
1630937436287,-0.81557,0.33397499999999997,-0.45414499999999997
1630937436297,-0.815387,0.333121,-0.454572
1630937436306,-0.815997,0.332999,-0.453657
1630937436316,-0.81618,0.333304,-0.454328
1630937436325,-0.8161189999999999,0.334036,-0.453962
1630937436335,-0.817095,0.33336499999999997,-0.453718
1630937436345,-0.817217,0.334402,-0.453291
1630937436354,-0.817522,0.333792,-0.453596
1630937436364,-0.818681,0.33458499999999997,-0.452742
1630937436373,-0.819108,0.334524,-0.452498
1630937436383,-0.819474,0.334402,-0.452132
1630937436393,-0.821243,0.335561,-0.453474
1630937436402,-0.817888,0.336415,-0.453474
1630937436412,-0.817095,0.332389,-0.449997
1630937436421,-0.817583,0.336049,-0.449326
1630937436431,-0.81801,0.336903,-0.451278
1630937436441,-0.817888,0.338001,-0.451278
1630937436450,-0.818559,0.33958699999999997,-0.452986
1630937436460,-0.818681,0.337879,-0.452437
1630937436469,-0.817217,0.335134,-0.45017999999999997
1630937436479,-0.816363,0.332572,-0.449753
1630937436489,-0.817217,0.331291,-0.449631
1630937436498,-0.816241,0.33122999999999997,-0.450607
1630937436508,-0.816851,0.332389,-0.452132
1630937436517,-0.816241,0.33427999999999997,-0.452071
1630937436527,-0.817278,0.334768,-0.453779
1630937436537,-0.818742,0.334219,-0.453779
1630937436546,-0.817949,0.333914,-0.45292499999999997
1630937436556,-0.817705,0.334158,-0.453474
1630937436565,-0.81801,0.33427999999999997,-0.453352
1630937436575,-0.817766,0.334829,-0.45292499999999997
1630937436585,-0.816912,0.333853,-0.454633
1630937436594,-0.817278,0.333609,-0.454999
1630937436604,-0.818376,0.332511,-0.453901
1630937436613,-0.818864,0.33244999999999997,-0.454023
1630937436623,-0.819108,0.334097,-0.454389
1630937436633,-0.819413,0.33427999999999997,-0.454206
1630937436642,-0.819474,0.334707,-0.454999
1630937436652,-0.818315,0.335195,-0.453962
1630937436661,-0.818742,0.334768,-0.455426
1630937436671,-0.817522,0.334768,-0.45475499999999996
1630937436681,-0.817156,0.33397499999999997,-0.45383999999999997
1630937436690,-0.8174,0.333914,-0.45353499999999997
1630937436700,-0.817156,0.333304,-0.452986
1630937436709,-0.817644,0.333548,-0.453169
1630937436719,-0.817278,0.332938,-0.45200999999999997
1630937436729,-0.817278,0.333426,-0.451278
1630937436738,-0.817461,0.335134,-0.450912
1630937436748,-0.816363,0.334463,-0.451339
1630937436757,-0.816668,0.335256,-0.450119
1630937436767,-0.816729,0.336232,-0.450119
1630937436777,-0.817827,0.334524,-0.450424
1630937436786,-0.81862,0.334158,-0.449997
1630937436796,-0.81801,0.335195,-0.450973
1630937436805,-0.817766,0.334768,-0.449631
1630937436815,-0.818193,0.334707,-0.450058
1630937436825,-0.818864,0.334829,-0.448777
1630937436834,-0.81801,0.334341,-0.448899
1630937436844,-0.819169,0.335256,-0.449143
1630937436853,-0.819413,0.335927,-0.44895999999999997
1630937436863,-0.818803,0.336293,-0.450241
1630937436873,-0.819047,0.336232,-0.44987499999999997
1630937436882,-0.819596,0.336903,-0.44956999999999997
1630937436892,-0.81984,0.33672,-0.448594
1630937436901,-0.818803,0.336842,-0.44895999999999997
1630937436911,-0.818193,0.336476,-0.44926499999999997
1630937436921,-0.818071,0.334463,-0.448594
1630937436930,-0.818681,0.332816,-0.449326
1630937436940,-0.819413,0.33366999999999997,-0.448777
1630937436949,-0.818803,0.333792,-0.449692
1630937436959,-0.81984,0.334951,-0.450302
1630937436969,-0.819779,0.337086,-0.45078999999999997
1630937436978,-0.819474,0.336476,-0.449997
1630937436988,-0.820755,0.336415,-0.449692
1630937436997,-0.819352,0.335866,-0.450241
1630937437007,-0.819596,0.333914,-0.44773999999999997
1630937437017,-0.820999,0.334524,-0.449082
1630937437026,-0.818254,0.334951,-0.447069
1630937437036,-0.818681,0.33244999999999997,-0.44395799999999996
1630937437045,-0.818437,0.333426,-0.44286
1630937437055,-0.819108,0.337086,-0.44334799999999996
1630937437065,-0.820267,0.338916,-0.445117
1630937437074,-0.821487,0.34141699999999997,-0.447557
1630937437084,-0.8230729999999999,0.343125,-0.451156
1630937437093,-0.8236829999999999,0.341234,-0.452498
1630937437103,-0.8235,0.336903,-0.44926499999999997
1630937437113,-0.823256,0.334219,-0.448167
1630937437122,-0.820877,0.33244999999999997,-0.447496
1630937437132,-0.819596,0.331779,-0.447923
1630937437141,-0.819901,0.331962,-0.448289
1630937437151,-0.818681,0.332877,-0.448228
1630937437161,-0.8174,0.333426,-0.44652
1630937437170,-0.817888,0.335866,-0.446642
1630937437180,-0.818376,0.335622,-0.44652
1630937437189,-0.818559,0.336354,-0.447557
1630937437199,-0.819291,0.336781,-0.448838
1630937437209,-0.819474,0.336476,-0.44865499999999997
1630937437218,-0.819718,0.335317,-0.447984
1630937437228,-0.819413,0.33427999999999997,-0.448533
1630937437237,-0.81862,0.334219,-0.44834999999999997
1630937437247,-0.820023,0.333426,-0.449143
1630937437257,-0.819962,0.333792,-0.448594
1630937437266,-0.818559,0.334524,-0.447496
1630937437276,-0.818864,0.334524,-0.448472
1630937437285,-0.819413,0.335561,-0.448106
1630937437295,-0.820633,0.334768,-0.447557
1630937437305,-0.820999,0.335378,-0.447923
1630937437314,-0.821426,0.336354,-0.44804499999999997
1630937437324,-0.818803,0.334707,-0.447618
1630937437333,-0.819657,0.33214499999999997,-0.444446
1630937437343,-0.819962,0.335256,-0.44652
1630937437353,-0.820328,0.335927,-0.446093
1630937437362,-0.821182,0.33672,-0.446215
1630937437372,-0.82167,0.339038,-0.447862
1630937437381,-0.822036,0.338367,-0.446703
1630937437391,-0.820816,0.336537,-0.44591
1630937437401,-0.820938,0.335805,-0.445422
1630937437410,-0.819657,0.334829,-0.446154
1630937437420,-0.819901,0.334097,-0.445971
1630937437429,-0.819535,0.333792,-0.446276
1630937437439,-0.819962,0.333792,-0.446398
1630937437449,-0.820084,0.335012,-0.44652
1630937437458,-0.820267,0.335866,-0.446337
1630937437468,-0.820206,0.335073,-0.445544
1630937437477,-0.820816,0.336598,-0.446459
1630937437487,-0.821182,0.337269,-0.447008
1630937437497,-0.820145,0.337391,-0.447496
1630937437506,-0.820999,0.336903,-0.447008
1630937437516,-0.820206,0.335195,-0.447008
1630937437525,-0.820328,0.335744,-0.446032
1630937437535,-0.82106,0.336293,-0.446459
1630937437545,-0.820816,0.33672,-0.446886
1630937437554,-0.82167,0.337513,-0.447984
1630937437564,-0.821365,0.337147,-0.44682499999999997
1630937437573,-0.820023,0.335256,-0.447252
1630937437583,-0.820328,0.336476,-0.447008
1630937437593,-0.820084,0.335988,-0.44712999999999997
1630937437602,-0.820023,0.336415,-0.448167
1630937437612,-0.820633,0.335988,-0.448167
1630937437621,-0.819901,0.335988,-0.447496
1630937437631,-0.819474,0.336049,-0.447862
1630937437641,-0.818376,0.33611,-0.447252
1630937437650,-0.819291,0.334463,-0.447557
1630937437660,-0.819962,0.334646,-0.447679
1630937437669,-0.818437,0.334768,-0.447496
1630937437679,-0.819535,0.335012,-0.447374
1630937437689,-0.819169,0.335073,-0.446764
1630937437698,-0.819535,0.33427999999999997,-0.446093
1630937437708,-0.819901,0.334341,-0.445849
1630937437717,-0.818315,0.334097,-0.44591
1630937437727,-0.820145,0.33488999999999997,-0.445849
1630937437737,-0.820328,0.334219,-0.446337
1630937437746,-0.819962,0.335134,-0.445849
1630937437756,-0.820328,0.335012,-0.445788
1630937437765,-0.821121,0.335622,-0.44712999999999997
1630937437775,-0.821182,0.334402,-0.446581
1630937437785,-0.822341,0.334097,-0.446764
1630937437794,-0.822036,0.334158,-0.446581
1630937437804,-0.822707,0.33336499999999997,-0.44682499999999997
1630937437813,-0.822829,0.33366999999999997,-0.446032
1630937437823,-0.822829,0.333914,-0.446886
1630937437833,-0.8235,0.334402,-0.445422
1630937437842,-0.822829,0.333487,-0.446215
1630937437852,-0.82228,0.33305999999999997,-0.445483
1630937437861,-0.822646,0.333304,-0.444873
1630937437871,-0.822646,0.333487,-0.44469
1630937437881,-0.8224629999999999,0.333914,-0.444873
1630937437890,-0.822341,0.333853,-0.445117
1630937437900,-0.8221579999999999,0.334646,-0.445422
1630937437909,-0.82045,0.330864,-0.44456799999999996
1630937437919,-0.822036,0.331901,-0.4453
1630937437929,-0.823317,0.332694,-0.446276
1630937437938,-0.821426,0.333853,-0.447008
1630937437948,-0.822524,0.33366999999999997,-0.44712999999999997
1630937437957,-0.822707,0.334097,-0.446581
1630937437967,-0.821548,0.33305999999999997,-0.446398
1630937437977,-0.821426,0.331352,-0.444446
1630937437986,-0.821914,0.33122999999999997,-0.445056
1630937437996,-0.821792,0.332206,-0.446459
1630937438005,-0.82167,0.330254,-0.444019
1630937438015,-0.821548,0.329034,-0.441335
1630937438025,-0.822036,0.331108,-0.44273799999999996
1630937438034,-0.8221579999999999,0.334646,-0.444446
1630937438044,-0.824476,0.337574,-0.446764
1630937438053,-0.825391,0.339465,-0.448289
1630937438063,-0.826916,0.339831,-0.448716
1630937438073,-0.826001,0.337696,-0.44682499999999997
1630937438082,-0.82594,0.3355,-0.446093
1630937438092,-0.824049,0.333304,-0.444446
1630937438101,-0.823256,0.331657,-0.444446
1630937438111,-0.821243,0.331718,-0.444751
1630937438121,-0.820694,0.331901,-0.443409
1630937438130,-0.819718,0.332938,-0.443714
1630937438140,-0.81984,0.334463,-0.44334799999999996
1630937438149,-0.819474,0.334402,-0.44426299999999996
1630937438159,-0.819413,0.335683,-0.445483
1630937438169,-0.819901,0.334829,-0.445178
1630937438178,-0.819474,0.333853,-0.445422
1630937438188,-0.819596,0.33336499999999997,-0.446154
1630937438197,-0.81984,0.332938,-0.445483
1630937438207,-0.81984,0.333792,-0.445544
1630937438217,-0.819657,0.33336499999999997,-0.44652
1630937438226,-0.820633,0.334097,-0.445544
1630937438236,-0.821121,0.334402,-0.445605
1630937438245,-0.821365,0.334951,-0.446215
1630937438255,-0.820328,0.334707,-0.445727
1630937438265,-0.821975,0.33397499999999997,-0.446581
1630937438274,-0.822341,0.33305999999999997,-0.446398
1630937438284,-0.823134,0.334158,-0.445361
1630937438293,-0.82289,0.335988,-0.446459
1630937438303,-0.82167,0.334341,-0.44426299999999996
1630937438313,-0.821975,0.335134,-0.442677
1630937438322,-0.82106,0.335866,-0.44212799999999997
1630937438332,-0.821975,0.335988,-0.442616
1630937438341,-0.823256,0.337574,-0.443592
1630937438351,-0.823012,0.337208,-0.443897
1630937438361,-0.82289,0.336293,-0.443836
1630937438370,-0.822646,0.336476,-0.442921
1630937438380,-0.82289,0.335561,-0.44286
1630937438389,-0.821975,0.334524,-0.443226
1630937438399,-0.8221579999999999,0.334158,-0.443531
1630937438409,-0.821914,0.334158,-0.44334799999999996
1630937438418,-0.822646,0.33366999999999997,-0.443104
1630937438428,-0.821853,0.33305999999999997,-0.443775
1630937438437,-0.82106,0.333609,-0.444141
1630937438447,-0.823439,0.333914,-0.445117
1630937438457,-0.824354,0.334158,-0.445605
1630937438466,-0.823134,0.335073,-0.44591
1630937438476,-0.8235,0.335317,-0.446764
1630937438485,-0.822341,0.334463,-0.446032
1630937438495,-0.822707,0.333792,-0.444873
1630937438505,-0.8224629999999999,0.333731,-0.445056
1630937438514,-0.82228,0.334707,-0.444934
1630937438524,-0.823012,0.334158,-0.444629
1630937438533,-0.821975,0.335134,-0.44408
1630937438543,-0.822524,0.33488999999999997,-0.445117
1630937438553,-0.820755,0.334036,-0.444141
1630937438562,-0.821731,0.334036,-0.44426299999999996
1630937438572,-0.822402,0.333914,-0.444873
1630937438581,-0.821121,0.333182,-0.445727
1630937438591,-0.821365,0.333609,-0.445544
1630937438601,-0.821548,0.333731,-0.445056
1630937438610,-0.820267,0.333121,-0.444995
1630937438620,-0.81984,0.333487,-0.444934
1630937438629,-0.820328,0.333182,-0.444934
1630937438639,-0.82106,0.333243,-0.445178
1630937438649,-0.821121,0.333426,-0.444507
1630937438658,-0.820816,0.333304,-0.444812
1630937438668,-0.820938,0.332938,-0.445178
1630937438677,-0.822219,0.333914,-0.444934
1630937438687,-0.822036,0.333792,-0.444812
1630937438697,-0.823561,0.334097,-0.444507
1630937438706,-0.821792,0.334036,-0.443165
1630937438716,-0.824049,0.334341,-0.443531
1630937438725,-0.822829,0.334646,-0.44304299999999996
1630937438735,-0.823134,0.334646,-0.444446
1630937438745,-0.8230729999999999,0.334097,-0.44365299999999996
1630937438754,-0.822524,0.333792,-0.443897
1630937438764,-0.824354,0.334524,-0.443897
1630937438773,-0.823805,0.333792,-0.444751
1630937438783,-0.823134,0.333792,-0.445422
1630937438793,-0.823561,0.333853,-0.445178
1630937438802,-0.823622,0.334646,-0.445056
1630937438812,-0.823012,0.333548,-0.44456799999999996
1630937438821,-0.822402,0.333243,-0.445178
1630937438831,-0.823256,0.333487,-0.444873
1630937438841,-0.823866,0.332511,-0.443836
1630937438850,-0.823439,0.333731,-0.444385
1630937438860,-0.8227679999999999,0.333914,-0.444385
1630937438869,-0.821548,0.333121,-0.444629
1630937438879,-0.821609,0.33488999999999997,-0.443775
1630937438889,-0.821731,0.334829,-0.44395799999999996
1630937438898,-0.820999,0.332938,-0.442799
1630937438908,-0.821304,0.333182,-0.442067
1630937438917,-0.82228,0.334219,-0.44395799999999996
1630937438927,-0.822097,0.334707,-0.444141
1630937438937,-0.822219,0.335317,-0.445361
1630937438946,-0.822524,0.33488999999999997,-0.444446
1630937438956,-0.82289,0.335927,-0.44334799999999996
1630937438965,-0.82106,0.334036,-0.44286
1630937438975,-0.8224629999999999,0.333182,-0.441945
1630937438985,-0.8230729999999999,0.333121,-0.44347
1630937438994,-0.821243,0.333914,-0.443592
1630937439004,-0.820816,0.330803,-0.440725
1630937439013,-0.821182,0.330681,-0.439871
1630937439023,-0.823439,0.333121,-0.440786
1630937439033,-0.823622,0.337818,-0.443836
1630937439042,-0.82594,0.340258,-0.444934
1630937439052,-0.827587,0.340075,-0.446215
1630937439061,-0.827282,0.339099,-0.446154
1630937439071,-0.825696,0.337391,-0.443714
1630937439081,-0.826062,0.33397499999999997,-0.442067
1630937439090,-0.823866,0.332877,-0.442372
1630937439100,-0.823012,0.332206,-0.44182299999999997
1630937439109,-0.821792,0.332633,-0.442982
1630937439119,-0.820938,0.332816,-0.44273799999999996
1630937439129,-0.820816,0.333792,-0.442494
1630937439138,-0.819901,0.334402,-0.442555
1630937439148,-0.819413,0.334402,-0.44304299999999996
1630937439157,-0.819474,0.333914,-0.443592
1630937439167,-0.819413,0.334158,-0.444202
1630937439177,-0.820694,0.332816,-0.4453
1630937439186,-0.820511,0.332999,-0.444751
1630937439196,-0.821121,0.330803,-0.445239
1630937439205,-0.821182,0.331474,-0.44652
1630937439215,-0.820999,0.331779,-0.445361
1630937439225,-0.821731,0.33336499999999997,-0.445605
1630937439234,-0.822402,0.332572,-0.446032
1630937439244,-0.822585,0.333487,-0.445422
1630937439253,-0.823317,0.333304,-0.446276
1630937439263,-0.823866,0.333182,-0.445727
1630937439273,-0.824354,0.332877,-0.446215
1630937439282,-0.825696,0.334097,-0.445483
1630937439292,-0.823866,0.334036,-0.445117
1630937439301,-0.823927,0.332023,-0.44225
1630937439311,-0.822829,0.333609,-0.44164
1630937439321,-0.8242929999999999,0.335317,-0.44243299999999997
1630937439330,-0.824049,0.335317,-0.44164
1630937439340,-0.823866,0.336781,-0.442799
1630937439349,-0.82411,0.336476,-0.441762
1630937439359,-0.8236829999999999,0.334951,-0.442067
1630937439369,-0.82228,0.334646,-0.44164
1630937439378,-0.82228,0.33427999999999997,-0.441762
1630937439388,-0.823012,0.332389,-0.44164
1630937439397,-0.82289,0.331413,-0.441945
1630937439407,-0.823256,0.331474,-0.44286
1630937439417,-0.824476,0.332633,-0.44408
1630937439426,-0.824354,0.333121,-0.44456799999999996
1630937439436,-0.824842,0.334402,-0.444446
1630937439445,-0.823317,0.334829,-0.443531
1630937439455,-0.824537,0.336354,-0.441945
1630937439465,-0.823439,0.335744,-0.44273799999999996
1630937439474,-0.8236829999999999,0.336903,-0.443531
1630937439484,-0.8235,0.336598,-0.442799
1630937439493,-0.822646,0.33672,-0.44164
1630937439503,-0.822951,0.335134,-0.441396
1630937439513,-0.822646,0.335317,-0.44164
1630937439522,-0.822951,0.336354,-0.44243299999999997
1630937439532,-0.822707,0.336964,-0.44225
1630937439541,-0.822036,0.337147,-0.441762
1630937439551,-0.822036,0.336232,-0.441579
1630937439561,-0.821243,0.336903,-0.441152
1630937439570,-0.821304,0.336476,-0.442616
1630937439580,-0.821914,0.335744,-0.44212799999999997
1630937439589,-0.820694,0.336537,-0.442189
1630937439599,-0.821182,0.334951,-0.441945
1630937439609,-0.821426,0.334646,-0.442677
1630937439618,-0.821548,0.334951,-0.442189
1630937439628,-0.821182,0.334829,-0.443104
1630937439637,-0.82106,0.335561,-0.442189
1630937439647,-0.822036,0.335744,-0.442006
1630937439657,-0.822585,0.336598,-0.44103
1630937439666,-0.823134,0.336354,-0.44151799999999997
1630937439676,-0.8233779999999999,0.335988,-0.44090799999999997
1630937439685,-0.8235,0.336476,-0.441884
1630937439695,-0.823317,0.336476,-0.440481
1630937439705,-0.823195,0.3355,-0.44103
1630937439714,-0.822829,0.336232,-0.44103
1630937439724,-0.8233779999999999,0.336171,-0.440786
1630937439733,-0.8230729999999999,0.336049,-0.440054
1630937439743,-0.823866,0.335622,-0.440847
1630937439753,-0.8236829999999999,0.33611,-0.44121299999999997
1630937439762,-0.824049,0.335561,-0.441274
1630937439772,-0.824415,0.335439,-0.441274
1630937439781,-0.824964,0.335378,-0.44182299999999997
1630937439791,-0.824415,0.335683,-0.442982
1630937439801,-0.823805,0.335256,-0.442921
1630937439810,-0.824842,0.335256,-0.44182299999999997
1630937439820,-0.823805,0.334829,-0.44151799999999997
1630937439829,-0.824659,0.334829,-0.441091
1630937439839,-0.823866,0.335561,-0.441701
1630937439849,-0.8245979999999999,0.335988,-0.44090799999999997
1630937439858,-0.823805,0.335988,-0.441945
1630937439868,-0.8221579999999999,0.336476,-0.440481
1630937439877,-0.821914,0.336293,-0.441457
1630937439887,-0.823317,0.335317,-0.4392
1630937439897,-0.822341,0.334158,-0.439322
1630937439906,-0.822829,0.333304,-0.440054
1630937439916,-0.82167,0.332938,-0.440359
1630937439925,-0.823256,0.335073,-0.443714
1630937439935,-0.8235,0.336232,-0.443104
1630937439945,-0.824049,0.335378,-0.440847
1630937439954,-0.824964,0.335866,-0.44103
1630937439964,-0.823561,0.335988,-0.441945
1630937439973,-0.8239879999999999,0.334646,-0.43968799999999997
1630937439983,-0.823561,0.334829,-0.439749
1630937439993,-0.823012,0.334463,-0.439261
1630937440002,-0.822585,0.33244999999999997,-0.43676
1630937440012,-0.8227679999999999,0.335134,-0.438041
1630937440021,-0.822402,0.338306,-0.438712
1630937440031,-0.823439,0.33958699999999997,-0.439627
1630937440041,-0.82472,0.341783,-0.441396
1630937440050,-0.827587,0.341356,-0.44365299999999996
1630937440060,-0.8282579999999999,0.341356,-0.444934
1630937440069,-0.826855,0.338428,-0.443226
1630937440079,-0.826001,0.33488999999999997,-0.44225
1630937440089,-0.824537,0.33275499999999997,-0.441457
1630937440098,-0.822402,0.332267,-0.441152
1630937440108,-0.821243,0.33214499999999997,-0.440176
1630937440117,-0.820633,0.331962,-0.44121299999999997
1630937440127,-0.820206,0.33275499999999997,-0.441091
1630937440137,-0.820328,0.33305999999999997,-0.441335
1630937440146,-0.821792,0.334036,-0.442311
1630937440156,-0.822707,0.333731,-0.44365299999999996
1630937440165,-0.823256,0.334829,-0.44456799999999996
1630937440175,-0.8224629999999999,0.333914,-0.445971
1630937440185,-0.823134,0.333914,-0.446093
1630937440194,-0.8235,0.33244999999999997,-0.445056
1630937440204,-0.823317,0.33305999999999997,-0.44408
1630937440213,-0.823866,0.334341,-0.44347
1630937440223,-0.823805,0.334707,-0.44347
1630937440233,-0.82411,0.334768,-0.443165
1630937440242,-0.82411,0.334829,-0.442616
1630937440252,-0.824842,0.335805,-0.442616
1630937440261,-0.8252079999999999,0.335805,-0.441701
1630937440271,-0.824476,0.336537,-0.44286
1630937440281,-0.822951,0.336171,-0.444385
1630937440290,-0.822219,0.332816,-0.44164
1630937440300,-0.822951,0.335439,-0.439139
1630937440309,-0.82289,0.337208,-0.440664
1630937440319,-0.82289,0.339099,-0.440481
1630937440329,-0.823744,0.340075,-0.44121299999999997
1630937440338,-0.823012,0.338916,-0.440969
1630937440348,-0.82228,0.335988,-0.440115
1630937440357,-0.82106,0.334341,-0.438285
1630937440367,-0.821548,0.332694,-0.438346
1630937440377,-0.821548,0.332938,-0.440054
1630937440386,-0.821304,0.333914,-0.441152
1630937440396,-0.821975,0.334219,-0.442006
1630937440405,-0.822341,0.335317,-0.441701
1630937440415,-0.823195,0.335195,-0.442189
1630937440425,-0.822585,0.33458499999999997,-0.440481
1630937440434,-0.822402,0.335012,-0.441274
1630937440444,-0.8221579999999999,0.334463,-0.44151799999999997
1630937440453,-0.8230729999999999,0.33488999999999997,-0.442677
1630937440463,-0.8227679999999999,0.334524,-0.444141
1630937440473,-0.822707,0.333304,-0.444385
1630937440482,-0.82289,0.333487,-0.44395799999999996
1630937440492,-0.8235,0.333243,-0.444446
1630937440501,-0.824354,0.33275499999999997,-0.444202
1630937440511,-0.823866,0.33305999999999997,-0.443897
1630937440521,-0.8239879999999999,0.333609,-0.44469
1630937440530,-0.82411,0.333792,-0.444507
1630937440540,-0.824476,0.33488999999999997,-0.444202
1630937440549,-0.823866,0.334463,-0.443531
1630937440559,-0.82411,0.334646,-0.443165
1630937440569,-0.824232,0.334646,-0.443897
1630937440578,-0.823927,0.333914,-0.443226
1630937440588,-0.823805,0.333548,-0.44334799999999996
1630937440597,-0.824049,0.33427999999999997,-0.44212799999999997
1630937440607,-0.823561,0.333731,-0.440481
1630937440617,-0.8236829999999999,0.334524,-0.439749
1630937440626,-0.823012,0.33336499999999997,-0.44029799999999997
1630937440636,-0.82411,0.334097,-0.44060299999999997
1630937440645,-0.8239879999999999,0.33336499999999997,-0.439932
1630937440655,-0.824171,0.33427999999999997,-0.438834
1630937440665,-0.824964,0.334524,-0.43816299999999997
1630937440674,-0.824537,0.33458499999999997,-0.437614
1630937440684,-0.825086,0.33611,-0.43816299999999997
1630937440693,-0.82472,0.335683,-0.437431
1630937440703,-0.824781,0.33611,-0.435967
1630937440713,-0.824964,0.335561,-0.435052
1630937440722,-0.826062,0.335439,-0.434442
1630937440732,-0.825635,0.336171,-0.435296
1630937440741,-0.82594,0.336659,-0.43493
1630937440751,-0.826001,0.336476,-0.435784
1630937440761,-0.8264279999999999,0.335988,-0.435479
1630937440770,-0.826611,0.336232,-0.435235
1630937440780,-0.826794,0.335317,-0.43615
1630937440789,-0.827099,0.336354,-0.436272
1630937440799,-0.826611,0.336293,-0.435906
1630937440809,-0.825452,0.33672,-0.435967
1630937440818,-0.8258179999999999,0.335927,-0.43615
1630937440828,-0.826306,0.334402,-0.434869
1630937440837,-0.824964,0.332572,-0.43554
1630937440847,-0.825574,0.331718,-0.43615
1630937440857,-0.827465,0.333182,-0.437614
1630937440866,-0.826916,0.334768,-0.43846799999999997
1630937440876,-0.827831,0.335317,-0.439017
1630937440885,-0.827587,0.334707,-0.437797
1630937440895,-0.827892,0.335561,-0.438895
1630937440905,-0.827099,0.334524,-0.438956
1630937440914,-0.826672,0.33275499999999997,-0.437492
1630937440924,-0.826611,0.333792,-0.438224
1630937440933,-0.8270379999999999,0.331596,-0.436089
1630937440943,-0.825757,0.330803,-0.433893
1630937440953,-0.8258179999999999,0.332328,-0.433466
1630937440962,-0.826611,0.335561,-0.434259
1630937440972,-0.82594,0.338062,-0.435601
1630937440981,-0.827526,0.339526,-0.437492
1630937440991,-0.829844,0.340746,-0.43846799999999997
1630937441001,-0.829234,0.339221,-0.440542
1630937441010,-0.828929,0.335683,-0.439444
1630937441020,-0.828014,0.331962,-0.43816299999999997
1630937441029,-0.827709,0.330803,-0.437614
1630937441039,-0.825574,0.330071,-0.437065
1630937441049,-0.825574,0.331047,-0.43724799999999997
1630937441058,-0.82472,0.33153499999999997,-0.435784
1630937441068,-0.823866,0.333304,-0.434991
1630937441077,-0.824781,0.334097,-0.434381
1630937441087,-0.825574,0.3355,-0.435296
1630937441097,-0.8258179999999999,0.335866,-0.435357
1630937441106,-0.825086,0.336781,-0.435845
1630937441116,-0.825574,0.335378,-0.43694299999999997
1630937441125,-0.826062,0.33397499999999997,-0.437187
1630937441135,-0.825879,0.333731,-0.436516
1630937441145,-0.825696,0.333731,-0.435845
1630937441154,-0.826489,0.33427999999999997,-0.435662
1630937441164,-0.826245,0.334951,-0.43602799999999997
1630937441173,-0.826306,0.334646,-0.436089
1630937441183,-0.826794,0.335256,-0.435235
1630937441193,-0.825757,0.334524,-0.434442
1630937441202,-0.82655,0.335073,-0.435601
1630937441212,-0.828014,0.335134,-0.435967
1630937441221,-0.8273429999999999,0.336842,-0.43724799999999997
1630937441231,-0.825696,0.334951,-0.437309
1630937441241,-0.826489,0.33366999999999997,-0.432856
1630937441250,-0.826184,0.335134,-0.433832
1630937441260,-0.826306,0.335683,-0.43554
1630937441269,-0.82716,0.336598,-0.43493
1630937441279,-0.828136,0.33794,-0.436882
1630937441289,-0.827892,0.337147,-0.436821
1630937441298,-0.82777,0.336171,-0.436394
1630937441308,-0.82716,0.33458499999999997,-0.434381
1630937441317,-0.825757,0.333792,-0.435052
1630937441327,-0.826367,0.33244999999999997,-0.43511299999999997
1630937441337,-0.825574,0.332999,-0.43615
1630937441346,-0.825452,0.333426,-0.435967
1630937441356,-0.8267329999999999,0.33305999999999997,-0.43602799999999997
1630937441365,-0.8267329999999999,0.33488999999999997,-0.43615
1630937441375,-0.828075,0.335988,-0.434381
1630937441385,-0.828197,0.336476,-0.434808
1630937441394,-0.828014,0.336232,-0.43554
1630937441404,-0.8282579999999999,0.335866,-0.435784
1630937441413,-0.8270379999999999,0.33672,-0.436272
1630937441423,-0.82716,0.335744,-0.436272
1630937441433,-0.8264279999999999,0.335195,-0.436089
1630937441442,-0.827526,0.335073,-0.43541799999999997
1630937441452,-0.826794,0.335561,-0.43615
1630937441461,-0.826977,0.335561,-0.435357
1630937441471,-0.8267329999999999,0.336659,-0.435479
1630937441481,-0.8258179999999999,0.335134,-0.435479
1630937441490,-0.825452,0.335073,-0.43663799999999997
1630937441500,-0.825147,0.334768,-0.43602799999999997
1630937441509,-0.825086,0.33458499999999997,-0.43676
1630937441519,-0.825391,0.334402,-0.437004
1630937441529,-0.824781,0.334036,-0.43633299999999997
1630937441538,-0.8245979999999999,0.334036,-0.435784
1630937441548,-0.825391,0.334158,-0.43633299999999997
1630937441557,-0.8252079999999999,0.334341,-0.436516
1630937441567,-0.825635,0.334036,-0.436455
1630937441577,-0.82533,0.333853,-0.43737
1630937441586,-0.8267329999999999,0.333914,-0.436455
1630937441596,-0.825269,0.332633,-0.43633299999999997
1630937441605,-0.826489,0.333731,-0.435906
1630937441615,-0.82594,0.333426,-0.436211
1630937441625,-0.82716,0.334158,-0.435479
1630937441634,-0.826977,0.333304,-0.43541799999999997
1630937441644,-0.826672,0.334402,-0.435174
1630937441653,-0.826916,0.334341,-0.435052
1630937441663,-0.82716,0.334097,-0.43572299999999997
1630937441673,-0.82838,0.334402,-0.436272
1630937441682,-0.828136,0.333914,-0.436882
1630937441692,-0.827831,0.333487,-0.43676
1630937441701,-0.829234,0.333548,-0.43676
1630937441711,-0.828014,0.333487,-0.436272
1630937441721,-0.827892,0.333487,-0.436211
1630937441730,-0.82838,0.333182,-0.43663799999999997
1630937441740,-0.827221,0.333853,-0.435357
1630937441749,-0.827282,0.33305999999999997,-0.43554
1630937441759,-0.8288679999999999,0.333182,-0.435174
1630937441769,-0.82777,0.33336499999999997,-0.43602799999999997
1630937441778,-0.827587,0.33397499999999997,-0.435967
1630937441788,-0.8273429999999999,0.334341,-0.435601
1630937441797,-0.827282,0.334158,-0.434808
1630937441807,-0.827221,0.33366999999999997,-0.43602799999999997
1630937441817,-0.826306,0.333243,-0.434869
1630937441826,-0.826184,0.332328,-0.435906
1630937441836,-0.826306,0.333548,-0.435845
1630937441845,-0.827099,0.333853,-0.43676
1630937441855,-0.827587,0.334524,-0.437126
1630937441865,-0.827831,0.335012,-0.43615
1630937441874,-0.826367,0.334951,-0.435662
1630937441884,-0.825269,0.333426,-0.433222
1630937441893,-0.82655,0.33153499999999997,-0.432917
1630937441903,-0.826916,0.333243,-0.43572299999999997
1630937441913,-0.825635,0.332816,-0.43493
1630937441922,-0.826245,0.330437,-0.433893
1630937441932,-0.826489,0.33061999999999997,-0.431697
1630937441941,-0.827282,0.333182,-0.43249
1630937441951,-0.828685,0.337879,-0.43615
1630937441961,-0.8297829999999999,0.338855,-0.437431
1630937441970,-0.829722,0.338672,-0.438895
1630937441980,-0.829722,0.337208,-0.43798
1630937441989,-0.831064,0.335073,-0.435601
1630937441999,-0.829966,0.332999,-0.434869
1630937442009,-0.829051,0.330986,-0.43511299999999997
1630937442018,-0.8276479999999999,0.330986,-0.435906
1630937442028,-0.826245,0.33061999999999997,-0.43572299999999997
1630937442037,-0.826977,0.331352,-0.435479
1630937442047,-0.826245,0.331596,-0.435601
1630937442057,-0.825147,0.33305999999999997,-0.435296
1630937442066,-0.825147,0.333487,-0.436211
1630937442076,-0.825574,0.334158,-0.43755299999999997
1630937442085,-0.8255129999999999,0.33336499999999997,-0.43785799999999997
1630937442095,-0.824964,0.332633,-0.43816299999999997
1630937442105,-0.825025,0.331474,-0.437797
1630937442114,-0.8258179999999999,0.329827,-0.437797
1630937442124,-0.82594,0.330254,-0.437492
1630937442133,-0.827099,0.33061999999999997,-0.437065
1630937442143,-0.826062,0.33122999999999997,-0.43663799999999997
1630937442153,-0.827465,0.33244999999999997,-0.43737
1630937442162,-0.826306,0.332694,-0.437065
1630937442172,-0.827282,0.332938,-0.43663799999999997
1630937442181,-0.827892,0.332938,-0.436577
1630937442191,-0.828075,0.333487,-0.43676
1630937442201,-0.828502,0.33336499999999997,-0.43737
1630937442210,-0.826916,0.33427999999999997,-0.436272
1630937442220,-0.826916,0.33153499999999997,-0.434442
1630937442229,-0.826367,0.333609,-0.43371
1630937442239,-0.827465,0.334646,-0.433222
1630937442249,-0.827892,0.334463,-0.43432
1630937442258,-0.82777,0.335683,-0.43541799999999997
1630937442268,-0.827526,0.336598,-0.435052
1630937442277,-0.827831,0.335683,-0.433466
1630937442287,-0.827587,0.334097,-0.433161
1630937442297,-0.8282579999999999,0.333731,-0.432734
1630937442306,-0.827221,0.333121,-0.434076
1630937442316,-0.826855,0.332206,-0.433893
1630937442325,-0.8264279999999999,0.331474,-0.434747
1630937442335,-0.828136,0.331169,-0.434076
1630937442345,-0.827465,0.332389,-0.434747
1630937442354,-0.828136,0.332816,-0.434137
1630937442364,-0.828685,0.333914,-0.435662
1630937442373,-0.8294779999999999,0.334646,-0.436211
1630937442383,-0.829234,0.334707,-0.436516
1630937442393,-0.828624,0.33427999999999997,-0.436882
1630937442402,-0.8288679999999999,0.33366999999999997,-0.436394
1630937442412,-0.8276479999999999,0.332633,-0.436089
1630937442421,-0.828014,0.33122999999999997,-0.435235
1630937442431,-0.82838,0.33275499999999997,-0.435296
1630937442441,-0.828014,0.332938,-0.43541799999999997
1630937442450,-0.828685,0.333121,-0.434808
1630937442460,-0.828746,0.333121,-0.435662
1630937442469,-0.82838,0.334158,-0.43615
1630937442479,-0.828136,0.332999,-0.436272
1630937442489,-0.8279529999999999,0.332633,-0.43554
1630937442498,-0.828075,0.332328,-0.435845
1630937442508,-0.827709,0.331779,-0.434747
1630937442517,-0.8273429999999999,0.33214499999999997,-0.434625
1630937442527,-0.826916,0.332084,-0.434686
1630937442537,-0.826184,0.332572,-0.433649
1630937442546,-0.826245,0.332389,-0.434259
1630937442556,-0.82594,0.332633,-0.434747
1630937442565,-0.826184,0.33275499999999997,-0.434198
1630937442575,-0.825391,0.332999,-0.435052
1630937442585,-0.8261229999999999,0.332572,-0.434808
1630937442594,-0.8267329999999999,0.331352,-0.43572299999999997
1630937442604,-0.82716,0.332206,-0.436089
1630937442613,-0.826672,0.332938,-0.436272
1630937442623,-0.827587,0.333121,-0.435967
1630937442633,-0.827892,0.332572,-0.43541799999999997
1630937442642,-0.827587,0.333731,-0.435784
1630937442652,-0.827404,0.334402,-0.435296
1630937442661,-0.8282579999999999,0.333243,-0.435845
1630937442671,-0.828075,0.333182,-0.436272
1630937442681,-0.828014,0.332694,-0.437614
1630937442690,-0.827587,0.332511,-0.437309
1630937442700,-0.826916,0.332328,-0.43798
1630937442709,-0.827221,0.332633,-0.437919
1630937442719,-0.827709,0.332084,-0.437065
1630937442729,-0.828014,0.332633,-0.43737
1630937442738,-0.826916,0.333182,-0.43737
1630937442748,-0.8264279999999999,0.332938,-0.436516
1630937442757,-0.826367,0.333243,-0.43737
1630937442767,-0.8264279999999999,0.33305999999999997,-0.438041
1630937442777,-0.825757,0.332511,-0.436699
1630937442786,-0.82594,0.332999,-0.435235
1630937442796,-0.824964,0.333487,-0.435967
1630937442805,-0.8258179999999999,0.332206,-0.436089
1630937442815,-0.8264279999999999,0.33183999999999997,-0.43554
1630937442825,-0.826367,0.332938,-0.43554
1630937442834,-0.8267329999999999,0.333304,-0.437614
1630937442844,-0.827587,0.333609,-0.439017
1630937442853,-0.826245,0.333792,-0.43785799999999997
1630937442863,-0.82716,0.333182,-0.437431
1630937442873,-0.826611,0.333182,-0.43755299999999997
1630937442882,-0.8264279999999999,0.331291,-0.434808
1630937442892,-0.8276479999999999,0.331352,-0.43694299999999997
1630937442901,-0.826245,0.332511,-0.436577
1630937442911,-0.826062,0.330071,-0.43432
1630937442921,-0.8264279999999999,0.329278,-0.432734
1630937442930,-0.8267329999999999,0.33153499999999997,-0.433832
1630937442940,-0.828136,0.335378,-0.436821
1630937442949,-0.830454,0.337757,-0.437736
1630937442959,-0.831064,0.33855,-0.43755299999999997
1630937442969,-0.832284,0.337635,-0.43755299999999997
1630937442978,-0.8313079999999999,0.335378,-0.43615
1630937442988,-0.829722,0.331779,-0.434137
1630937442997,-0.829112,0.330254,-0.43493
1630937443007,-0.828807,0.329339,-0.434808
1630937443017,-0.827831,0.32939999999999997,-0.43572299999999997
1630937443026,-0.8270379999999999,0.330742,-0.435296
1630937443036,-0.825635,0.33122999999999997,-0.434442
1630937443045,-0.8252079999999999,0.33244999999999997,-0.434991
1630937443055,-0.825635,0.331718,-0.436089
1630937443065,-0.82533,0.330437,-0.436211
1630937443074,-0.825696,0.331047,-0.437126
1630937443084,-0.825696,0.330132,-0.438346
1630937443093,-0.826245,0.329583,-0.438712
1630937443103,-0.8267329999999999,0.328851,-0.438956
1630937443113,-0.827526,0.32939999999999997,-0.43859
1630937443122,-0.828014,0.32970499999999997,-0.43907799999999997
1630937443132,-0.828929,0.329156,-0.438956
1630937443141,-0.828807,0.329278,-0.439322
1630937443151,-0.8300879999999999,0.330864,-0.438285
1630937443161,-0.830637,0.330742,-0.438712
1630937443170,-0.828807,0.331352,-0.43907799999999997
1630937443180,-0.8300879999999999,0.332328,-0.437126
1630937443189,-0.830515,0.332694,-0.438102
1630937443199,-0.8288679999999999,0.334402,-0.437309
1630937443209,-0.827221,0.332084,-0.435296
1630937443218,-0.827099,0.332938,-0.433344
1630937443228,-0.8282579999999999,0.334524,-0.433954
1630937443237,-0.82777,0.334219,-0.433161
1630937443247,-0.82594,0.335622,-0.433832
1630937443257,-0.826367,0.33672,-0.434137
1630937443266,-0.826062,0.335744,-0.434198
1630937443276,-0.825452,0.335744,-0.43249
1630937443285,-0.8255129999999999,0.33397499999999997,-0.43249
1630937443295,-0.826367,0.333792,-0.43255099999999996
1630937443305,-0.825269,0.334402,-0.43432
1630937443314,-0.82594,0.333121,-0.435479
1630937443324,-0.825269,0.332999,-0.43615
1630937443333,-0.825696,0.333792,-0.43602799999999997
1630937443343,-0.826672,0.334951,-0.43602799999999997
1630937443353,-0.827221,0.33611,-0.436455
1630937443362,-0.827099,0.336171,-0.436211
1630937443372,-0.827526,0.336354,-0.43663799999999997
1630937443381,-0.8270379999999999,0.337391,-0.43554
1630937443391,-0.826977,0.337452,-0.435784
1630937443401,-0.825574,0.33611,-0.43676
1630937443410,-0.826184,0.33672,-0.43694299999999997
1630937443420,-0.825757,0.335683,-0.43724799999999997
1630937443429,-0.826062,0.335744,-0.43663799999999997
1630937443439,-0.8258179999999999,0.335683,-0.43615
1630937443449,-0.825635,0.336476,-0.437065
1630937443458,-0.825269,0.335683,-0.43663799999999997
1630937443468,-0.8249029999999999,0.336171,-0.438102
1630937443477,-0.8242929999999999,0.335744,-0.436882
1630937443487,-0.8249029999999999,0.335378,-0.437675
1630937443497,-0.825086,0.335744,-0.43798
1630937443506,-0.824171,0.334951,-0.437431
1630937443516,-0.824537,0.33488999999999997,-0.437919
1630937443525,-0.824171,0.334524,-0.437919
1630937443535,-0.824842,0.333121,-0.436577
1630937443545,-0.8242929999999999,0.33366999999999997,-0.436882
1630937443554,-0.825452,0.333304,-0.437492
1630937443564,-0.825696,0.33336499999999997,-0.436455
1630937443573,-0.8261229999999999,0.334646,-0.43663799999999997
1630937443583,-0.825696,0.334402,-0.43676
1630937443593,-0.825635,0.335195,-0.435662
1630937443602,-0.826855,0.335256,-0.435174
1630937443612,-0.8267329999999999,0.334097,-0.435235
1630937443621,-0.826611,0.334768,-0.435296
1630937443631,-0.827282,0.334646,-0.435357
1630937443641,-0.827587,0.33366999999999997,-0.434869
1630937443650,-0.826977,0.334829,-0.435296
1630937443660,-0.828014,0.334768,-0.435845
1630937443669,-0.826855,0.33427999999999997,-0.43541799999999997
1630937443679,-0.827282,0.334036,-0.436272
1630937443689,-0.82777,0.333426,-0.435052
1630937443698,-0.828075,0.33427999999999997,-0.43676
1630937443708,-0.826916,0.334097,-0.437065
1630937443717,-0.828685,0.33336499999999997,-0.435235
1630937443727,-0.8288679999999999,0.333853,-0.435601
1630937443737,-0.828502,0.33427999999999997,-0.437065
1630937443746,-0.827892,0.334158,-0.436394
1630937443756,-0.827587,0.33488999999999997,-0.43541799999999997
1630937443765,-0.8264279999999999,0.333792,-0.435845
1630937443775,-0.826672,0.332206,-0.43511299999999997
1630937443785,-0.826672,0.331718,-0.435662
1630937443794,-0.826245,0.332816,-0.43602799999999997
1630937443804,-0.826916,0.331779,-0.437431
1630937443813,-0.82716,0.332206,-0.437614
1630937443823,-0.827526,0.334158,-0.439017
1630937443833,-0.8282579999999999,0.33397499999999997,-0.436211
1630937443842,-0.829356,0.33427999999999997,-0.435052
1630937443852,-0.827282,0.335561,-0.437675
1630937443861,-0.8270379999999999,0.333182,-0.43633299999999997
1630937443871,-0.827526,0.333609,-0.43511299999999997
1630937443881,-0.826306,0.332633,-0.433222
1630937443890,-0.8258179999999999,0.331596,-0.432002
1630937443900,-0.826306,0.334707,-0.432002
1630937443909,-0.8264279999999999,0.336842,-0.433527
1630937443919,-0.825696,0.337696,-0.434259
1630937443929,-0.827465,0.339465,-0.435601
1630937443938,-0.8294779999999999,0.341783,-0.438346
1630937443948,-0.8303929999999999,0.34202699999999997,-0.440969
1630937443957,-0.8306979999999999,0.338428,-0.43981
1630937443967,-0.829234,0.334341,-0.43737
1630937443977,-0.82777,0.331413,-0.434686
1630937443986,-0.825269,0.330986,-0.434808
1630937443996,-0.8242929999999999,0.332328,-0.434991
1630937444005,-0.824415,0.334463,-0.434869
1630937444015,-0.824171,0.335134,-0.434564
1630937444025,-0.822829,0.335622,-0.43511299999999997
1630937444034,-0.8235,0.336842,-0.435296
1630937444044,-0.8236829999999999,0.336659,-0.437126
1630937444053,-0.823744,0.33611,-0.43755299999999997
1630937444063,-0.824842,0.335439,-0.436882
1630937444073,-0.824232,0.335012,-0.437431
1630937444082,-0.823866,0.335012,-0.43676
1630937444092,-0.824049,0.33427999999999997,-0.435235
1630937444101,-0.824781,0.335744,-0.436516
1630937444111,-0.825147,0.336964,-0.437004
1630937444121,-0.8261229999999999,0.336415,-0.43724799999999997
1630937444130,-0.826794,0.337635,-0.43737
1630937444140,-0.82594,0.336354,-0.437309
1630937444149,-0.8264279999999999,0.336903,-0.437675
1630937444159,-0.8276479999999999,0.336781,-0.436821
1630937444169,-0.826306,0.338489,-0.43846799999999997
1630937444178,-0.823866,0.335378,-0.436394
