timestamp,ax,ay,az
1630937999710,-0.560041,0.665693,-0.483242
1630937999720,-0.558394,0.667401,-0.482937
1630937999730,-0.558577,0.667706,-0.48287599999999997
1630937999739,-0.557357,0.670024,-0.48470599999999997
1630937999749,-0.557906,0.670024,-0.485499
1630937999758,-0.557479,0.669902,-0.485194
1630937999768,-0.557479,0.669414,-0.483425
1630937999778,-0.557296,0.6694749999999999,-0.483669
1630937999787,-0.556564,0.669292,-0.482998
1630937999797,-0.555283,0.6694749999999999,-0.483364
1630937999806,-0.556076,0.670268,-0.484218
1630937999816,-0.555832,0.671305,-0.48348599999999997
1630937999826,-0.555832,0.673196,-0.482632
1630937999835,-0.55632,0.672708,-0.481717
1630937999845,-0.557235,0.673806,-0.483425
1630937999854,-0.556808,0.675148,-0.48287599999999997
1630937999864,-0.557845,0.676429,-0.48556
1630937999874,-0.558394,0.677222,-0.487878
1630937999883,-0.558028,0.675758,-0.48806099999999997
1630937999893,-0.55876,0.672586,-0.491172
1630937999902,-0.558211,0.671366,-0.494222
1630937999912,-0.557235,0.670878,-0.49489299999999997
1630937999922,-0.557784,0.668804,-0.491965
1630937999931,-0.557845,0.667706,-0.485194
1630937999941,-0.558516,0.666791,-0.48409599999999997
1630937999950,-0.558455,0.667828,-0.484767
1630937999960,-0.557052,0.669048,-0.487878
1630937999970,-0.556076,0.668316,-0.49227
1630937999979,-0.556442,0.669353,-0.492758
1630937999989,-0.554978,0.6685599999999999,-0.493307
1630937999998,-0.555039,0.668072,-0.493368
1630937420088,-0.762622,0.209718,-0.592371
1630937420098,-0.761402,0.209108,-0.592005
1630937420107,-0.761768,0.206851,-0.597678
1630937420117,-0.762744,0.204777,-0.598288
1630937420127,-0.763903,0.20008,-0.602131
1630937420136,-0.762073,0.19519999999999998,-0.601582
1630937420146,-0.763293,0.19147899999999998,-0.595665
1630937420155,-0.764818,0.194224,-0.5924929999999999
1630937420165,-0.763659,0.198189,-0.593652
1630937420175,-0.763415,0.203618,-0.597251
1630937420184,-0.763293,0.206485,-0.598837
1630937420194,-0.762927,0.208376,-0.598959
1630937420203,-0.762073,0.210389,-0.599935
1630937420213,-0.7610359999999999,0.211731,-0.600484
1630937420223,-0.761829,0.21045,-0.598715
1630937420232,-0.761097,0.206363,-0.597922
1630937420242,-0.760365,0.201849,-0.597312
1630937420251,-0.758535,0.196176,-0.594201
1630937420261,-0.756644,0.190442,-0.589626
1630937420271,-0.754692,0.185379,-0.585356
1630937420280,-0.753289,0.18196299999999999,-0.583709
1630937420290,-0.75335,0.181048,-0.582123
1630937420299,-0.752862,0.180621,-0.583526
1630937420309,-0.754387,0.179096,-0.586515
1630937420319,-0.758169,0.179218,-0.588894
1630937420328,-0.756888,0.18178,-0.590114
1630937420338,-0.759755,0.185379,-0.590846
1630937420347,-0.759999,0.187026,-0.591822
1630937420357,-0.7604259999999999,0.187148,-0.594384
1630937420367,-0.7610359999999999,0.18842899999999999,-0.591944
1630937420376,-0.760182,0.185684,-0.5921879999999999
1630937420386,-0.759694,0.180621,-0.590785
1630937420395,-0.7616459999999999,0.179889,-0.587186
1630937420405,-0.764635,0.184586,-0.588162
1630937420415,-0.766099,0.191052,-0.5891379999999999
1630937420424,-0.768783,0.201178,-0.58987
1630937420434,-0.768356,0.21246299999999999,-0.59231
1630937420443,-0.76738,0.22356499999999999,-0.591212
1630937420453,-0.768722,0.23588699999999999,-0.590907
1630937420463,-0.769881,0.246501,-0.593042
1630937420472,-0.77104,0.2562,-0.595177
1630937420482,-0.772077,0.26474,-0.595177
1630937420491,-0.772138,0.271206,-0.5940179999999999
1630937420501,-0.771406,0.275842,-0.593896
1630937420511,-0.770552,0.277977,-0.594994
1630937420520,-0.7677459999999999,0.279441,-0.59292
1630937420530,-0.768051,0.2806,-0.592371
1630937420539,-0.767258,0.279624,-0.591395
1630937420549,-0.765794,0.279319,-0.5891379999999999
1630937420559,-0.765733,0.279014,-0.58682
1630937420568,-0.763293,0.27694,-0.5857829999999999
1630937420578,-0.76128,0.275232,-0.584624
1630937420587,-0.7592059999999999,0.27297499999999997,-0.582611
1630937420597,-0.755729,0.27083999999999997,-0.579927
1630937420607,-0.753777,0.26900999999999997,-0.578768
1630937420616,-0.7534109999999999,0.265716,-0.578768
1630937420626,-0.752374,0.261812,-0.578036
1630937420635,-0.7515809999999999,0.25864,-0.579561
1630937420645,-0.750239,0.255895,-0.578524
1630937420655,-0.750117,0.252601,-0.578158
1630937420664,-0.751032,0.249673,-0.579683
1630937420674,-0.750605,0.248636,-0.582123
1630937420683,-0.750422,0.24583,-0.58377
1630937420693,-0.749446,0.24265799999999998,-0.585417
1630937420703,-0.747433,0.23924199999999998,-0.58621
1630937420712,-0.747372,0.237595,-0.587552
1630937420722,-0.748653,0.23460599999999998,-0.587491
1630937420731,-0.74908,0.233569,-0.585539
1630937420741,-0.749934,0.23308099999999998,-0.582794
1630937420751,-0.750544,0.231678,-0.580842
1630937420760,-0.7512759999999999,0.230214,-0.581513
1630937420770,-0.752923,0.23064099999999998,-0.585356
1630937420779,-0.751764,0.232715,-0.5860879999999999
1630937420789,-0.752862,0.233203,-0.5879179999999999
1630937420799,-0.752862,0.232227,-0.587491
1630937420808,-0.754143,0.232288,-0.58743
1630937420818,-0.755058,0.232898,-0.590236
1630937420827,-0.756827,0.233203,-0.5912729999999999
1630937420837,-0.758962,0.233752,-0.592676
1630937420847,-0.762073,0.232349,-0.5934079999999999
1630937420856,-0.7637809999999999,0.232105,-0.593591
1630937420866,-0.763354,0.23155599999999998,-0.59231
1630937420875,-0.763903,0.231007,-0.590907
1630937420885,-0.763964,0.231068,-0.5891379999999999
1630937420895,-0.764025,0.228506,-0.5885279999999999
1630937420904,-0.763659,0.226676,-0.5873079999999999
1630937420914,-0.76311,0.22478499999999998,-0.5873079999999999
1630937420923,-0.760304,0.222467,-0.584075
1630937420933,-0.758352,0.22021,-0.580659
1630937420943,-0.755607,0.218502,-0.578097
1630937420952,-0.75518,0.217892,-0.576389
1630937420962,-0.7567659999999999,0.216977,-0.57828
1630937420971,-0.755424,0.218197,-0.580598
1630937420981,-0.756278,0.218807,-0.582855
1630937420991,-0.756522,0.218502,-0.583404
1630937421000,-0.758779,0.216916,-0.5842579999999999
1630937421010,-0.760304,0.21770899999999999,-0.584014
1630937421019,-0.7625609999999999,0.217282,-0.584197
1630937421029,-0.767258,0.217099,-0.587369
1630937421039,-0.76799,0.21899,-0.590602
1630937421048,-0.768783,0.22106399999999998,-0.590907
1630937421058,-0.772016,0.221796,-0.589931
1630937421067,-0.772443,0.22386999999999999,-0.589931
1630937421077,-0.774944,0.225212,-0.589992
1630937421087,-0.779214,0.226859,-0.591761
1630937421096,-0.782813,0.228079,-0.594689
1630937421106,-0.785802,0.228018,-0.596214
1630937421115,-0.787022,0.22722499999999998,-0.597922
1630937421125,-0.786778,0.226676,-0.597861
1630937421135,-0.7875099999999999,0.224846,-0.598349
1630937421144,-0.785558,0.22228399999999998,-0.595604
1630937421154,-0.7868999999999999,0.218746,-0.592432
1630937421163,-0.782386,0.21831899999999999,-0.591944
1630937421173,-0.777689,0.216611,-0.585966
1630937421183,-0.776591,0.216184,-0.581025
1630937421192,-0.7756149999999999,0.215757,-0.57767
1630937421202,-0.775737,0.216733,-0.573827
1630937421211,-0.777201,0.214476,-0.572485
1630937421221,-0.777994,0.21490299999999998,-0.5718139999999999
1630937421231,-0.779519,0.214964,-0.573217
1630937421240,-0.778177,0.213134,-0.5721189999999999
1630937421250,-0.776408,0.21045,-0.57035
1630937421259,-0.77409,0.207705,-0.5672389999999999
1630937421269,-0.770064,0.207339,-0.5663239999999999
1630937421279,-0.768295,0.20660699999999999,-0.5672389999999999
1630937421288,-0.764574,0.207644,-0.567483
1630937421298,-0.7665259999999999,0.207339,-0.568276
1630937421307,-0.767319,0.211121,-0.5727289999999999
1630937421317,-0.763842,0.217343,-0.572241
1630937421327,-0.763537,0.220332,-0.572668
1630937421336,-0.762683,0.222528,-0.573156
1630937421346,-0.760548,0.224358,-0.57035
1630937421355,-0.760853,0.22539499999999998,-0.567178
1630937421365,-0.763903,0.225883,-0.5672389999999999
1630937421375,-0.763537,0.22844499999999998,-0.5678489999999999
1630937421384,-0.762195,0.23064099999999998,-0.56974
1630937421394,-0.7637809999999999,0.229665,-0.572058
1630937421403,-0.764635,0.229909,-0.574742
1630937421413,-0.7634759999999999,0.229848,-0.577426
1630937421423,-0.7616459999999999,0.230153,-0.579744
1630937421432,-0.761158,0.229116,-0.582916
1630937421442,-0.759694,0.23033599999999999,-0.582611
1630937421451,-0.757315,0.230824,-0.58133
1630937421461,-0.754387,0.230092,-0.579561
1630937421471,-0.753472,0.22691999999999998,-0.579744
1630937421480,-0.7521909999999999,0.226859,-0.576755
1630937421490,-0.752008,0.22569999999999998,-0.573705
1630937421499,-0.752374,0.22417499999999999,-0.57035
1630937421509,-0.754265,0.22045399999999998,-0.571631
1630937421519,-0.7579859999999999,0.216428,-0.572241
1630937421528,-0.761707,0.212219,-0.577304
1630937421538,-0.764025,0.212402,-0.580598
1630937421547,-0.766282,0.212341,-0.583343
1630937421557,-0.769881,0.211975,-0.58804
1630937421567,-0.771894,0.211792,-0.593164
1630937421576,-0.773663,0.210328,-0.594445
1630937421586,-0.777811,0.207095,-0.593042
1630937421595,-0.780068,0.204655,-0.5927979999999999
1630937421605,-0.779153,0.200934,-0.5917
1630937421615,-0.779458,0.195566,-0.593042
1630937421624,-0.780068,0.192028,-0.596702
1630937421634,-0.779031,0.18781899999999999,-0.598593
1630937421643,-0.7768349999999999,0.18287799999999999,-0.596702
1630937421653,-0.7774449999999999,0.179218,-0.592859
1630937421663,-0.775249,0.176839,-0.590846
1630937421672,-0.774212,0.176229,-0.588406
1630937421682,-0.774212,0.174765,-0.586332
1630937421691,-0.774761,0.17324,-0.585051
1630937421701,-0.773968,0.17177599999999998,-0.5842579999999999
1630937421711,-0.773663,0.168848,-0.582977
1630937421720,-0.771955,0.164578,-0.5842579999999999
1630937421730,-0.768722,0.16165,-0.583892
1630937421739,-0.767319,0.157258,-0.5842579999999999
1630937421749,-0.7665259999999999,0.15298799999999999,-0.58255
1630937421759,-0.765184,0.150914,-0.581818
1630937421768,-0.763842,0.148535,-0.579195
1630937421778,-0.763354,0.144814,-0.580842
1630937421787,-0.764879,0.140117,-0.582977
1630937421797,-0.765733,0.13786,-0.582428
1630937421807,-0.767685,0.13511499999999999,-0.581391
1630937421816,-0.770369,0.13450499999999999,-0.584014
1630937421826,-0.770125,0.133285,-0.583038
1630937421835,-0.771833,0.130662,-0.582367
1630937421845,-0.775066,0.129076,-0.580842
1630937421855,-0.777506,0.128832,-0.581757
1630937421864,-0.779031,0.128527,-0.583648
1630937421874,-0.780739,0.127856,-0.586576
1630937421883,-0.782081,0.126148,-0.5882229999999999
1630937421893,-0.783301,0.125843,-0.588955
1630937421903,-0.786351,0.12383,-0.592676
1630937421912,-0.787266,0.12425699999999999,-0.5927979999999999
1630937421922,-0.784033,0.122183,-0.591334
1630937421931,-0.786656,0.11773,-0.59475
1630937421941,-0.7872049999999999,0.115595,-0.5952379999999999
1630937421951,-0.7887299999999999,0.112057,-0.593469
1630937421960,-0.789157,0.107116,-0.592676
1630937421970,-0.789279,0.105713,-0.591761
1630937421979,-0.788608,0.102175,-0.5912729999999999
1630937421989,-0.7859849999999999,0.099369,-0.59048
1630937421999,-0.788181,0.096624,-0.5924929999999999
1630937422008,-0.787998,0.09272,-0.595116
1630937422018,-0.7881199999999999,0.090463,-0.596092
1630937422027,-0.788059,0.085644,-0.596214
1630937422037,-0.788974,0.081679,-0.598227
1630937422047,-0.7875099999999999,0.077592,-0.599874
1630937422056,-0.785253,0.072773,-0.598166
1630937422066,-0.7841549999999999,0.069174,-0.59414
1630937422075,-0.781349,0.065453,-0.5917
1630937422085,-0.780251,0.060634,-0.589382
1630937422095,-0.7774449999999999,0.059352999999999996,-0.587796
1630937422104,-0.7765299999999999,0.057157,-0.587552
1630937422114,-0.774822,0.054351,-0.5866979999999999
1630937422123,-0.773297,0.051484,-0.5854779999999999
1630937422133,-0.773053,0.050691,-0.584807
1630937422143,-0.772687,0.050203,-0.582428
1630937422152,-0.774212,0.049471,-0.579927
1630937422162,-0.774822,0.051789,-0.577853
1630937422171,-0.774639,0.053741,-0.576877
1630937422181,-0.779336,0.052886999999999997,-0.57828
1630937422191,-0.782691,0.053863,-0.582489
1630937422200,-0.784643,0.055815,-0.58499
1630937422210,-0.787449,0.054778,-0.58682
1630937422219,-0.790377,0.053131,-0.588589
1630937422229,-0.792878,0.053619,-0.5903579999999999
1630937422239,-0.79361,0.052032999999999996,-0.59231
1630937422248,-0.79544,0.049471,-0.591395
1630937422258,-0.794769,0.049044,-0.588162
1630937422267,-0.793671,0.048739,-0.58499
1630937422277,-0.792146,0.047335999999999996,-0.581208
1630937422287,-0.793122,0.045201,-0.580232
1630937422296,-0.794708,0.046116,-0.578768
1630937422306,-0.795257,0.045018,-0.578646
1630937422315,-0.795684,0.044712999999999996,-0.575901
1630937422325,-0.796599,0.043066,-0.574437
1630937422335,-0.795135,0.041419,-0.574681
1630937422344,-0.795074,0.040626,-0.57218
1630937422354,-0.796904,0.039710999999999996,-0.569862
1630937422363,-0.797392,0.041358,-0.570045
1630937422373,-0.797575,0.043432,-0.5687639999999999
1630937422383,-0.798612,0.045994,-0.566568
1630937422392,-0.799832,0.04758,-0.56608
1630937422402,-0.801723,0.048312,-0.565348
1630937422411,-0.80276,0.048617,-0.5663239999999999
1630937422421,-0.803553,0.049166,-0.566202
1630937422431,-0.803736,0.048312,-0.566202
1630937422440,-0.804468,0.048129,-0.5663239999999999
1630937422450,-0.805322,0.047335999999999996,-0.565165
1630937422459,-0.806481,0.048556,-0.56303
1630937422469,-0.808738,0.049471,-0.563823
1630937422479,-0.8112389999999999,0.052216,-0.568398
1630937422488,-0.8127639999999999,0.055083,-0.570838
1630937422498,-0.812642,0.056608,-0.577365
1630937422507,-0.811483,0.056547,-0.5845629999999999
1630937422517,-0.80947,0.05429,-0.5882229999999999
1630937422527,-0.8097139999999999,0.049654,-0.586576
1630937422536,-0.80703,0.043432,-0.583587
1630937422546,-0.807457,0.039406,-0.582733
1630937422555,-0.80764,0.038674,-0.579866
1630937422565,-0.809348,0.038918,-0.58072
1630937422575,-0.808982,0.042761,-0.582794
1630937422584,-0.805688,0.047458,-0.584624
1630937422594,-0.8026989999999999,0.047763,-0.582794
1630937422603,-0.8005639999999999,0.049532,-0.5842579999999999
1630937422613,-0.798368,0.050996,-0.5863929999999999
1630937422623,-0.795196,0.051727999999999996,-0.589016
1630937422632,-0.793549,0.053558,-0.590724
1630937422642,-0.791841,0.055327,-0.589199
1630937422651,-0.7899499999999999,0.055937,-0.5879179999999999
1630937422661,-0.787998,0.056791,-0.587735
1630937422671,-0.787876,0.055998,-0.589626
1630937422680,-0.787998,0.054778,-0.591212
1630937422690,-0.787388,0.056364,-0.5912729999999999
1630937422699,-0.786534,0.056303,-0.5924929999999999
1630937422709,-0.7844599999999999,0.056364,-0.59231
1630937422719,-0.782996,0.056547,-0.593286
1630937422728,-0.781654,0.055632,-0.5931029999999999
1630937422738,-0.780373,0.055388,-0.592371
1630937422747,-0.780861,0.054534,-0.593469
1630937422757,-0.7801899999999999,0.052277,-0.595665
1630937422767,-0.778726,0.052521,-0.595726
1630937422776,-0.776957,0.052094,-0.5943229999999999
1630937422786,-0.776347,0.051422999999999996,-0.596092
1630937422795,-0.775676,0.05002,-0.598532
1630937422805,-0.77348,0.049288,-0.597922
1630937422815,-0.771345,0.049898,-0.59658
1630937422824,-0.770125,0.050752,-0.59536
1630937422834,-0.767563,0.053009,-0.594384
1630937422843,-0.766038,0.054412,-0.59536
1630937422853,-0.766282,0.056059,-0.596336
1630937422863,-0.763903,0.058316,-0.594994
1630937422872,-0.761585,0.061244,-0.591944
1630937422882,-0.759877,0.06283,-0.590419
1630937422891,-0.757437,0.064355,-0.5903579999999999
1630937422901,-0.756278,0.066429,-0.589321
1630937422911,-0.759267,0.06893,-0.590175
1630937422920,-0.7589009999999999,0.0732,-0.590114
1630937422930,-0.760914,0.077775,-0.5891379999999999
1630937422939,-0.763293,0.081923,-0.587552
1630937422949,-0.766648,0.087352,-0.5854779999999999
1630937422959,-0.769088,0.092476,-0.583038
1630937422968,-0.772016,0.09589199999999999,-0.581818
1630937422978,-0.777262,0.097173,-0.580537
1630937422987,-0.782691,0.096624,-0.581269
1630937422997,-0.789706,0.09516,-0.581818
1630937423007,-0.794586,0.09698999999999999,-0.579927
1630937423016,-0.798795,0.097356,-0.579622
1630937423026,-0.8033089999999999,0.096441,-0.580903
1630937423035,-0.807091,0.09497699999999999,-0.582733
1630937423045,-0.809653,0.094428,-0.584136
1630937423055,-0.813862,0.094611,-0.585966
1630937423064,-0.815997,0.094794,-0.585539
1630937423074,-0.816241,0.096136,-0.585661
1630937423083,-0.815021,0.09851499999999999,-0.584502
1630937423093,-0.813618,0.099674,-0.583709
1630937423103,-0.812215,0.100406,-0.58438
1630937423112,-0.811056,0.102175,-0.58438
1630937423122,-0.807335,0.103212,-0.584075
1630937423131,-0.80459,0.10498099999999999,-0.580781
1630937423141,-0.802211,0.106445,-0.579195
1630937423151,-0.800625,0.108946,-0.579683
1630937423160,-0.79849,0.10992199999999999,-0.580903
1630937423170,-0.795196,0.112484,-0.579561
1630937423179,-0.792024,0.112118,-0.579256
1630937423189,-0.791902,0.111325,-0.577487
1630937423199,-0.789706,0.111874,-0.577609
1630937423208,-0.788486,0.112362,-0.576145
1630937423218,-0.788547,0.112179,-0.577487
1630937423227,-0.787998,0.111569,-0.578585
1630937423237,-0.787571,0.10858,-0.578402
1630937423247,-0.785863,0.105652,-0.576999
1630937423256,-0.787388,0.10284599999999999,-0.577914
1630937423266,-0.7859849999999999,0.101992,-0.578219
1630937423275,-0.7862899999999999,0.101199,-0.579378
1630937423285,-0.786717,0.099979,-0.582123
1630937423295,-0.786107,0.09991799999999999,-0.58438
1630937423304,-0.786778,0.097722,-0.585539
1630937423314,-0.7862899999999999,0.097783,-0.584136
1630937423323,-0.785863,0.097173,-0.583526
1630937423333,-0.785009,0.096136,-0.582672
1630937423343,-0.7826299999999999,0.094733,-0.582672
1630937423352,-0.781837,0.09497699999999999,-0.583465
1630937423362,-0.781166,0.096441,-0.583465
1630937423371,-0.7798849999999999,0.09577,-0.5857829999999999
1630937423381,-0.7783599999999999,0.096014,-0.584441
1630937423391,-0.7774449999999999,0.095953,-0.583587
1630937423400,-0.776713,0.096075,-0.583587
1630937423410,-0.777384,0.097173,-0.583282
1630937423419,-0.7795799999999999,0.098576,-0.581879
1630937423429,-0.780434,0.099674,-0.580903
1630937423439,-0.780983,0.100772,-0.578646
1630937423448,-0.779336,0.102114,-0.580171
1630937423458,-0.7795799999999999,0.10083299999999999,-0.581513
1630937423467,-0.779336,0.10065,-0.583343
1630937423477,-0.778848,0.100894,-0.582794
1630937423487,-0.7759199999999999,0.098942,-0.581086
1630937423496,-0.773785,0.098576,-0.579439
1630937423506,-0.774822,0.096868,-0.578463
1630937423515,-0.775981,0.096929,-0.578585
1630937423525,-0.778177,0.099796,-0.580354
1630937423535,-0.778604,0.100711,-0.583282
1630937423544,-0.775981,0.10065,-0.582367
1630937423554,-0.777506,0.096197,-0.58011
1630937423563,-0.783667,0.095526,-0.5839529999999999
1630937423573,-0.7899499999999999,0.101321,-0.589016
1630937423583,-0.79727,0.113094,-0.5964579999999999
1630937423592,-0.8023939999999999,0.12749,-0.600118
1630937423602,-0.807335,0.14335,-0.603778
1630937423611,-0.808006,0.15494,-0.606157
1630937423621,-0.812337,0.166347,-0.6128669999999999
1630937423631,-0.814533,0.174765,-0.6192719999999999
1630937423640,-0.815265,0.179706,-0.61915
1630937423650,-0.816546,0.18409799999999998,-0.614575
1630937423659,-0.812276,0.181414,-0.61427
1630937423669,-0.817522,0.17885199999999998,-0.617076
1630937423679,-0.815082,0.186294,-0.619028
1630937423688,-0.811788,0.185684,-0.6177469999999999
1630937423698,-0.805871,0.180377,-0.614819
1630937423707,-0.798551,0.16897,-0.6159169999999999
1630937423717,-0.791658,0.157502,-0.613599
1630937423727,-0.786717,0.14713199999999999,-0.611769
1630937423736,-0.776164,0.137677,-0.612135
1630937423746,-0.7631709999999999,0.126941,-0.605913
1630937423755,-0.751337,0.11730299999999999,-0.606218
1630937423765,-0.746213,0.112057,-0.607255
1630937423775,-0.744688,0.107848,-0.604388
1630937423784,-0.741394,0.105835,-0.602131
1630937423794,-0.737978,0.100467,-0.59902
1630937423803,-0.735721,0.089975,-0.588711
1630937423813,-0.7296819999999999,0.074908,-0.585905
1630937423823,-0.733464,0.060695,-0.582123
1630937423832,-0.737856,0.055022,-0.579927
1630937423842,-0.740784,0.052094,-0.578524
1630937423851,-0.74481,0.044774,-0.586942
1630937423861,-0.748958,0.035746,-0.599813
1630937423871,-0.74908,0.014091,-0.615551
1630937423880,-0.747189,-0.011101999999999999,-0.62464
1630937423890,-0.749629,-0.01952,-0.616588
1630937423899,-0.751093,-0.019275999999999998,-0.609024
1630937423909,-0.750056,-0.011346,-0.603595
1630937423919,-0.750117,0.000488,-0.602375
1630937423928,-0.751032,0.01769,-0.607621
1630937423938,-0.753472,0.033916,-0.61427
1630937423947,-0.7564609999999999,0.04575,-0.619211
1630937423957,-0.75762,0.05734,-0.624274
1630937423967,-0.755973,0.066917,-0.624335
1630937423976,-0.757925,0.076006,-0.619455
1630937423986,-0.76006,0.08356999999999999,-0.617503
1630937423995,-0.760853,0.089487,-0.621163
1630937424005,-0.763537,0.098698,-0.622993
1630937424015,-0.766038,0.10675,-0.623969
1630937424024,-0.767258,0.112972,-0.622322
1630937424034,-0.766343,0.122976,-0.620553
1630937424043,-0.7643909999999999,0.134688,-0.619028
1630937424053,-0.76677,0.149816,-0.6192719999999999
1630937424063,-0.766892,0.163236,-0.620126
1630937424072,-0.767319,0.168421,-0.628422
1630937424082,-0.76616,0.174399,-0.629947
1630937424091,-0.768783,0.17873,-0.62891
1630937424101,-0.771345,0.181231,-0.62647
1630937424111,-0.77287,0.181658,-0.627873
1630937424120,-0.77165,0.184647,-0.626958
1630937424130,-0.771772,0.18544,-0.624762
1630937424139,-0.772199,0.183427,-0.620553
1630937424149,-0.771711,0.18409799999999998,-0.61854
1630937424159,-0.769576,0.183,-0.61671
1630937424168,-0.7677459999999999,0.18056,-0.61732
1630937424178,-0.766587,0.17641199999999999,-0.618906
1630937424187,-0.766404,0.175985,-0.615429
1630937424197,-0.767807,0.172203,-0.61732
1630937424207,-0.76311,0.16897,-0.617259
1630937424216,-0.7595109999999999,0.165066,-0.615978
1630937424226,-0.755363,0.163541,-0.617808
1630937424235,-0.751642,0.162138,-0.616344
1630937424245,-0.749141,0.163968,-0.6150019999999999
1630937424255,-0.744627,0.165859,-0.612928
1630937424264,-0.743956,0.17299599999999998,-0.607316
1630937424274,-0.741394,0.17812,-0.605303
1630937424283,-0.7418819999999999,0.180194,-0.602741
1630937424293,-0.739503,0.180926,-0.602741
1630937424303,-0.737063,0.183061,-0.603168
1630937424312,-0.7363919999999999,0.184281,-0.603168
1630937424322,-0.735355,0.186843,-0.602558
1630937424331,-0.734623,0.18903899999999998,-0.604266
1630937424341,-0.73261,0.193919,-0.60634
1630937424351,-0.730841,0.197823,-0.607377
1630937424360,-0.730414,0.203008,-0.607133
1630937424370,-0.7302919999999999,0.206424,-0.607377
1630937424379,-0.730841,0.20984,-0.607621
1630937424389,-0.729438,0.210816,-0.6076819999999999
1630937424399,-0.730536,0.211121,-0.606584
1630937424408,-0.7309019999999999,0.214842,-0.607072
1630937424418,-0.7345619999999999,0.212341,-0.60878
1630937424427,-0.7360869999999999,0.21246299999999999,-0.61061
1630937424437,-0.73749,0.216062,-0.608658
1630937424447,-0.74054,0.216733,-0.6076819999999999
1630937424456,-0.743163,0.21398799999999998,-0.607804
1630937424466,-0.745664,0.216733,-0.61
1630937424475,-0.746091,0.22075899999999998,-0.611281
1630937424485,-0.749324,0.22228399999999998,-0.611891
1630937424495,-0.751398,0.221613,-0.612196
1630937424504,-0.751398,0.22136899999999998,-0.613355
1630937424514,-0.752984,0.21831899999999999,-0.6183569999999999
1630937424523,-0.7534109999999999,0.21551299999999998,-0.619638
1630937424533,-0.7552409999999999,0.213317,-0.6174419999999999
1630937424543,-0.7564,0.214537,-0.613965
1630937424552,-0.757742,0.215147,-0.611098
1630937424562,-0.759694,0.211182,-0.608475
1630937424571,-0.7613409999999999,0.207705,-0.608536
1630937424581,-0.760792,0.206729,-0.611769
1630937424591,-0.7610359999999999,0.204777,-0.610488
1630937424600,-0.762012,0.201239,-0.6101219999999999
1630937424610,-0.7625,0.199104,-0.6113419999999999
1630937424619,-0.761158,0.196969,-0.61183
1630937424629,-0.760792,0.19489499999999998,-0.609939
1630937424639,-0.7607309999999999,0.193126,-0.609085
1630937424648,-0.76067,0.190015,-0.609756
1630937424658,-0.760304,0.188246,-0.607926
1630937424667,-0.76006,0.187209,-0.607133
1630937424677,-0.759938,0.18666,-0.60695
1630937424687,-0.7589009999999999,0.183,-0.606706
1630937424696,-0.75823,0.180743,-0.603168
1630937424706,-0.7589009999999999,0.17854699999999998,-0.601887
1630937424715,-0.7598159999999999,0.178059,-0.601094
1630937424725,-0.759084,0.17812,-0.60024
1630937424735,-0.75884,0.17702199999999998,-0.596519
1630937424744,-0.758535,0.175741,-0.5955429999999999
1630937424754,-0.7576809999999999,0.173484,-0.595299
1630937424763,-0.757498,0.170495,-0.594079
1630937424773,-0.761219,0.17116599999999998,-0.5885279999999999
1630937424783,-0.762988,0.178486,-0.58865
1630937424792,-0.762012,0.18501299999999998,-0.585844
1630937424802,-0.763598,0.18727,-0.585234
1630937424811,-0.762927,0.19337,-0.58743
1630937424821,-0.762927,0.199958,-0.585112
1630937424831,-0.762622,0.20782699999999998,-0.585234
1630937424840,-0.7653059999999999,0.21612299999999998,-0.584441
1630937424850,-0.764452,0.224724,-0.5854779999999999
1630937424859,-0.761768,0.234057,-0.5857829999999999
1630937424869,-0.760914,0.241011,-0.5851729999999999
1630937424879,-0.760914,0.24644,-0.583465
1630937424888,-0.7607309999999999,0.24949,-0.583526
1630937424898,-0.759145,0.253516,-0.584746
1630937424907,-0.757132,0.25973799999999997,-0.582489
1630937424917,-0.75823,0.262422,-0.581086
1630937424927,-0.757193,0.265716,-0.581635
1630937424936,-0.755302,0.269803,-0.583831
1630937424946,-0.7540209999999999,0.274805,-0.58255
1630937424955,-0.754143,0.278038,-0.582306
1630937424965,-0.753899,0.280966,-0.581696
1630937424975,-0.753289,0.28377199999999997,-0.581269
1630937424984,-0.753228,0.284809,-0.579378
1630937424994,-0.7534109999999999,0.28194199999999997,-0.580232
1630937425003,-0.753899,0.277916,-0.580232
1630937425013,-0.75396,0.275354,-0.579378
1630937425023,-0.753899,0.272121,-0.576877
1630937425032,-0.755912,0.270108,-0.578524
1630937425042,-0.756095,0.268644,-0.578524
1630937425051,-0.75701,0.267973,-0.579317
1630937425061,-0.758047,0.269376,-0.579378
1630937425071,-0.758047,0.267485,-0.580659
1630937425080,-0.756583,0.259311,-0.580232
1630937425090,-0.760609,0.255224,-0.580964
1630937425099,-0.763415,0.25925,-0.58682
1630937425109,-0.7640859999999999,0.263642,-0.5900529999999999
1630937425119,-0.765977,0.263947,-0.5906629999999999
1630937425128,-0.7668309999999999,0.262422,-0.5888329999999999
1630937425138,-0.768478,0.260836,-0.586454
1630937425147,-0.768844,0.259799,-0.584197
1630937425157,-0.770918,0.26047,-0.582489
1630937425167,-0.770796,0.260165,-0.582367
1630937425176,-0.771162,0.257664,-0.581818
1630937425186,-0.769576,0.256749,-0.581757
1630937425195,-0.767563,0.25254,-0.582489
1630937425205,-0.7659159999999999,0.248758,-0.579866
1630937425215,-0.7653059999999999,0.245586,-0.578768
1630937425224,-0.7653059999999999,0.240523,-0.577975
1630937425234,-0.7640859999999999,0.23729,-0.578158
1630937425243,-0.763903,0.23485,-0.577792
1630937425253,-0.7631709999999999,0.233203,-0.577731
1630937425263,-0.760914,0.231312,-0.577121
1630937425272,-0.7592059999999999,0.230885,-0.576999
1630937425282,-0.757254,0.22942099999999999,-0.57645
1630937425291,-0.7564,0.224297,-0.575535
1630937425301,-0.75884,0.216916,-0.577426
1630937425311,-0.759938,0.210206,-0.579012
1630937425320,-0.759694,0.205875,-0.579622
1630937425330,-0.7610359999999999,0.194468,-0.582062
1630937425339,-0.763903,0.188063,-0.581574
1630937425349,-0.763659,0.186965,-0.579195
1630937425359,-0.765977,0.187636,-0.578524
1630937425368,-0.765062,0.194529,-0.579927
1630937425378,-0.768539,0.200629,-0.585051
1630937425387,-0.768295,0.210816,-0.5900529999999999
1630937425397,-0.771101,0.217221,-0.59231
1630937425407,-0.774334,0.22813999999999998,-0.593164
1630937425416,-0.775249,0.238388,-0.593652
1630937425426,-0.7756149999999999,0.24705,-0.594689
1630937425435,-0.774761,0.251747,-0.59597
1630937425445,-0.773358,0.255346,-0.595909
1630937425455,-0.771345,0.255102,-0.5940179999999999
1630937425464,-0.768295,0.254004,-0.5915779999999999
1630937425474,-0.765184,0.25254,-0.588955
1630937425483,-0.76189,0.250344,-0.5876129999999999
1630937425493,-0.759633,0.24759899999999999,-0.585112
1630937425503,-0.7573759999999999,0.244,-0.583526
1630937425512,-0.7558509999999999,0.241011,-0.582245
1630937425522,-0.755302,0.236741,-0.582611
1630937425531,-0.752679,0.234728,-0.583892
1630937425541,-0.7506659999999999,0.23338599999999998,-0.584197
1630937425551,-0.749507,0.232044,-0.584807
1630937425560,-0.748287,0.229116,-0.585539
1630937425570,-0.745908,0.226859,-0.58499
1630937425579,-0.744261,0.223077,-0.585661
1630937425589,-0.74359,0.218746,-0.584136
1630937425599,-0.743712,0.21472,-0.583404
1630937425608,-0.743956,0.213256,-0.582611
1630937425618,-0.74542,0.21045,-0.584136
1630937425627,-0.747555,0.209718,-0.5863929999999999
1630937425637,-0.747494,0.210877,-0.589565
1630937425647,-0.748409,0.210816,-0.592676
1630937425656,-0.748714,0.21154799999999999,-0.593957
1630937425666,-0.748714,0.212707,-0.594872
1630937425675,-0.750727,0.21185299999999999,-0.597861
1630937425685,-0.7503,0.21398799999999998,-0.596275
1630937425695,-0.750849,0.214964,-0.595787
1630937425704,-0.753472,0.214354,-0.596519
1630937425714,-0.754997,0.216977,-0.597922
1630937425723,-0.7585959999999999,0.2196,-0.599874
1630937425733,-0.759999,0.222772,-0.602497
1630937425743,-0.760548,0.22447999999999999,-0.60329
1630937425752,-0.761829,0.225639,-0.602314
1630937425762,-0.763537,0.228018,-0.602375
1630937425771,-0.763964,0.234362,-0.602131
1630937425781,-0.763903,0.239974,-0.602192
1630937425791,-0.765489,0.243695,-0.601948
1630937425800,-0.763903,0.24705,-0.602131
1630937425810,-0.762378,0.24851399999999998,-0.600423
1630937425819,-0.762195,0.247477,-0.598776
1630937425829,-0.760304,0.246501,-0.596397
1630937425839,-0.759389,0.24601299999999998,-0.593652
1630937425848,-0.758718,0.245647,-0.593957
1630937425858,-0.757742,0.245342,-0.59353
1630937425867,-0.756583,0.24418299999999998,-0.593164
1630937425877,-0.755668,0.242414,-0.593164
1630937425887,-0.75579,0.241621,-0.5924929999999999
1630937425896,-0.75457,0.237778,-0.5927979999999999
1630937425906,-0.755119,0.235826,-0.5917
1630937425915,-0.7537159999999999,0.23460599999999998,-0.591212
1630937425925,-0.751337,0.231129,-0.591456
1630937425935,-0.7515809999999999,0.227652,-0.591944
1630937425944,-0.751825,0.223931,-0.594384
1630937425954,-0.750849,0.218807,-0.595299
1630937425963,-0.74847,0.214476,-0.597129
1630937425973,-0.748653,0.211182,-0.597007
1630937425983,-0.747555,0.20813199999999998,-0.598044
1630937425992,-0.747982,0.20679,-0.596702
1630937426002,-0.748348,0.20660699999999999,-0.593286
1630937426011,-0.749324,0.208376,-0.590785
1630937426021,-0.749934,0.210084,-0.590785
1630937426031,-0.751032,0.211182,-0.5903579999999999
1630937426040,-0.751398,0.21307299999999998,-0.591456
1630937426050,-0.750544,0.212646,-0.594262
1630937426059,-0.751459,0.214232,-0.59658
1630937426069,-0.751032,0.213866,-0.594994
1630937426079,-0.7512759999999999,0.21215799999999999,-0.595665
1630937426088,-0.752679,0.211609,-0.594445
1630937426098,-0.7537159999999999,0.213622,-0.593225
1630937426107,-0.75396,0.214842,-0.59231
1630937426117,-0.755729,0.218441,-0.5909679999999999
1630937426127,-0.755668,0.223321,-0.591456
1630937426136,-0.757132,0.226188,-0.5906629999999999
1630937426146,-0.75701,0.228079,-0.589687
1630937426155,-0.757803,0.229482,-0.5903579999999999
1630937426165,-0.759328,0.230824,-0.589016
1630937426175,-0.760609,0.229909,-0.5891379999999999
1630937426184,-0.762744,0.229848,-0.590175
1630937426194,-0.763415,0.23003099999999999,-0.590236
1630937426203,-0.764513,0.22942099999999999,-0.589199
1630937426213,-0.765367,0.22783499999999998,-0.589321
1630937426223,-0.7665259999999999,0.229238,-0.588467
1630937426232,-0.766953,0.228872,-0.586027
1630937426242,-0.766892,0.22661499999999998,-0.58682
1630937426251,-0.766709,0.224114,-0.589382
1630937426261,-0.7662209999999999,0.222589,-0.592066
1630937426271,-0.766404,0.221308,-0.5891379999999999
1630937426280,-0.7668309999999999,0.219661,-0.585905
1630937426290,-0.768356,0.217282,-0.585844
1630937426299,-0.767929,0.213927,-0.585722
1630937426309,-0.768112,0.212524,-0.585722
1630937426319,-0.768722,0.213134,-0.5845629999999999
1630937426328,-0.768417,0.21398799999999998,-0.586027
1630937426338,-0.768905,0.213744,-0.584929
1630937426347,-0.768844,0.213134,-0.584197
1630937426357,-0.769881,0.21228,-0.583282
1630937426367,-0.769881,0.212219,-0.582428
1630937426376,-0.769576,0.212707,-0.582245
1630937426386,-0.76921,0.21337799999999998,-0.582489
1630937426395,-0.769027,0.213317,-0.581086
1630937426405,-0.768783,0.212341,-0.581025
1630937426415,-0.768722,0.211975,-0.581391
1630937426424,-0.767624,0.209901,-0.579195
1630937426434,-0.768844,0.208681,-0.57828
1630937426443,-0.768356,0.207583,-0.576633
1630937426453,-0.767807,0.210389,-0.577792
1630937426463,-0.7677459999999999,0.21167,-0.576755
1630937426472,-0.767807,0.21276799999999998,-0.576938
1630937426482,-0.768905,0.213744,-0.57645
1630937426491,-0.768966,0.21520799999999998,-0.576084
1630937426501,-0.769698,0.21490299999999998,-0.576084
1630937426511,-0.77043,0.21533,-0.576816
1630937426520,-0.770979,0.21472,-0.575901
1630937426530,-0.772199,0.212646,-0.575474
1630937426539,-0.773297,0.211426,-0.577609
1630937426549,-0.77409,0.212585,-0.577853
1630937426559,-0.7750049999999999,0.21215799999999999,-0.578158
1630937426568,-0.7756149999999999,0.213195,-0.577914
1630937426578,-0.774639,0.212097,-0.57889
1630937426587,-0.774273,0.212524,-0.577304
1630937426597,-0.774883,0.212036,-0.578829
1630937426607,-0.774944,0.211487,-0.577487
1630937426616,-0.775188,0.21106,-0.578768
1630937426626,-0.775371,0.210145,-0.578219
1630937426635,-0.775554,0.207888,-0.57828
1630937426645,-0.773968,0.20721699999999998,-0.578524
1630937426655,-0.775493,0.20752199999999998,-0.57889
1630937426664,-0.7753099999999999,0.206546,-0.579073
1630937426674,-0.7746999999999999,0.207156,-0.579622
1630937426683,-0.774334,0.208559,-0.5795
1630937426693,-0.7753099999999999,0.208254,-0.580781
1630937426703,-0.774883,0.20599699999999999,-0.57889
1630937426712,-0.7765299999999999,0.204167,-0.579561
1630937426722,-0.775676,0.20191,-0.5795
1630937426731,-0.773419,0.20105599999999998,-0.57889
1630937426741,-0.775371,0.197396,-0.580537
1630937426751,-0.7746999999999999,0.19154,-0.5857829999999999
1630937426760,-0.773785,0.187514,-0.58804
1630937426770,-0.77226,0.18562299999999998,-0.584685
1630937426779,-0.770796,0.185684,-0.582672
1630937426789,-0.770186,0.185806,-0.581147
1630937426799,-0.770674,0.186294,-0.580171
1630937426808,-0.771528,0.18903899999999998,-0.576206
1630937426818,-0.770674,0.191235,-0.575779
1630937426827,-0.769515,0.190198,-0.572668
1630937426837,-0.767624,0.190381,-0.571753
1630937426847,-0.765794,0.191845,-0.573644
1630937426856,-0.764452,0.196908,-0.578768
1630937426866,-0.763049,0.20258099999999998,-0.580354
1630937426875,-0.7637809999999999,0.202459,-0.583526
1630937426885,-0.760548,0.198616,-0.580415
1630937426895,-0.756522,0.188795,-0.566812
1630937426904,-0.754692,0.179096,-0.55327
1630937426914,-0.757864,0.175192,-0.548512
1630937426923,-0.758047,0.180377,-0.549793
1630937426933,-0.757864,0.182939,-0.560163
1630937426943,-0.761219,0.174582,-0.574132
1630937426952,-0.768478,0.170312,-0.5842579999999999
1630937426962,-0.771894,0.17385,-0.587186
1630937426971,-0.7759199999999999,0.179584,-0.5894429999999999
1630937426981,-0.779214,0.18531799999999998,-0.589382
1630937426991,-0.7844599999999999,0.196054,-0.58743
1630937427000,-0.7887299999999999,0.211731,-0.586759
1630937427010,-0.790133,0.22386999999999999,-0.586576
1630937427019,-0.790011,0.238388,-0.586454
1630937427029,-0.794098,0.249307,-0.586271
1630937427039,-0.793427,0.261629,-0.5876129999999999
1630937427048,-0.792512,0.272731,-0.5915779999999999
1630937427058,-0.792512,0.278526,-0.595421
1630937427067,-0.791414,0.281088,-0.59231
1630937427077,-0.789523,0.277489,-0.590602
1630937427087,-0.790072,0.275171,-0.585295
1630937427096,-0.790316,0.273646,-0.583038
1630937427106,-0.788059,0.270474,-0.582611
1630937427115,-0.783606,0.267729,-0.580659
1630937427125,-0.781654,0.261202,-0.580354
1630937427135,-0.777933,0.254797,-0.57828
1630937427144,-0.773297,0.252357,-0.576755
1630937427154,-0.7686,0.24888,-0.577121
1630937427163,-0.7659159999999999,0.246928,-0.578219
1630937427173,-0.7622559999999999,0.24326799999999998,-0.579378
1630937427183,-0.760975,0.235826,-0.580537
1630937427192,-0.760365,0.223687,-0.579744
1630937427202,-0.758047,0.210694,-0.578036
1630937427211,-0.7549359999999999,0.196786,-0.572363
1630937427221,-0.751215,0.18727,-0.564738
1630937427231,-0.749141,0.176656,-0.563823
1630937427240,-0.747189,0.170434,-0.5629689999999999
1630937427250,-0.747921,0.16469999999999999,-0.5681539999999999
1630937427259,-0.749019,0.16348,-0.573278
1630937427269,-0.748714,0.157014,-0.574864
1630937427279,-0.751947,0.149816,-0.577609
1630937427288,-0.751337,0.150853,-0.579317
1630937427298,-0.752923,0.151219,-0.582001
1630937427307,-0.7540209999999999,0.15420799999999998,-0.589382
1630937427317,-0.754082,0.157624,-0.5897479999999999
1630937427327,-0.7561559999999999,0.16128399999999998,-0.5891379999999999
1630937427336,-0.759389,0.16897,-0.59231
1630937427346,-0.763598,0.181048,-0.59658
1630937427355,-0.765733,0.196237,-0.599264
1630937427365,-0.76738,0.208803,-0.601765
1630937427375,-0.767868,0.219783,-0.603107
1630937427384,-0.767868,0.229604,-0.603839
1630937427394,-0.767929,0.236619,-0.604388
1630937427403,-0.768966,0.239364,-0.601277
1630937427413,-0.771284,0.240401,-0.601216
1630937427423,-0.771833,0.240401,-0.602253
1630937427432,-0.770735,0.239303,-0.602741
1630937427442,-0.769576,0.23710699999999998,-0.602253
1630937427451,-0.768783,0.23424,-0.599569
1630937427461,-0.7665259999999999,0.234362,-0.597861
1630937427471,-0.764574,0.23302,-0.595726
1630937427480,-0.764574,0.231068,-0.59475
1630937427490,-0.763232,0.228628,-0.594689
1630937427499,-0.762012,0.22417499999999999,-0.5934079999999999
1630937427509,-0.762683,0.217526,-0.59414
1630937427519,-0.760365,0.21154799999999999,-0.5958479999999999
1630937427528,-0.758047,0.205936,-0.598166
1630937427538,-0.759145,0.202032,-0.59719
1630937427547,-0.7598159999999999,0.196664,-0.598898
1630937427557,-0.7592059999999999,0.191662,-0.597922
1630937427567,-0.756888,0.188002,-0.59841
1630937427576,-0.756217,0.18605,-0.601399
1630937427586,-0.756278,0.182756,-0.604327
1630937427595,-0.7558509999999999,0.180194,-0.604266
1630937427605,-0.75701,0.180072,-0.602314
1630937427615,-0.758352,0.180804,-0.600667
1630937427624,-0.758108,0.180255,-0.601399
1630937427634,-0.757803,0.183122,-0.604632
1630937427643,-0.758535,0.186233,-0.6076819999999999
1630937427653,-0.758718,0.193431,-0.609939
1630937427663,-0.760792,0.194956,-0.61183
1630937427672,-0.7610359999999999,0.198738,-0.614514
1630937427682,-0.759389,0.202642,-0.616588
1630937427691,-0.759145,0.20374,-0.616893
1630937427701,-0.758169,0.205753,-0.615978
1630937427711,-0.756949,0.20801,-0.615551
1630937427720,-0.758352,0.210999,-0.617564
1630937427730,-0.758352,0.214537,-0.620248
1630937427739,-0.756278,0.218746,-0.6192719999999999
1630937427749,-0.754143,0.22265,-0.618784
1630937427759,-0.750605,0.221796,-0.6165269999999999
1630937427768,-0.74603,0.219966,-0.611403
1630937427778,-0.745603,0.219051,-0.607316
1630937427787,-0.743956,0.217587,-0.605974
1630937427797,-0.7385269999999999,0.21831899999999999,-0.605425
1630937427807,-0.736026,0.217404,-0.603656
1630937427816,-0.736819,0.216428,-0.603351
1630937427826,-0.733708,0.218441,-0.603534
1630937427835,-0.73322,0.219356,-0.60207
1630937427845,-0.729865,0.21984399999999998,-0.600911
1630937427855,-0.72651,0.220576,-0.602253
1630937427864,-0.72407,0.219295,-0.603412
1630937427874,-0.722118,0.21777,-0.601338
1630937427883,-0.719861,0.21838,-0.596214
1630937427893,-0.72041,0.219173,-0.5970679999999999
1630937427903,-0.721508,0.220271,-0.59841
1630937427912,-0.723277,0.221857,-0.598349
1630937427922,-0.724314,0.224907,-0.600667
1630937427931,-0.724497,0.22875,-0.601521
1630937427941,-0.725107,0.230824,-0.602924
1630937427951,-0.727364,0.23338599999999998,-0.604571
1630937427960,-0.72895,0.234057,-0.607804
1630937427970,-0.732244,0.237351,-0.607011
1630937427979,-0.7330369999999999,0.238449,-0.604998
1630937427989,-0.734745,0.240279,-0.604937
1630937427999,-0.7360869999999999,0.240706,-0.605059
1630937428008,-0.738344,0.24034,-0.604632
1630937428018,-0.739808,0.241621,-0.605059
1630937428027,-0.740601,0.24326799999999998,-0.605303
1630937428037,-0.740906,0.24461,-0.605669
1630937428047,-0.745237,0.245586,-0.606828
1630937428056,-0.748836,0.24759899999999999,-0.608658
1630937428066,-0.752923,0.251076,-0.609939
1630937428075,-0.754814,0.248331,-0.609878
1630937428085,-0.7582909999999999,0.243756,-0.604876
1630937428095,-0.76555,0.230824,-0.6107319999999999
1630937428104,-0.77287,0.219356,-0.6189669999999999
1630937428114,-0.770552,0.219661,-0.615429
1630937428123,-0.770613,0.221796,-0.6082919999999999
1630937428133,-0.76433,0.21581799999999998,-0.605425
1630937428143,-0.7585959999999999,0.227103,-0.598227
1630937428152,-0.763354,0.225761,-0.599447
1630937428162,-0.766587,0.216184,-0.592249
1630937428171,-0.769088,0.203984,-0.582062
1630937428181,-0.764818,0.203679,-0.576816
1630937428191,-0.7579859999999999,0.210328,-0.576267
1630937428200,-0.755607,0.2135,-0.5724239999999999
1630937428210,-0.758169,0.208071,-0.571326
1630937428219,-0.765184,0.201605,-0.569435
1630937428229,-0.77287,0.198128,-0.570228
1630937428239,-0.781593,0.193614,-0.5734
1630937428248,-0.790377,0.186599,-0.577487
1630937428258,-0.792268,0.18409799999999998,-0.577304
1630937428267,-0.796965,0.180194,-0.5734
1630937428277,-0.797697,0.181048,-0.572363
1630937428287,-0.796538,0.183854,-0.574925
1630937428296,-0.794891,0.191052,-0.574742
1630937428306,-0.792024,0.196237,-0.571997
1630937428315,-0.789584,0.197213,-0.569923
1630937428325,-0.789279,0.19763999999999998,-0.573888
1630937428335,-0.790499,0.200263,-0.577609
1630937428344,-0.786961,0.203862,-0.581818
1630937428354,-0.783972,0.20996199999999998,-0.576145
1630937428363,-0.782264,0.212707,-0.570838
1630937428373,-0.780739,0.218258,-0.57218
1630937428383,-0.781349,0.224541,-0.581574
1630937428392,-0.784094,0.225212,-0.589626
1630937428402,-0.779824,0.22082,-0.584502
1630937428411,-0.779519,0.218746,-0.579012
1630937428421,-0.773541,0.224358,-0.583465
1630937428431,-0.770064,0.228506,-0.588772
1630937428440,-0.769088,0.223931,-0.589199
1630937428450,-0.770125,0.216855,-0.584746
1630937428459,-0.766404,0.214476,-0.580354
1630937428469,-0.761707,0.21154799999999999,-0.580232
1630937428479,-0.758352,0.204167,-0.580537
1630937428488,-0.755424,0.201239,-0.576572
1630937428498,-0.753655,0.198128,-0.57462
1630937428507,-0.7512759999999999,0.195566,-0.573949
1630937428517,-0.750178,0.194529,-0.57645
1630937428527,-0.752679,0.196176,-0.581696
1630937428536,-0.751703,0.197213,-0.583282
1630937428546,-0.746457,0.200568,-0.5851729999999999
1630937428555,-0.746518,0.200934,-0.587064
1630937428565,-0.74542,0.202764,-0.587186
1630937428575,-0.745847,0.206058,-0.583709
1630937428584,-0.744871,0.211914,-0.583709
1630937428594,-0.747799,0.216367,-0.585295
1630937428603,-0.74603,0.212402,-0.593042
1630937428613,-0.747128,0.20014099999999999,-0.591456
1630937428623,-0.75396,0.192333,-0.588772
1630937428632,-0.756522,0.192699,-0.5839529999999999
1630937428642,-0.751642,0.20014099999999999,-0.585722
1630937428651,-0.7582909999999999,0.21716,-0.597617
1630937428661,-0.7531059999999999,0.235399,-0.60268
1630937428671,-0.75457,0.239303,-0.6098169999999999
1630937428680,-0.757254,0.241987,-0.613721
1630937428690,-0.76006,0.23973,-0.61
1630937428699,-0.7646959999999999,0.24357299999999998,-0.61
1630937428709,-0.768234,0.253028,-0.605303
1630937428719,-0.767502,0.266936,-0.609146
1630937428728,-0.7659159999999999,0.28468699999999997,-0.617076
1630937428738,-0.7604259999999999,0.302194,-0.614026
1630937428747,-0.755668,0.312198,-0.611891
1630937428757,-0.74725,0.31829799999999997,-0.61427
1630937428767,-0.743468,0.32086,-0.61244
1630937428776,-0.737795,0.320372,-0.6101219999999999
1630937428786,-0.731024,0.31598,-0.603229
1630937428795,-0.729804,0.31171,-0.602497
1630937428805,-0.723338,0.31860299999999997,-0.5958479999999999
1630937428815,-0.717726,0.319274,-0.590114
1630937428824,-0.71736,0.317871,-0.595177
1630937428834,-0.7129679999999999,0.32195799999999997,-0.59231
1630937428843,-0.708759,0.321104,-0.585844
1630937428853,-0.706624,0.319762,-0.577304
1630937428863,-0.70699,0.31707799999999997,-0.57584
1630937428872,-0.705526,0.315187,-0.577548
1630937428882,-0.7076,0.313601,-0.577975
1630937428891,-0.710101,0.313174,-0.577426
1630937428901,-0.712175,0.311954,-0.577426
1630937428911,-0.712175,0.310124,-0.577182
1630937428920,-0.713334,0.307379,-0.5795
1630937428930,-0.71309,0.305244,-0.583221
1630937428939,-0.712907,0.303475,-0.583038
1630937428949,-0.716689,0.300059,-0.58377
1630937428959,-0.7169329999999999,0.297497,-0.585966
1630937428968,-0.717055,0.29219,-0.591151
1630937428978,-0.717604,0.296887,-0.5866979999999999
1630937428987,-0.718824,0.293898,-0.593469
1630937428997,-0.722545,0.292007,-0.591761
1630937429007,-0.727974,0.292556,-0.592981
1630937429016,-0.730658,0.295728,-0.597129
1630937429026,-0.732915,0.299022,-0.600118
1630937429035,-0.737429,0.306403,-0.59963
1630937429045,-0.741455,0.313357,-0.602375
1630937429055,-0.745603,0.318786,-0.60573
1630937429064,-0.750483,0.325679,-0.609695
1630937429074,-0.7531059999999999,0.334951,-0.612013
1630937429083,-0.753533,0.342149,-0.609085
1630937429093,-0.7540209999999999,0.345016,-0.607194
1630937429103,-0.752862,0.345748,-0.606279
1630937429112,-0.75152,0.34343,-0.60268
1630937429122,-0.749629,0.33958699999999997,-0.598044
1630937429131,-0.749568,0.335988,-0.592676
1630937429141,-0.747738,0.33153499999999997,-0.58926
1630937429151,-0.747006,0.325374,-0.586454
1630937429160,-0.747128,0.32012799999999997,-0.5866979999999999
1630937429170,-0.746091,0.315187,-0.588345
1630937429179,-0.743163,0.30841599999999997,-0.5863929999999999
1630937429189,-0.744505,0.301767,-0.586332
1630937429199,-0.743773,0.297497,-0.588894
1630937429208,-0.742736,0.291641,-0.589199
1630937429218,-0.7403569999999999,0.285968,-0.591395
1630937429227,-0.738344,0.27999,-0.593164
1630937429237,-0.73688,0.274378,-0.594201
1630937429247,-0.73566,0.270352,-0.5943229999999999
1630937429256,-0.735294,0.265899,-0.594079
1630937429266,-0.736514,0.26034799999999997,-0.591456
1630937429275,-0.736453,0.25943299999999997,-0.590236
1630937429285,-0.737124,0.259006,-0.590541
1630937429295,-0.73566,0.257969,-0.589382
1630937429304,-0.735416,0.258274,-0.589077
1630937429314,-0.7360869999999999,0.26004299999999997,-0.592981
1630937429323,-0.7376119999999999,0.261446,-0.597983
1630937429333,-0.738344,0.263703,-0.602741
1630937429343,-0.7394419999999999,0.263581,-0.603412
1630937429352,-0.74054,0.26169,-0.603595
1630937429362,-0.740418,0.258701,-0.600301
1630937429371,-0.740479,0.25912799999999997,-0.597983
1630937429381,-0.74176,0.258945,-0.597251
1630937429391,-0.743895,0.259921,-0.597861
1630937429400,-0.744017,0.261446,-0.5970679999999999
1630937429410,-0.742248,0.261507,-0.595116
1630937429419,-0.7424919999999999,0.260104,-0.593652
1630937429429,-0.744078,0.259189,-0.590602
1630937429439,-0.746213,0.257847,-0.588955
1630937429448,-0.746518,0.25803,-0.5903579999999999
1630937429458,-0.74603,0.25912799999999997,-0.590236
1630937429467,-0.745786,0.257176,-0.5866979999999999
1630937429477,-0.746091,0.254553,-0.583831
1630937429487,-0.745725,0.254492,-0.580476
1630937429496,-0.744688,0.254187,-0.577365
1630937429506,-0.742675,0.25498,-0.576816
1630937429515,-0.745725,0.255041,-0.579805
1630937429525,-0.745481,0.255712,-0.582367
1630937429535,-0.747616,0.254614,-0.58255
1630937429544,-0.747738,0.254431,-0.580659
1630937429554,-0.748653,0.254126,-0.578402
1630937429563,-0.749019,0.254492,-0.578829
1630937429573,-0.74908,0.255407,-0.580171
1630937429583,-0.749202,0.256627,-0.581208
1630937429592,-0.751703,0.257847,-0.584014
1630937429602,-0.7549359999999999,0.259616,-0.583526
1630937429611,-0.758047,0.260897,-0.584319
1630937429621,-0.759145,0.26169,-0.584136
1630937429631,-0.7601209999999999,0.26126299999999997,-0.584441
1630937429640,-0.760609,0.262422,-0.587247
1630937429650,-0.762073,0.262056,-0.58987
1630937429659,-0.76311,0.261324,-0.593225
1630937429669,-0.764208,0.263154,-0.596702
1630937429679,-0.766099,0.262544,-0.597678
1630937429688,-0.767807,0.262239,-0.599386
1630937429698,-0.7686,0.261324,-0.60085
1630937429707,-0.767807,0.260775,-0.601216
1630937429717,-0.766892,0.258701,-0.601948
1630937429727,-0.766282,0.25803,-0.602436
1630937429736,-0.763842,0.256505,-0.603412
1630937429746,-0.760548,0.254492,-0.601521
1630937429755,-0.758169,0.25315,-0.601033
1630937429765,-0.75274,0.252357,-0.599264
1630937429775,-0.748226,0.25193,-0.597495
1630937429784,-0.744993,0.250039,-0.5949329999999999
1630937429794,-0.739015,0.24888,-0.594872
1630937429803,-0.732671,0.247782,-0.589809
1630937429813,-0.727791,0.244305,-0.587186
1630937429823,-0.721996,0.24357299999999998,-0.584014
1630937429832,-0.715896,0.24387799999999998,-0.580232
1630937429842,-0.716811,0.241499,-0.584014
1630937429851,-0.718397,0.24156,-0.5866979999999999
1630937429861,-0.722728,0.24143799999999999,-0.589321
1630937429871,-0.724985,0.24204799999999999,-0.590907
1630937429880,-0.72773,0.243756,-0.592676
1630937429890,-0.7290719999999999,0.243756,-0.592432
1630937429899,-0.734623,0.244366,-0.5917
1630937429909,-0.7388319999999999,0.243207,-0.594384
1630937429919,-0.744383,0.242109,-0.599203
1630937429928,-0.749385,0.241987,-0.60451
1630937429938,-0.753167,0.241804,-0.606462
1630937429947,-0.755424,0.241255,-0.606645
1630937429957,-0.7570709999999999,0.24143799999999999,-0.60634
1630937429967,-0.7582909999999999,0.23954699999999998,-0.604937
1630937429976,-0.760975,0.237473,-0.603961
1630937429986,-0.764208,0.23680199999999998,-0.604083
1630937429995,-0.764513,0.23729,-0.602314
1630937430005,-0.762988,0.235033,-0.598776
1630937430015,-0.7650009999999999,0.231312,-0.59658
1630937430024,-0.76433,0.228506,-0.59841
1630937430034,-0.761768,0.224358,-0.596702
1630937430043,-0.75945,0.22228399999999998,-0.5927979999999999
1630937430053,-0.756278,0.218258,-0.589626
1630937430063,-0.752679,0.21533,-0.591334
1630937430072,-0.751703,0.214415,-0.59231
1630937430082,-0.752008,0.214537,-0.589504
1630937430091,-0.7506659999999999,0.217282,-0.584502
1630937430101,-0.749568,0.219966,-0.581574
1630937430111,-0.747372,0.223504,-0.580476
1630937430120,-0.746091,0.225334,-0.579866
1630937430130,-0.745542,0.228567,-0.580659
1630937430139,-0.746274,0.232959,-0.581513
1630937430149,-0.746274,0.236436,-0.582123
1630937430159,-0.748592,0.238266,-0.582428
1630937430168,-0.7503,0.239913,-0.583099
1630937430178,-0.751825,0.241194,-0.5857829999999999
1630937430187,-0.7528009999999999,0.243817,-0.587064
1630937430197,-0.755119,0.247843,-0.587369
1630937430207,-0.757254,0.251137,-0.58865
1630937430216,-0.7595109999999999,0.255285,-0.591212
1630937430226,-0.761829,0.259921,-0.593957
1630937430235,-0.763415,0.261812,-0.596946
1630937430245,-0.764513,0.262666,-0.600118
1630937430255,-0.764635,0.264679,-0.602131
1630937430264,-0.7656109999999999,0.263886,-0.60329
1630937430274,-0.766404,0.261995,-0.603473
1630937430283,-0.76494,0.264191,-0.60268
1630937430293,-0.76494,0.263886,-0.600728
1630937430303,-0.760914,0.26187299999999997,-0.599264
1630937430312,-0.7579859999999999,0.259311,-0.602192
1630937430322,-0.756888,0.259067,-0.605608
1630937430331,-0.7540209999999999,0.258152,-0.604205
1630937430341,-0.7515809999999999,0.25559,-0.601582
1630937430351,-0.749873,0.251686,-0.597678
1630937430360,-0.748409,0.247782,-0.596885
1630937430370,-0.746579,0.244976,-0.596946
1630937430379,-0.742858,0.242536,-0.597617
1630937430389,-0.742431,0.23924199999999998,-0.597373
1630937430399,-0.740723,0.238144,-0.5978
1630937430408,-0.739076,0.236924,-0.596885
1630937430418,-0.7385269999999999,0.234423,-0.597007
1630937430427,-0.737124,0.23241,-0.595909
1630937430437,-0.7376119999999999,0.228872,-0.59597
1630937430447,-0.7382219999999999,0.225517,-0.596275
1630937430456,-0.740784,0.22167399999999998,-0.599264
1630937430466,-0.74115,0.22014899999999998,-0.59963
1630937430475,-0.741333,0.217526,-0.599813
1630937430485,-0.741638,0.214964,-0.599996
1630937430495,-0.742065,0.214415,-0.600667
1630937430504,-0.7431019999999999,0.214354,-0.601643
1630937430514,-0.743285,0.214232,-0.602192
1630937430523,-0.744139,0.215452,-0.601826
1630937430533,-0.745115,0.216184,-0.601948
1630937430543,-0.745542,0.216489,-0.602741
1630937430552,-0.746396,0.218868,-0.602314
1630937430562,-0.747372,0.221857,-0.602192
1630937430571,-0.7503,0.224602,-0.604083
1630937430581,-0.752618,0.229055,-0.606462
1630937430591,-0.754082,0.233935,-0.607072
1630937430600,-0.7549359999999999,0.23741199999999998,-0.604754
1630937430610,-0.755912,0.23893699999999998,-0.602558
1630937430619,-0.75762,0.24095,-0.600606
1630937430629,-0.76067,0.245769,-0.601399
1630937430639,-0.759877,0.251564,-0.60146
1630937430648,-0.759877,0.256078,-0.601216
1630937430658,-0.7592059999999999,0.259006,-0.597922
1630937430667,-0.756644,0.259799,-0.59597
1630937430677,-0.75457,0.26004299999999997,-0.594445
1630937430687,-0.753594,0.258457,-0.5934079999999999
1630937430696,-0.752557,0.255956,-0.590236
1630937430706,-0.751703,0.251747,-0.58804
1630937430715,-0.750788,0.248575,-0.588345
1630937430725,-0.749934,0.246074,-0.588284
1630937430735,-0.749568,0.24540299999999998,-0.587552
1630937430744,-0.748531,0.245525,-0.586454
1630937430754,-0.749568,0.24570799999999998,-0.586759
1630937430763,-0.751825,0.24448799999999998,-0.586942
1630937430773,-0.752374,0.243512,-0.58804
1630937430783,-0.753045,0.239974,-0.587186
1630937430792,-0.751337,0.237229,-0.586515
1630937430802,-0.750056,0.234545,-0.585539
1630937430811,-0.751703,0.23369099999999998,-0.58682
1630937430821,-0.7515809999999999,0.234118,-0.589321
1630937430831,-0.751398,0.233142,-0.592432
1630937430840,-0.752313,0.231068,-0.59597
1630937430850,-0.75213,0.231617,-0.599752
1630937430859,-0.753594,0.229909,-0.602558
1630937430869,-0.752618,0.22997,-0.602192
1630937430879,-0.753594,0.229604,-0.599142
1630937430888,-0.754387,0.228933,-0.597434
1630937430898,-0.753838,0.22972599999999999,-0.5970679999999999
1630937430907,-0.753533,0.229177,-0.598166
1630937430917,-0.752679,0.229909,-0.599935
1630937430927,-0.751459,0.229482,-0.60207
1630937430936,-0.750483,0.23094599999999998,-0.603839
1630937430946,-0.748897,0.232288,-0.603412
1630937430955,-0.747128,0.23119,-0.602436
1630937430965,-0.746884,0.231434,-0.603656
1630937430975,-0.747433,0.233569,-0.604815
1630937430984,-0.746762,0.234362,-0.607194
1630937430994,-0.746762,0.236741,-0.6079869999999999
1630937431003,-0.746274,0.237168,-0.60939
1630937431013,-0.74603,0.23729,-0.60939
1630937431023,-0.744383,0.237229,-0.610305
1630937431032,-0.7442,0.238083,-0.61061
1630937431042,-0.743346,0.237778,-0.609329
1630937431051,-0.74237,0.237839,-0.6092069999999999
1630937431061,-0.742004,0.238266,-0.60878
1630937431071,-0.742614,0.237168,-0.609756
1630937431080,-0.741089,0.236558,-0.609146
1630937431090,-0.742004,0.237351,-0.610549
1630937431099,-0.7421869999999999,0.23588699999999999,-0.6122569999999999
1630937431109,-0.743651,0.235704,-0.612196
1630937431119,-0.744261,0.234118,-0.61244
1630937431128,-0.743285,0.232532,-0.61366
1630937431138,-0.743773,0.229055,-0.616771
1630937431147,-0.744627,0.22600499999999998,-0.617381
1630937431157,-0.744322,0.223687,-0.616161
1630937431167,-0.742919,0.222101,-0.612928
1630937431176,-0.743773,0.22106399999999998,-0.612013
1630937431186,-0.742248,0.21984399999999998,-0.612928
1630937431195,-0.741516,0.22045399999999998,-0.615246
1630937431205,-0.741211,0.21923399999999998,-0.614026
1630937431215,-0.741394,0.217831,-0.6134769999999999
1630937431224,-0.740906,0.217526,-0.612989
1630937431234,-0.7388319999999999,0.21594,-0.610976
1630937431243,-0.737978,0.21581799999999998,-0.611708
1630937431253,-0.736758,0.216672,-0.611708
1630937431263,-0.737124,0.216672,-0.6113419999999999
1630937431272,-0.737368,0.21777,-0.609939
1630937431282,-0.736514,0.217892,-0.609573
1630937431291,-0.737124,0.218136,-0.6089019999999999
1630937431301,-0.7357819999999999,0.219051,-0.606828
1630937431311,-0.736453,0.21892899999999998,-0.606584
1630937431320,-0.736636,0.220698,-0.608231
1630937431330,-0.7363919999999999,0.222528,-0.609695
1630937431339,-0.7376119999999999,0.222833,-0.608963
1630937431349,-0.7376119999999999,0.223382,-0.608414
1630937431359,-0.739198,0.224419,-0.60878
1630937431368,-0.739686,0.224724,-0.608719
1630937431378,-0.740174,0.227103,-0.609634
1630937431387,-0.740235,0.228811,-0.609695
1630937431397,-0.741394,0.22936,-0.609634
1630937431407,-0.742736,0.229482,-0.608475
1630937431416,-0.742675,0.22942099999999999,-0.607743
1630937431426,-0.743346,0.230092,-0.607438
1630937431435,-0.743468,0.230397,-0.607804
1630937431445,-0.7442,0.2318,-0.608841
1630937431455,-0.743834,0.232593,-0.6092069999999999
1630937431464,-0.745359,0.23369099999999998,-0.6089019999999999
1630937431474,-0.746213,0.233569,-0.609451
1630937431483,-0.746335,0.232227,-0.6104269999999999
1630937431493,-0.746945,0.23247099999999998,-0.6089019999999999
1630937431503,-0.74786,0.231739,-0.609146
1630937431512,-0.748226,0.23125099999999998,-0.6095119999999999
1630937431522,-0.748409,0.230702,-0.610244
1630937431531,-0.748836,0.23003099999999999,-0.610793
1630937431541,-0.747433,0.229665,-0.6095119999999999
1630937431551,-0.74786,0.228323,-0.609573
1630937431560,-0.746518,0.228262,-0.608658
1630937431570,-0.745847,0.227103,-0.607438
1630937431579,-0.745054,0.226676,-0.606889
1630937431589,-0.744444,0.226066,-0.60573
1630937431599,-0.744993,0.226493,-0.605303
1630937431608,-0.747494,0.22722499999999998,-0.604937
1630937431618,-0.747616,0.227042,-0.605242
1630937431627,-0.748226,0.22630999999999998,-0.605852
1630937431637,-0.746884,0.22478499999999998,-0.606889
1630937431647,-0.74542,0.224114,-0.607194
1630937431656,-0.74786,0.223626,-0.6085969999999999
1630937431666,-0.747067,0.22417499999999999,-0.60939
1630937431675,-0.745542,0.224053,-0.607621
1630937431685,-0.74664,0.221491,-0.607133
1630937431695,-0.745542,0.221186,-0.60817
1630937431704,-0.743773,0.22265,-0.609634
1630937431714,-0.743834,0.223016,-0.6076819999999999
1630937431723,-0.744566,0.22167399999999998,-0.602924
1630937431733,-0.74664,0.22326,-0.600545
1630937431743,-0.746945,0.222833,-0.599569
1630937431752,-0.747128,0.224541,-0.603473
1630937431762,-0.748226,0.225029,-0.606462
1630937431771,-0.74969,0.225517,-0.608231
1630937431781,-0.749995,0.225883,-0.60756
1630937431791,-0.749324,0.224968,-0.606828
1630937431800,-0.751032,0.224358,-0.607499
1630937431810,-0.75091,0.224602,-0.607072
1630937431819,-0.7512759999999999,0.224236,-0.606096
1630937431829,-0.752435,0.223321,-0.605608
1630937431839,-0.75274,0.22204,-0.60634
1630937431848,-0.7528009999999999,0.221003,-0.605791
1630937431858,-0.7518859999999999,0.219722,-0.605974
1630937431867,-0.751825,0.219112,-0.605486
1630937431877,-0.7528009999999999,0.21831899999999999,-0.60512
1630937431887,-0.75213,0.218746,-0.604632
1630937431896,-0.751093,0.21831899999999999,-0.604083
1630937431906,-0.750361,0.216062,-0.604022
1630937431915,-0.749324,0.21594,-0.602863
1630937431925,-0.750056,0.215269,-0.601948
1630937431935,-0.749446,0.21429299999999998,-0.601216
1630937431944,-0.747738,0.215025,-0.601765
1630937431954,-0.750544,0.215025,-0.60024
1630937431963,-0.748653,0.215635,-0.598776
1630937431973,-0.74786,0.21551299999999998,-0.603351
1630937431983,-0.748958,0.216611,-0.60451
1630937431992,-0.750239,0.216062,-0.605059
1630937432002,-0.750178,0.217587,-0.604205
1630937432011,-0.7506659999999999,0.218197,-0.602558
1630937432021,-0.748775,0.22021,-0.600606
1630937432031,-0.749385,0.222467,-0.600606
1630937432040,-0.748958,0.22417499999999999,-0.601338
1630937432050,-0.749629,0.226127,-0.601765
1630937432059,-0.749202,0.226981,-0.602009
1630937432069,-0.749934,0.227286,-0.602436
1630937432079,-0.749141,0.228994,-0.602436
1630937432088,-0.749385,0.228872,-0.603717
1630937432098,-0.748836,0.229787,-0.604083
1630937432107,-0.748531,0.22875,-0.603656
1630937432117,-0.749385,0.22997,-0.601948
1630937432127,-0.748531,0.231007,-0.602985
1630937432136,-0.748104,0.229665,-0.601582
1630937432146,-0.748653,0.22942099999999999,-0.600484
1630937432155,-0.74908,0.228994,-0.599752
1630937432165,-0.748104,0.230519,-0.60085
1630937432175,-0.748287,0.23125099999999998,-0.60268
1630937432184,-0.749324,0.230702,-0.603961
1630937432194,-0.750178,0.230092,-0.60268
1630937432203,-0.7512759999999999,0.229787,-0.602863
1630937432213,-0.750178,0.229238,-0.602741
1630937432223,-0.750422,0.229543,-0.602558
1630937432232,-0.751154,0.22942099999999999,-0.603656
1630937432242,-0.7518859999999999,0.228018,-0.603168
1630937432251,-0.751215,0.226859,-0.604022
1630937432261,-0.751093,0.226066,-0.604815
1630937432271,-0.750727,0.224663,-0.604327
1630937432280,-0.750483,0.224358,-0.603351
1630937432290,-0.751459,0.22447999999999999,-0.60329
1630937432299,-0.7512759999999999,0.224663,-0.603534
1630937432309,-0.750788,0.224541,-0.604083
1630937432319,-0.751154,0.224907,-0.604632
1630937432328,-0.749751,0.22417499999999999,-0.603412
1630937432338,-0.749751,0.224236,-0.603046
1630937432347,-0.750544,0.224419,-0.603107
1630937432357,-0.749934,0.225761,-0.603412
1630937432367,-0.750178,0.225151,-0.602558
1630937432376,-0.749507,0.225578,-0.601887
1630937432386,-0.748287,0.226188,-0.601155
1630937432395,-0.748165,0.22508999999999998,-0.601948
1630937432405,-0.747677,0.226188,-0.602619
1630937432415,-0.747799,0.226493,-0.604449
1630937432424,-0.748287,0.228018,-0.603778
1630937432434,-0.747799,0.227408,-0.6039
1630937432443,-0.747677,0.226737,-0.602131
1630937432453,-0.747982,0.22569999999999998,-0.602253
1630937432463,-0.748531,0.224358,-0.602192
1630937432472,-0.748409,0.225273,-0.602863
1630937432482,-0.747433,0.22447999999999999,-0.603107
1630937432491,-0.747555,0.223077,-0.604815
1630937432501,-0.748104,0.220942,-0.60756
1630937432511,-0.749385,0.21923399999999998,-0.6104269999999999
1630937432520,-0.747799,0.21923399999999998,-0.607316
1630937432530,-0.74786,0.217404,-0.604693
1630937432539,-0.747494,0.217282,-0.607499
1630937432549,-0.747189,0.22021,-0.605181
1630937432559,-0.748592,0.222223,-0.603473
1630937432568,-0.750056,0.224236,-0.602436
1630937432578,-0.751398,0.225517,-0.602985
1630937432587,-0.749873,0.228079,-0.605303
1630937432597,-0.749568,0.226981,-0.60695
1630937432607,-0.749446,0.225944,-0.607743
1630937432616,-0.749568,0.22447999999999999,-0.607072
1630937432626,-0.74908,0.222223,-0.607011
1630937432635,-0.748897,0.220881,-0.606157
1630937432645,-0.746701,0.22014899999999998,-0.604388
1630937432655,-0.745969,0.220637,-0.603778
1630937432664,-0.746152,0.222589,-0.603778
1630937432674,-0.746884,0.223077,-0.601704
1630937432683,-0.745176,0.224419,-0.603717
1630937432693,-0.745664,0.22447999999999999,-0.602985
1630937432703,-0.745298,0.222955,-0.603046
1630937432712,-0.746579,0.222467,-0.604327
1630937432722,-0.746762,0.223016,-0.606462
1630937432731,-0.746701,0.22265,-0.605669
1630937432741,-0.746274,0.222406,-0.604693
1630937432751,-0.746335,0.223443,-0.60512
1630937432760,-0.746335,0.223748,-0.605181
1630937432770,-0.74725,0.22478499999999998,-0.602924
1630937432779,-0.748226,0.225883,-0.60268
1630937432789,-0.746396,0.225822,-0.603168
1630937432799,-0.746396,0.225212,-0.608109
1630937432808,-0.746945,0.226127,-0.609146
1630937432818,-0.74664,0.226554,-0.606584
1630937432827,-0.747433,0.226188,-0.603412
1630937432837,-0.747799,0.22691999999999998,-0.602802
1630937432847,-0.747982,0.227408,-0.6039
1630937432856,-0.747494,0.228506,-0.604571
1630937432866,-0.747372,0.22875,-0.605547
1630937432875,-0.747311,0.230092,-0.605181
1630937432885,-0.747128,0.23125099999999998,-0.605547
1630937432895,-0.748226,0.23125099999999998,-0.60451
1630937432904,-0.748409,0.231495,-0.603656
1630937432914,-0.748348,0.232898,-0.604754
1630937432923,-0.748653,0.232898,-0.606157
1630937432933,-0.747738,0.23155599999999998,-0.60512
1630937432943,-0.74725,0.230824,-0.604205
1630937432952,-0.747067,0.231007,-0.602497
1630937432962,-0.746213,0.230824,-0.603412
1630937432971,-0.747128,0.22972599999999999,-0.602314
1630937432981,-0.747067,0.230153,-0.602924
1630937432991,-0.747555,0.229055,-0.60512
1630937433000,-0.748958,0.22844499999999998,-0.604998
1630937433010,-0.749507,0.228506,-0.605547
1630937433019,-0.749385,0.228872,-0.606096
1630937433029,-0.748653,0.228689,-0.604754
1630937433039,-0.748958,0.226798,-0.605303
1630937433048,-0.749751,0.225273,-0.604754
1630937433058,-0.748653,0.225883,-0.605303
1630937433067,-0.749141,0.22539499999999998,-0.605303
1630937433077,-0.748897,0.22539499999999998,-0.606035
1630937433087,-0.748226,0.225151,-0.605974
1630937433096,-0.748958,0.225151,-0.606279
1630937433106,-0.747677,0.225761,-0.605669
1630937433115,-0.747372,0.225334,-0.605852
1630937433125,-0.747189,0.226676,-0.604754
1630937433135,-0.746274,0.22630999999999998,-0.605974
1630937433144,-0.747128,0.22661499999999998,-0.604937
1630937433154,-0.746274,0.226798,-0.606035
1630937433163,-0.746762,0.225761,-0.604754
1630937433173,-0.745725,0.225822,-0.604876
1630937433183,-0.745298,0.225822,-0.605303
1630937433192,-0.745054,0.226676,-0.604937
1630937433202,-0.745115,0.226676,-0.605852
1630937433211,-0.744261,0.227042,-0.605791
1630937433221,-0.744322,0.227774,-0.605486
1630937433231,-0.745115,0.229116,-0.604998
1630937433240,-0.745603,0.229238,-0.604388
1630937433250,-0.746823,0.229482,-0.605425
1630937433259,-0.746762,0.229665,-0.60512
1630937433269,-0.745786,0.229787,-0.605242
1630937433279,-0.746945,0.228872,-0.607377
1630937433288,-0.747616,0.229665,-0.6082919999999999
1630937433298,-0.746152,0.228811,-0.609695
1630937433307,-0.745786,0.225822,-0.609268
1630937433317,-0.744932,0.22447999999999999,-0.610244
1630937433327,-0.744871,0.222711,-0.6116469999999999
1630937433336,-0.74481,0.22326,-0.61122
1630937433346,-0.74603,0.223077,-0.6098169999999999
1630937433355,-0.745786,0.225029,-0.605364
1630937433365,-0.745847,0.225029,-0.603229
1630937433375,-0.746335,0.22661499999999998,-0.603534
1630937433384,-0.746823,0.226798,-0.605608
1630937433394,-0.745969,0.227652,-0.607621
1630937433403,-0.745786,0.227286,-0.607926
1630937433413,-0.745664,0.226432,-0.609451
1630937433423,-0.745481,0.226371,-0.609268
1630937433432,-0.746518,0.224541,-0.6089019999999999
1630937433442,-0.746457,0.223626,-0.607255
1630937433451,-0.745786,0.225029,-0.608048
1630937433461,-0.745603,0.225639,-0.608475
1630937433471,-0.745664,0.22447999999999999,-0.608475
1630937433480,-0.745298,0.224724,-0.608231
1630937433490,-0.746213,0.223504,-0.607316
1630937433499,-0.745603,0.223016,-0.607133
1630937433509,-0.745359,0.224419,-0.607621
1630937433519,-0.745908,0.224053,-0.608841
1630937433528,-0.746274,0.222955,-0.609756
1630937433538,-0.746274,0.22265,-0.609451
1630937433547,-0.745725,0.223748,-0.6079869999999999
1630937433557,-0.745603,0.223748,-0.6076819999999999
1630937433567,-0.744444,0.224053,-0.607926
1630937433576,-0.745176,0.22447999999999999,-0.605486
1630937433586,-0.744505,0.224724,-0.604632
1630937433595,-0.743224,0.223626,-0.607316
1630937433605,-0.743956,0.224358,-0.609939
1630937433615,-0.743346,0.223504,-0.6104269999999999
1630937433624,-0.744139,0.223016,-0.609573
1630937433634,-0.744261,0.222223,-0.607011
1630937433643,-0.744322,0.22197899999999998,-0.606523
1630937433653,-0.743224,0.222406,-0.607499
1630937433663,-0.743346,0.223199,-0.607621
1630937433672,-0.742675,0.224663,-0.60817
1630937433682,-0.742919,0.225944,-0.608475
1630937433691,-0.743163,0.22600499999999998,-0.6082919999999999
1630937433701,-0.7434069999999999,0.226859,-0.608719
1630937433711,-0.744688,0.226554,-0.607865
1630937433720,-0.744444,0.226798,-0.609024
1630937433730,-0.744627,0.227408,-0.608963
1630937433739,-0.744383,0.22783499999999998,-0.6095119999999999
1630937433749,-0.744444,0.227652,-0.608719
1630937433759,-0.744383,0.226981,-0.60756
1630937433768,-0.745176,0.226737,-0.606462
1630937433778,-0.745786,0.228384,-0.607316
1630937433787,-0.745237,0.229116,-0.607316
1630937433797,-0.746152,0.229543,-0.609085
1630937433807,-0.747006,0.229909,-0.608536
1630937433816,-0.747677,0.229482,-0.609573
1630937433826,-0.74786,0.228811,-0.609024
1630937433835,-0.748287,0.227896,-0.6085969999999999
1630937433845,-0.748592,0.226859,-0.608109
1630937433855,-0.748836,0.225578,-0.609146
1630937433864,-0.749385,0.22539499999999998,-0.6089019999999999
1630937433874,-0.748409,0.22539499999999998,-0.607316
1630937433883,-0.748348,0.224358,-0.607926
1630937433893,-0.746884,0.222955,-0.606523
1630937433903,-0.74725,0.222833,-0.60695
1630937433912,-0.747921,0.221918,-0.606584
1630937433922,-0.746884,0.22143,-0.605608
1630937433931,-0.746213,0.221247,-0.604693
1630937433941,-0.746945,0.22106399999999998,-0.606157
1630937433951,-0.74664,0.220393,-0.60634
1630937433960,-0.746579,0.220698,-0.606523
1630937433970,-0.746701,0.22167399999999998,-0.606462
1630937433979,-0.74725,0.222589,-0.606584
1630937433989,-0.746396,0.222711,-0.607438
1630937433999,-0.746579,0.223687,-0.607011
1630937434008,-0.746091,0.223077,-0.607438
1630937434018,-0.746091,0.222528,-0.607377
1630937434027,-0.745786,0.223138,-0.607072
1630937434037,-0.745847,0.22265,-0.605852
1630937434047,-0.746884,0.223443,-0.604937
1630937434056,-0.744871,0.224541,-0.605303
1630937434066,-0.745359,0.225029,-0.606279
1630937434075,-0.744505,0.226127,-0.606035
1630937434085,-0.745359,0.226188,-0.606401
1630937434095,-0.745176,0.22813999999999998,-0.605608
1630937434104,-0.74542,0.228811,-0.604754
1630937434114,-0.745908,0.228628,-0.604876
1630937434123,-0.747128,0.228384,-0.604815
1630937434133,-0.746213,0.227042,-0.606096
1630937434143,-0.746213,0.22691999999999998,-0.605608
1630937434152,-0.74847,0.227103,-0.6076819999999999
1630937434162,-0.746457,0.227042,-0.608475
1630937434171,-0.74664,0.224907,-0.608414
1630937434181,-0.745481,0.224358,-0.610061
1630937434191,-0.744566,0.22417499999999999,-0.6101219999999999
1630937434200,-0.744017,0.22386999999999999,-0.6082919999999999
1630937434210,-0.744383,0.225029,-0.604571
1630937434219,-0.744627,0.225944,-0.600789
1630937434229,-0.745359,0.227957,-0.600362
1630937434239,-0.745664,0.229055,-0.600911
1630937434248,-0.74542,0.230275,-0.604449
1630937434258,-0.746884,0.23155599999999998,-0.606767
1630937434267,-0.748592,0.231678,-0.608231
1630937434277,-0.747433,0.232532,-0.608658
1630937434287,-0.747494,0.231678,-0.607072
1630937434296,-0.748592,0.23125099999999998,-0.60695
1630937434306,-0.748531,0.231495,-0.606523
1630937434315,-0.74847,0.23058,-0.605425
1630937434325,-0.748287,0.229909,-0.606401
1630937434335,-0.748592,0.229848,-0.605852
1630937434344,-0.748409,0.228628,-0.60573
1630937434354,-0.748531,0.22783499999999998,-0.60634
1630937434363,-0.748531,0.226859,-0.606401
1630937434373,-0.748104,0.22508999999999998,-0.605974
1630937434383,-0.748592,0.224602,-0.606218
1630937434392,-0.747189,0.22386999999999999,-0.606523
1630937434402,-0.748104,0.223992,-0.606645
1630937434411,-0.74725,0.222467,-0.606584
1630937434421,-0.746945,0.221247,-0.605913
1630937434431,-0.746274,0.222345,-0.605181
1630937434440,-0.746213,0.222833,-0.604693
1630937434450,-0.746884,0.223199,-0.604876
1630937434459,-0.745969,0.223687,-0.605242
1630937434469,-0.747494,0.223443,-0.609451
1630937434479,-0.74725,0.222711,-0.6107319999999999
1630937434488,-0.748592,0.222528,-0.610366
1630937434498,-0.747372,0.222772,-0.607255
1630937434507,-0.747494,0.222406,-0.605913
1630937434517,-0.746152,0.222223,-0.605974
1630937434527,-0.746579,0.223321,-0.606096
1630937434536,-0.746579,0.223992,-0.606828
1630937434546,-0.746274,0.225029,-0.607255
1630937434555,-0.745847,0.225029,-0.606462
1630937434565,-0.746091,0.225456,-0.606889
1630937434575,-0.745481,0.225212,-0.606157
1630937434584,-0.745115,0.226676,-0.605425
1630937434594,-0.745908,0.225212,-0.60634
1630937434603,-0.745542,0.225639,-0.605486
1630937434613,-0.746152,0.224724,-0.605547
1630937434623,-0.745237,0.225578,-0.604632
1630937434632,-0.745298,0.225517,-0.603351
1630937434642,-0.745176,0.226188,-0.60329
1630937434651,-0.746152,0.226066,-0.603412
1630937434661,-0.746823,0.226066,-0.604144
1630937434671,-0.747616,0.226188,-0.604571
1630937434680,-0.748165,0.225334,-0.605547
1630937434690,-0.749629,0.226066,-0.604876
1630937434699,-0.749446,0.225578,-0.604876
1630937434709,-0.749324,0.224968,-0.604998
1630937434719,-0.748958,0.22447999999999999,-0.604327
1630937434728,-0.750178,0.22478499999999998,-0.604998
1630937434738,-0.74969,0.225334,-0.604815
1630937434747,-0.750117,0.225273,-0.604388
1630937434757,-0.7506659999999999,0.224114,-0.6039
1630937434767,-0.750117,0.225273,-0.604266
1630937434776,-0.749934,0.225456,-0.60329
1630937434786,-0.749751,0.225334,-0.605242
1630937434795,-0.748714,0.22600499999999998,-0.604876
1630937434805,-0.748348,0.226249,-0.603534
1630937434815,-0.749263,0.226371,-0.604449
1630937434824,-0.748165,0.22722499999999998,-0.603595
1630937434834,-0.74786,0.227591,-0.604266
1630937434843,-0.747921,0.227652,-0.60512
1630937434853,-0.747921,0.226737,-0.604571
1630937434863,-0.747677,0.226859,-0.604937
1630937434872,-0.747189,0.227774,-0.604693
1630937434882,-0.746152,0.22844499999999998,-0.604449
1630937434891,-0.746213,0.227774,-0.604449
1630937434901,-0.747006,0.226737,-0.60512
1630937434911,-0.746701,0.226859,-0.604327
1630937434920,-0.747494,0.22630999999999998,-0.604876
1630937434930,-0.746823,0.225944,-0.605425
1630937434939,-0.74725,0.224968,-0.605913
1630937434949,-0.747067,0.22447999999999999,-0.605791
1630937434959,-0.747067,0.224663,-0.605242
1630937434968,-0.747799,0.223992,-0.605425
1630937434978,-0.747128,0.223931,-0.604815
1630937434987,-0.747311,0.223992,-0.604205
1630937434997,-0.747372,0.224663,-0.60451
1630937435007,-0.747189,0.224602,-0.604571
1630937435016,-0.747616,0.225761,-0.604876
1630937435026,-0.747189,0.226981,-0.604876
1630937435035,-0.747494,0.228201,-0.604632
1630937435045,-0.748104,0.22813999999999998,-0.603168
1630937435055,-0.748409,0.227957,-0.603412
1630937435064,-0.749385,0.227347,-0.604632
1630937435074,-0.748287,0.228506,-0.603595
1630937435083,-0.749263,0.227896,-0.604937
1630937435093,-0.749141,0.229055,-0.607255
1630937435103,-0.748226,0.227957,-0.607926
1630937435112,-0.749202,0.225944,-0.607072
1630937435122,-0.747677,0.225029,-0.609634
1630937435131,-0.746457,0.22447999999999999,-0.609451
1630937435141,-0.746335,0.22447999999999999,-0.60878
1630937435151,-0.74603,0.225639,-0.603595
1630937435160,-0.746152,0.226432,-0.600057
1630937435170,-0.746091,0.226676,-0.599691
1630937435179,-0.74664,0.22600499999999998,-0.600301
1630937435189,-0.746701,0.22813999999999998,-0.602741
1630937435199,-0.74725,0.22942099999999999,-0.60634
1630937435208,-0.747677,0.23003099999999999,-0.606157
1630937435218,-0.747555,0.229787,-0.605791
1630937435227,-0.747006,0.23033599999999999,-0.604632
1630937435237,-0.746762,0.230519,-0.603656
1630937435247,-0.747494,0.231068,-0.602375
1630937435256,-0.747677,0.232898,-0.60268
1630937435266,-0.746823,0.232288,-0.603534
1630937435275,-0.74725,0.231983,-0.603412
1630937435285,-0.747921,0.23155599999999998,-0.602619
1630937435295,-0.747677,0.232105,-0.603839
1630937435304,-0.748104,0.23058,-0.604327
1630937435314,-0.748531,0.229238,-0.603839
1630937435323,-0.747189,0.228872,-0.605181
1630937435333,-0.747616,0.228262,-0.604815
1630937435343,-0.748287,0.22691999999999998,-0.604754
1630937435352,-0.747799,0.22722499999999998,-0.60268
1630937435362,-0.747433,0.228262,-0.60329
1630937435371,-0.748226,0.228079,-0.603595
1630937435381,-0.749263,0.22972599999999999,-0.603717
1630937435391,-0.749385,0.228628,-0.601643
1630937435400,-0.747799,0.228262,-0.60268
1630937435410,-0.747982,0.22783499999999998,-0.606828
1630937435419,-0.747738,0.22691999999999998,-0.60878
1630937435429,-0.748897,0.225273,-0.60756
1630937435439,-0.747799,0.225822,-0.604449
1630937435448,-0.747372,0.224602,-0.602497
1630937435458,-0.747128,0.225761,-0.601277
1630937435467,-0.746335,0.226798,-0.601948
1630937435477,-0.746335,0.226432,-0.603046
1630937435487,-0.746762,0.226554,-0.60451
1630937435496,-0.746762,0.226859,-0.604266
1630937435506,-0.746213,0.22783499999999998,-0.603595
1630937435515,-0.746701,0.227408,-0.604205
1630937435525,-0.746579,0.227591,-0.603107
1630937435535,-0.747616,0.227286,-0.604083
1630937435544,-0.74786,0.227042,-0.60451
1630937435554,-0.748409,0.226554,-0.60451
1630937435563,-0.748775,0.226188,-0.604022
1630937435573,-0.748836,0.226249,-0.602863
1630937435583,-0.747616,0.225822,-0.602558
1630937435592,-0.748104,0.22691999999999998,-0.60268
1630937435602,-0.749202,0.227042,-0.602436
1630937435611,-0.750422,0.227713,-0.603412
1630937435621,-0.751215,0.22722499999999998,-0.604266
1630937435631,-0.751154,0.227103,-0.604388
1630937435640,-0.750483,0.227103,-0.604327
1630937435650,-0.751032,0.22569999999999998,-0.604266
1630937435659,-0.7509709999999999,0.225212,-0.60329
1630937435669,-0.7509709999999999,0.224724,-0.603534
1630937435679,-0.7503,0.225334,-0.602985
1630937435688,-0.751093,0.223626,-0.602375
1630937435698,-0.7506659999999999,0.224602,-0.60207
1630937435707,-0.749751,0.22478499999999998,-0.600911
1630937435717,-0.750483,0.22447999999999999,-0.601826
1630937435727,-0.7503,0.224907,-0.602802
1630937435736,-0.74969,0.225761,-0.601216
1630937435746,-0.74969,0.225212,-0.601338
1630937435755,-0.750239,0.224724,-0.601338
1630937435765,-0.748836,0.225273,-0.601765
1630937435775,-0.748592,0.225456,-0.602253
1630937435784,-0.748043,0.22630999999999998,-0.601887
1630937435794,-0.748653,0.227042,-0.601277
1630937435803,-0.748287,0.227042,-0.601338
1630937435813,-0.747006,0.227774,-0.601338
1630937435823,-0.748836,0.228079,-0.601155
1630937435832,-0.748287,0.22875,-0.601155
1630937435842,-0.74847,0.22942099999999999,-0.600972
1630937435851,-0.748897,0.229604,-0.601704
1630937435861,-0.749141,0.228994,-0.601521
1630937435871,-0.749141,0.22936,-0.601155
1630937435880,-0.750178,0.228872,-0.601826
1630937435890,-0.749812,0.229055,-0.601094
1630937435899,-0.750483,0.22844499999999998,-0.600911
1630937435909,-0.750849,0.229055,-0.600972
1630937435919,-0.751154,0.229116,-0.601582
1630937435928,-0.75152,0.228933,-0.60085
1630937435938,-0.751154,0.228384,-0.599874
1630937435947,-0.751337,0.22813999999999998,-0.599081
1630937435957,-0.750422,0.227652,-0.599142
1630937435967,-0.751337,0.228079,-0.60146
1630937435976,-0.7515809999999999,0.228689,-0.602558
1630937435986,-0.751642,0.23033599999999999,-0.600484
1630937435995,-0.75152,0.229848,-0.60024
1630937436005,-0.751947,0.229848,-0.598288
1630937436015,-0.75213,0.228872,-0.596824
1630937436024,-0.753472,0.227591,-0.598593
1630937436034,-0.7537159999999999,0.229177,-0.598349
1630937436043,-0.752435,0.228506,-0.59841
1630937436053,-0.752984,0.22752999999999998,-0.60085
1630937436063,-0.7531059999999999,0.226859,-0.602375
1630937436072,-0.752679,0.224114,-0.604266
1630937436082,-0.750788,0.22508999999999998,-0.602924
1630937436091,-0.7509709999999999,0.223443,-0.601826
1630937436101,-0.749629,0.22228399999999998,-0.602375
1630937436111,-0.749019,0.223138,-0.601216
1630937436120,-0.751398,0.225883,-0.598288
1630937436130,-0.752069,0.227652,-0.596641
1630937436139,-0.753167,0.229909,-0.597922
1630937436149,-0.752374,0.230885,-0.598898
1630937436159,-0.752069,0.230885,-0.600362
1630937436168,-0.75091,0.23033599999999999,-0.600484
1630937436178,-0.751093,0.229116,-0.600667
1630937436187,-0.750788,0.226737,-0.599081
1630937436197,-0.7506659999999999,0.226127,-0.599508
1630937436207,-0.750849,0.224846,-0.599752
1630937436216,-0.750727,0.22508999999999998,-0.598532
1630937436226,-0.75152,0.224724,-0.600057
1630937436235,-0.751642,0.22600499999999998,-0.599142
1630937436245,-0.75091,0.225883,-0.59902
1630937436255,-0.751032,0.226554,-0.599386
1630937436264,-0.751215,0.226554,-0.599691
1630937436274,-0.751337,0.225517,-0.599508
1630937436283,-0.751032,0.226371,-0.599264
1630937436293,-0.752679,0.225517,-0.599325
1630937436303,-0.7515809999999999,0.224968,-0.600545
1630937436312,-0.752252,0.225273,-0.602741
1630937436322,-0.7528009999999999,0.22630999999999998,-0.602253
1630937436331,-0.75213,0.226371,-0.601643
1630937436341,-0.752557,0.22691999999999998,-0.60085
1630937436351,-0.753594,0.226798,-0.599142
1630937436360,-0.7506659999999999,0.22630999999999998,-0.599691
1630937436370,-0.751337,0.22478499999999998,-0.603778
1630937436379,-0.750544,0.224419,-0.60512
1630937436389,-0.750361,0.224236,-0.601582
1630937436399,-0.750727,0.223748,-0.597434
1630937436408,-0.751093,0.223626,-0.596702
1630937436418,-0.7506659999999999,0.223382,-0.598349
1630937436427,-0.750117,0.224236,-0.60146
1630937436437,-0.750056,0.22478499999999998,-0.602741
1630937436447,-0.749934,0.22508999999999998,-0.602192
1630937436456,-0.749812,0.225639,-0.599874
1630937436466,-0.749446,0.225761,-0.598288
1630937436475,-0.749873,0.225761,-0.598288
1630937436485,-0.749446,0.226249,-0.59841
1630937436495,-0.750239,0.226127,-0.599569
1630937436504,-0.751032,0.227164,-0.599996
1630937436514,-0.750544,0.22813999999999998,-0.59963
1630937436523,-0.750727,0.227774,-0.599447
1630937436533,-0.7503,0.228689,-0.598898
1630937436543,-0.752069,0.229116,-0.599264
1630937436552,-0.7521909999999999,0.229238,-0.600728
1630937436562,-0.7528009999999999,0.228384,-0.60207
1630937436571,-0.752618,0.228872,-0.60207
1630937436581,-0.754204,0.227286,-0.601826
1630937436591,-0.753594,0.226737,-0.601582
1630937436600,-0.7534109999999999,0.227164,-0.601521
1630937436610,-0.753777,0.226249,-0.600728
1630937436619,-0.75274,0.227042,-0.600118
1630937436629,-0.752679,0.225639,-0.600484
1630937436639,-0.753167,0.225212,-0.599447
1630937436648,-0.753289,0.224968,-0.60085
1630937436658,-0.752984,0.224663,-0.601216
1630937436667,-0.7524959999999999,0.22356499999999999,-0.601582
1630937436677,-0.752984,0.22356499999999999,-0.601948
1630937436687,-0.752069,0.224297,-0.601582
1630937436696,-0.751154,0.223504,-0.600362
1630937436706,-0.750422,0.223809,-0.600057
1630937436715,-0.7503,0.223748,-0.599813
1630937436725,-0.751337,0.224968,-0.599142
1630937436735,-0.750422,0.224236,-0.598837
1630937436744,-0.749995,0.224846,-0.600423
1630937436754,-0.749995,0.225212,-0.600545
1630937436763,-0.750422,0.225456,-0.600423
1630937436773,-0.7512759999999999,0.22447999999999999,-0.600545
1630937436783,-0.750483,0.224602,-0.601399
1630937436792,-0.751093,0.224114,-0.600667
1630937436802,-0.751459,0.224297,-0.601216
1630937436811,-0.751337,0.223931,-0.60085
1630937436821,-0.7512759999999999,0.224236,-0.601094
1630937436831,-0.751154,0.223443,-0.60146
1630937436840,-0.751337,0.223382,-0.601155
1630937436850,-0.75152,0.222406,-0.600484
1630937436859,-0.7512759999999999,0.222223,-0.600423
1630937436869,-0.750727,0.221735,-0.600057
1630937436879,-0.750178,0.222589,-0.60085
1630937436888,-0.7503,0.223016,-0.601826
1630937436898,-0.751154,0.222772,-0.602253
1630937436907,-0.750788,0.224114,-0.601094
1630937436917,-0.751032,0.223443,-0.600667
1630937436927,-0.751764,0.222589,-0.60024
1630937436936,-0.752374,0.223199,-0.600911
1630937436946,-0.7518859999999999,0.223321,-0.601277
1630937436955,-0.752008,0.224602,-0.601155
1630937436965,-0.751947,0.223443,-0.603656
1630937436975,-0.752984,0.223199,-0.604937
1630937436984,-0.751947,0.22014899999999998,-0.605791
1630937436994,-0.74969,0.2196,-0.605791
1630937437003,-0.749385,0.218197,-0.605547
1630937437013,-0.748287,0.21716,-0.605974
1630937437023,-0.74847,0.21892899999999998,-0.605059
1630937437032,-0.749324,0.220271,-0.600484
1630937437042,-0.74969,0.222406,-0.598349
1630937437051,-0.749507,0.222528,-0.598532
1630937437061,-0.749751,0.223626,-0.60146
1630937437071,-0.751032,0.224907,-0.603656
1630937437080,-0.750056,0.224541,-0.605364
1630937437090,-0.750788,0.22265,-0.604693
1630937437099,-0.749629,0.222894,-0.60512
1630937437109,-0.750544,0.222772,-0.603656
1630937437119,-0.750117,0.220942,-0.602375
1630937437128,-0.749568,0.222345,-0.602131
1630937437138,-0.749568,0.222406,-0.60268
1630937437147,-0.749995,0.222589,-0.602497
1630937437157,-0.749751,0.222101,-0.602009
1630937437167,-0.749873,0.222772,-0.602375
1630937437176,-0.7506659999999999,0.221796,-0.603473
1630937437186,-0.7503,0.22106399999999998,-0.604083
1630937437195,-0.750727,0.221918,-0.604144
1630937437205,-0.750544,0.220698,-0.605425
1630937437215,-0.749995,0.220515,-0.604266
1630937437224,-0.749751,0.22021,-0.603534
1630937437234,-0.749873,0.220942,-0.603961
1630937437243,-0.749873,0.22143,-0.603534
1630937437253,-0.749507,0.221186,-0.603412
1630937437263,-0.750727,0.222772,-0.602802
1630937437272,-0.7503,0.221735,-0.601887
1630937437282,-0.749263,0.22204,-0.604144
1630937437291,-0.748897,0.221735,-0.6082919999999999
1630937437301,-0.749568,0.220881,-0.6082919999999999
1630937437311,-0.750178,0.219966,-0.60512
1630937437320,-0.750239,0.21984399999999998,-0.602924
1630937437330,-0.749873,0.218746,-0.602009
1630937437339,-0.74908,0.219478,-0.602863
1630937437349,-0.749202,0.22014899999999998,-0.604388
1630937437359,-0.748104,0.221735,-0.605181
1630937437368,-0.748592,0.220698,-0.604693
1630937437378,-0.74847,0.22045399999999998,-0.604571
1630937437387,-0.747921,0.220332,-0.60329
1630937437397,-0.748592,0.220698,-0.603473
1630937437407,-0.74847,0.221552,-0.604144
1630937437416,-0.749446,0.220942,-0.60451
1630937437426,-0.749629,0.22045399999999998,-0.604632
1630937437435,-0.749141,0.22082,-0.604388
1630937437445,-0.748348,0.220515,-0.602436
1630937437455,-0.748958,0.221247,-0.601948
1630937437464,-0.748714,0.220515,-0.601826
1630937437474,-0.749629,0.22143,-0.603717
1630937437483,-0.750544,0.221796,-0.604327
1630937437493,-0.7518859999999999,0.220698,-0.605608
1630937437503,-0.7518859999999999,0.220637,-0.604632
1630937437512,-0.751642,0.220393,-0.603839
1630937437522,-0.751825,0.21953899999999998,-0.603534
1630937437531,-0.752008,0.219722,-0.604022
1630937437541,-0.751947,0.21899,-0.604815
1630937437551,-0.752252,0.219356,-0.604693
1630937437560,-0.752008,0.219356,-0.602985
1630937437570,-0.751642,0.218746,-0.602741
1630937437579,-0.7524959999999999,0.218868,-0.603046
1630937437589,-0.751703,0.219783,-0.603534
1630937437599,-0.751215,0.219173,-0.602497
1630937437608,-0.75091,0.219112,-0.602497
1630937437618,-0.750544,0.220088,-0.602375
1630937437627,-0.750605,0.22021,-0.602985
1630937437637,-0.749812,0.221186,-0.60329
1630937437647,-0.75091,0.22106399999999998,-0.603656
1630937437656,-0.750483,0.22136899999999998,-0.60207
1630937437666,-0.749873,0.221247,-0.602741
1630937437675,-0.74969,0.22197899999999998,-0.603473
1630937437685,-0.750056,0.221918,-0.60329
1630937437695,-0.749263,0.221735,-0.603412
1630937437704,-0.74908,0.222345,-0.603839
1630937437714,-0.749141,0.221918,-0.6039
1630937437723,-0.74969,0.221857,-0.603595
1630937437733,-0.749019,0.22265,-0.604327
1630937437743,-0.749324,0.222101,-0.604388
1630937437752,-0.749507,0.22136899999999998,-0.604571
1630937437762,-0.749446,0.221796,-0.604144
1630937437771,-0.749324,0.22167399999999998,-0.605486
1630937437781,-0.749202,0.22136899999999998,-0.604327
1630937437791,-0.749812,0.221613,-0.60573
1630937437800,-0.748836,0.22197899999999998,-0.60512
1630937437810,-0.748226,0.22167399999999998,-0.604449
1630937437819,-0.74847,0.221247,-0.604998
1630937437829,-0.74847,0.221735,-0.604571
1630937437839,-0.748958,0.221247,-0.604815
1630937437848,-0.748165,0.221186,-0.605242
1630937437858,-0.748592,0.221552,-0.603778
1630937437867,-0.747677,0.223138,-0.60512
1630937437877,-0.748714,0.224114,-0.604449
1630937437887,-0.74908,0.22386999999999999,-0.603412
1630937437896,-0.74969,0.22386999999999999,-0.603107
1630937437906,-0.749629,0.222894,-0.603107
1630937437915,-0.749324,0.22265,-0.603473
1630937437925,-0.750117,0.222223,-0.604022
1630937437935,-0.750178,0.223077,-0.605486
1630937437944,-0.75091,0.22265,-0.607194
1630937437954,-0.7506659999999999,0.221796,-0.607377
1630937437963,-0.750239,0.22075899999999998,-0.60817
1630937437973,-0.748958,0.218868,-0.610671
1630937437983,-0.748104,0.22014899999999998,-0.611769
1630937437992,-0.747982,0.219966,-0.607499
1630937438002,-0.746823,0.21984399999999998,-0.604083
1630937438011,-0.747799,0.21984399999999998,-0.600179
1630937438021,-0.747311,0.220515,-0.600423
1630937438031,-0.748348,0.220515,-0.601582
1630937438040,-0.748348,0.221308,-0.605364
1630937438050,-0.748958,0.222528,-0.606096
1630937438059,-0.749568,0.222528,-0.606279
1630937438069,-0.74908,0.221735,-0.605852
1630937438079,-0.748958,0.22106399999999998,-0.605364
1630937438088,-0.748409,0.220393,-0.604449
1630937438098,-0.748714,0.221552,-0.6039
1630937438107,-0.748714,0.222162,-0.603168
1630937438117,-0.748043,0.221735,-0.604632
1630937438127,-0.749141,0.22075899999999998,-0.604449
1630937438136,-0.748592,0.22045399999999998,-0.604876
1630937438146,-0.749141,0.219722,-0.604632
1630937438155,-0.748836,0.219478,-0.605547
1630937438165,-0.749263,0.21801399999999999,-0.60512
1630937438175,-0.750422,0.216916,-0.60634
1630937438184,-0.749446,0.217831,-0.606706
1630937438194,-0.750056,0.217953,-0.606401
1630937438203,-0.749873,0.218197,-0.606218
1630937438213,-0.749141,0.21770899999999999,-0.605486
1630937438223,-0.748104,0.218502,-0.605181
1630937438232,-0.74969,0.219112,-0.60512
1630937438242,-0.749019,0.220027,-0.60451
1630937438251,-0.747311,0.2196,-0.604083
1630937438261,-0.748958,0.21801399999999999,-0.60756
1630937438271,-0.748897,0.217953,-0.608536
1630937438280,-0.748714,0.217831,-0.609634
1630937438290,-0.748104,0.218868,-0.606828
1630937438299,-0.748714,0.219051,-0.605608
1630937438309,-0.74847,0.219478,-0.605181
1630937438319,-0.747189,0.22014899999999998,-0.606218
1630937438328,-0.747372,0.220637,-0.606584
1630937438338,-0.747555,0.22021,-0.606706
1630937438347,-0.747006,0.22082,-0.606523
1630937438357,-0.747128,0.219905,-0.605852
1630937438367,-0.747311,0.219966,-0.606523
1630937438376,-0.747433,0.220088,-0.606523
1630937438386,-0.747067,0.220637,-0.606584
1630937438395,-0.747799,0.220698,-0.606645
1630937438405,-0.74786,0.220942,-0.606767
1630937438415,-0.74908,0.221003,-0.605913
1630937438424,-0.748348,0.22045399999999998,-0.60634
1630937438434,-0.748592,0.221247,-0.605974
1630937438443,-0.748409,0.220637,-0.605913
1630937438453,-0.748775,0.220942,-0.606035
1630937438463,-0.749202,0.220881,-0.606584
1630937438472,-0.7506659999999999,0.220881,-0.606401
1630937438482,-0.750056,0.220027,-0.606401
1630937438491,-0.750239,0.22045399999999998,-0.605669
1630937438501,-0.749385,0.21984399999999998,-0.606218
1630937438511,-0.750117,0.219722,-0.606462
1630937438520,-0.749873,0.219173,-0.60695
1630937438530,-0.750239,0.21953899999999998,-0.606035
1630937438539,-0.74908,0.21892899999999998,-0.604998
1630937438549,-0.749873,0.218563,-0.605181
1630937438559,-0.749019,0.217465,-0.604388
1630937438568,-0.748714,0.217404,-0.604754
1630937438578,-0.747982,0.217465,-0.60451
1630937438587,-0.74847,0.217648,-0.605425
1630937438597,-0.74786,0.217221,-0.605486
1630937438607,-0.748714,0.218746,-0.605486
1630937438616,-0.747433,0.219966,-0.605608
1630937438626,-0.748165,0.22045399999999998,-0.60512
1630937438635,-0.748043,0.221308,-0.605852
1630937438645,-0.747311,0.221552,-0.605242
1630937438655,-0.748043,0.222345,-0.605181
1630937438664,-0.748165,0.222223,-0.605791
1630937438674,-0.748531,0.22204,-0.605852
1630937438683,-0.748531,0.22204,-0.605974
1630937438693,-0.747799,0.221918,-0.605547
1630937438703,-0.748165,0.222467,-0.60573
1630937438712,-0.748165,0.221857,-0.605852
1630937438722,-0.748287,0.22143,-0.606279
1630937438731,-0.749202,0.221003,-0.606584
1630937438741,-0.749141,0.221125,-0.60573
1630937438751,-0.749202,0.220332,-0.606706
1630937438760,-0.748897,0.220942,-0.604876
1630937438770,-0.749019,0.219905,-0.605547
1630937438779,-0.749446,0.21899,-0.606279
1630937438789,-0.749141,0.21899,-0.605547
1630937438799,-0.749751,0.218502,-0.605486
1630937438808,-0.749446,0.21838,-0.606096
1630937438818,-0.74969,0.21777,-0.605547
1630937438827,-0.749873,0.21831899999999999,-0.604876
1630937438837,-0.750483,0.218685,-0.605059
1630937438847,-0.748775,0.219478,-0.604998
1630937438856,-0.748043,0.219173,-0.605181
1630937438866,-0.749446,0.21984399999999998,-0.60573
1630937438875,-0.749324,0.22075899999999998,-0.604693
1630937438885,-0.74908,0.22021,-0.604205
1630937438895,-0.7503,0.22045399999999998,-0.603473
1630937438904,-0.7512759999999999,0.220515,-0.603839
1630937438914,-0.749446,0.219783,-0.604815
1630937438923,-0.749446,0.218685,-0.604815
1630937438933,-0.751642,0.218685,-0.606828
1630937438943,-0.750544,0.21953899999999998,-0.608414
1630937438952,-0.751215,0.217892,-0.607194
1630937438962,-0.750544,0.216916,-0.608231
1630937438971,-0.749141,0.216916,-0.609573
1630937438981,-0.747921,0.21655,-0.608658
1630937438991,-0.747921,0.216611,-0.606096
1630937439000,-0.747555,0.217465,-0.602741
1630937439010,-0.747555,0.218197,-0.601399
1630937439019,-0.747128,0.219112,-0.601338
1630937439029,-0.747555,0.219661,-0.603595
1630937439039,-0.747982,0.220027,-0.606462
1630937439048,-0.749202,0.219783,-0.606523
1630937439058,-0.749873,0.21953899999999998,-0.605608
1630937439067,-0.748958,0.219966,-0.605547
1630937439077,-0.748836,0.22106399999999998,-0.604754
1630937439087,-0.748958,0.220881,-0.604632
1630937439096,-0.748165,0.22045399999999998,-0.604022
1630937439106,-0.749324,0.22082,-0.605181
1630937439115,-0.748653,0.221857,-0.604632
1630937439125,-0.748714,0.220698,-0.604388
1630937439135,-0.749568,0.219661,-0.606218
1630937439144,-0.74847,0.218685,-0.606828
1630937439154,-0.749202,0.217831,-0.607316
1630937439163,-0.748897,0.217465,-0.60756
1630937439173,-0.748775,0.21716,-0.607133
1630937439183,-0.74908,0.217404,-0.606584
1630937439192,-0.748958,0.218258,-0.605791
1630937439202,-0.74908,0.217892,-0.606218
1630937439211,-0.749385,0.218197,-0.606645
1630937439221,-0.748653,0.21892899999999998,-0.606645
1630937439231,-0.749019,0.22045399999999998,-0.606462
1630937439240,-0.749568,0.219722,-0.606279
1630937439250,-0.747738,0.219051,-0.607621
1630937439259,-0.748226,0.220332,-0.6089019999999999
1630937439269,-0.748043,0.21984399999999998,-0.609878
1630937439279,-0.749385,0.218746,-0.607804
1630937439288,-0.748592,0.219417,-0.606889
1630937439298,-0.747494,0.219173,-0.605547
1630937439307,-0.747067,0.218807,-0.606523
1630937439317,-0.747128,0.219112,-0.607133
1630937439327,-0.746701,0.219173,-0.607133
1630937439336,-0.746518,0.219051,-0.606645
1630937439346,-0.747006,0.219112,-0.607194
1630937439355,-0.747433,0.219295,-0.607255
1630937439365,-0.747921,0.218807,-0.608109
1630937439375,-0.748592,0.218685,-0.607499
1630937439384,-0.748226,0.218441,-0.60695
1630937439394,-0.747555,0.219112,-0.606157
1630937439403,-0.748348,0.217282,-0.605852
1630937439413,-0.748165,0.217587,-0.606462
1630937439423,-0.748104,0.217038,-0.606706
1630937439432,-0.748897,0.216916,-0.606706
1630937439442,-0.748775,0.216977,-0.60634
1630937439451,-0.748531,0.217282,-0.60695
1630937439461,-0.749263,0.217831,-0.607499
1630937439471,-0.750422,0.217892,-0.60817
1630937439480,-0.750239,0.217526,-0.607377
1630937439490,-0.750727,0.216428,-0.606767
1630937439499,-0.749202,0.216489,-0.605303
1630937439509,-0.750361,0.216794,-0.605242
1630937439519,-0.749324,0.215269,-0.605486
1630937439528,-0.749202,0.214659,-0.606157
1630937439538,-0.750056,0.21368299999999998,-0.605608
1630937439547,-0.748714,0.213561,-0.605059
1630937439557,-0.74908,0.213256,-0.604815
1630937439567,-0.749812,0.21307299999999998,-0.605303
1630937439576,-0.748836,0.21337799999999998,-0.605669
1630937439586,-0.748775,0.213317,-0.606035
1630937439595,-0.749812,0.213927,-0.605364
1630937439605,-0.749934,0.215147,-0.605303
1630937439615,-0.750361,0.215269,-0.605608
1630937439624,-0.749812,0.21594,-0.606462
1630937439634,-0.749263,0.217282,-0.606523
1630937439643,-0.749324,0.21716,-0.606584
1630937439653,-0.749446,0.217831,-0.606523
1630937439663,-0.749934,0.21831899999999999,-0.606462
1630937439672,-0.749324,0.217648,-0.606401
1630937439682,-0.749446,0.218441,-0.60512
1630937439691,-0.748653,0.217343,-0.605608
1630937439701,-0.748592,0.218563,-0.606523
1630937439711,-0.748104,0.218258,-0.606889
1630937439720,-0.74908,0.217221,-0.605242
1630937439730,-0.749202,0.216794,-0.605974
1630937439739,-0.749324,0.217465,-0.606279
1630937439749,-0.748958,0.216855,-0.605608
1630937439759,-0.749324,0.216245,-0.605547
1630937439768,-0.749873,0.216001,-0.605791
1630937439778,-0.749141,0.21612299999999998,-0.606584
1630937439787,-0.750239,0.215635,-0.606462
1630937439797,-0.750788,0.215391,-0.605974
1630937439807,-0.750605,0.214842,-0.60634
1630937439816,-0.749934,0.214964,-0.604632
1630937439826,-0.749873,0.215086,-0.603412
1630937439835,-0.749568,0.21472,-0.604083
1630937439845,-0.749568,0.21472,-0.604937
1630937439855,-0.748836,0.216245,-0.606279
1630937439864,-0.749141,0.216733,-0.605791
1630937439874,-0.749812,0.217038,-0.604876
1630937439883,-0.7503,0.216794,-0.603778
1630937439893,-0.750178,0.216062,-0.604571
1630937439903,-0.751459,0.216245,-0.605608
1630937439912,-0.751459,0.216489,-0.604693
1630937439922,-0.750178,0.216245,-0.605852
1630937439931,-0.750849,0.21533,-0.605547
1630937439941,-0.750178,0.213744,-0.607804
1630937439951,-0.750422,0.211792,-0.608536
1630937439960,-0.749019,0.211914,-0.607621
1630937439970,-0.749141,0.210694,-0.606218
1630937439979,-0.748592,0.211182,-0.607011
1630937439989,-0.74725,0.213622,-0.60573
1630937439999,-0.748897,0.215025,-0.603473
1630937440008,-0.750605,0.217526,-0.602436
1630937440018,-0.7512759999999999,0.218441,-0.603717
1630937440027,-0.750544,0.21984399999999998,-0.604205
1630937440037,-0.751032,0.219478,-0.605791
1630937440047,-0.751154,0.218441,-0.605364
1630937440056,-0.750788,0.21716,-0.605669
1630937440066,-0.749934,0.215757,-0.60512
1630937440075,-0.749934,0.214964,-0.605303
1630937440085,-0.749751,0.21533,-0.604876
1630937440095,-0.7503,0.214781,-0.603778
1630937440104,-0.750117,0.215696,-0.602985
1630937440114,-0.749446,0.216611,-0.603534
1630937440123,-0.749812,0.217282,-0.603107
1630937440133,-0.749873,0.216733,-0.6039
1630937440143,-0.750849,0.217343,-0.604693
1630937440152,-0.751154,0.216794,-0.606157
1630937440162,-0.751398,0.216794,-0.605669
1630937440171,-0.75152,0.217038,-0.606096
1630937440181,-0.751764,0.216184,-0.606706
1630937440191,-0.751642,0.216977,-0.606767
1630937440200,-0.751947,0.217221,-0.607072
1630937440210,-0.752313,0.217282,-0.606035
1630937440219,-0.752313,0.217404,-0.605547
1630937440229,-0.752618,0.21777,-0.6039
1630937440239,-0.750483,0.217343,-0.604083
1630937440248,-0.751459,0.216062,-0.6079869999999999
1630937440258,-0.750544,0.214781,-0.609268
1630937440267,-0.750056,0.21398799999999998,-0.606889
1630937440277,-0.750483,0.213012,-0.60329
1630937440287,-0.749934,0.212829,-0.602436
1630937440296,-0.748775,0.21368299999999998,-0.6039
1630937440306,-0.748165,0.21337799999999998,-0.605181
1630937440315,-0.747555,0.213744,-0.606157
1630937440325,-0.747006,0.214964,-0.605608
1630937440335,-0.746945,0.215757,-0.604693
1630937440344,-0.747616,0.215025,-0.603961
1630937440354,-0.747982,0.214964,-0.604083
1630937440363,-0.748714,0.215635,-0.604144
1630937440373,-0.749202,0.21581799999999998,-0.604815
1630937440383,-0.749019,0.216306,-0.60512
1630937440392,-0.748775,0.216306,-0.605059
1630937440402,-0.748836,0.217099,-0.604144
1630937440411,-0.749263,0.21716,-0.604205
1630937440421,-0.74969,0.21899,-0.603656
1630937440431,-0.749263,0.219356,-0.605913
1630937440440,-0.750544,0.219966,-0.606462
1630937440450,-0.751459,0.21923399999999998,-0.60695
1630937440459,-0.75091,0.22021,-0.607804
1630937440469,-0.752374,0.219722,-0.607316
1630937440479,-0.752435,0.22021,-0.607011
1630937440488,-0.752435,0.219417,-0.607804
1630937440498,-0.7521909999999999,0.219478,-0.606706
1630937440507,-0.752557,0.218258,-0.606401
1630937440517,-0.751154,0.218441,-0.60695
1630937440527,-0.750727,0.217953,-0.606889
1630937440536,-0.75091,0.21770899999999999,-0.608048
1630937440546,-0.750605,0.216916,-0.607072
1630937440555,-0.750117,0.21594,-0.607499
1630937440565,-0.749812,0.214781,-0.606523
1630937440575,-0.748775,0.215574,-0.607255
1630937440584,-0.749263,0.21551299999999998,-0.607377
1630937440594,-0.748714,0.215391,-0.607072
1630937440603,-0.748104,0.215574,-0.607621
1630937440613,-0.747006,0.214659,-0.607133
1630937440623,-0.746701,0.21411,-0.606767
1630937440632,-0.747128,0.213866,-0.606767
1630937440642,-0.746945,0.21289,-0.607194
1630937440651,-0.747372,0.213317,-0.607011
1630937440661,-0.747067,0.21246299999999999,-0.6079869999999999
1630937440671,-0.747128,0.21246299999999999,-0.607926
1630937440680,-0.748348,0.21215799999999999,-0.607499
1630937440690,-0.74664,0.212524,-0.609146
1630937440699,-0.747006,0.212951,-0.60878
1630937440709,-0.746945,0.21276799999999998,-0.6079869999999999
1630937440719,-0.74725,0.213195,-0.608231
1630937440728,-0.747555,0.213256,-0.609329
1630937440738,-0.74664,0.2135,-0.6089019999999999
1630937440747,-0.747128,0.213439,-0.60756
1630937440757,-0.747616,0.213195,-0.6079869999999999
1630937440767,-0.747433,0.21215799999999999,-0.607377
1630937440776,-0.746457,0.21289,-0.607743
1630937440786,-0.74603,0.214049,-0.608475
1630937440795,-0.746213,0.214842,-0.60939
1630937440805,-0.747067,0.215147,-0.6089019999999999
1630937440815,-0.74725,0.215635,-0.60817
1630937440824,-0.747372,0.215696,-0.608353
1630937440834,-0.748287,0.215147,-0.6082919999999999
1630937440843,-0.749202,0.21581799999999998,-0.608353
1630937440853,-0.748958,0.216306,-0.608658
1630937440863,-0.749385,0.216001,-0.609024
1630937440872,-0.748836,0.215452,-0.610915
1630937440882,-0.749385,0.214354,-0.61183
1630937440891,-0.749812,0.2135,-0.617564
1630937440901,-0.747067,0.215574,-0.61976
1630937440911,-0.745664,0.215696,-0.616954
1630937440920,-0.745176,0.212707,-0.611708
1630937440930,-0.744017,0.211182,-0.607438
1630937440939,-0.744078,0.21368299999999998,-0.604937
1630937440949,-0.743834,0.216001,-0.602619
1630937440959,-0.745725,0.216916,-0.6039
1630937440968,-0.745176,0.21831899999999999,-0.609756
1630937440978,-0.744017,0.22014899999999998,-0.61366
1630937440987,-0.745908,0.218868,-0.6143919999999999
1630937440997,-0.748165,0.216672,-0.6134769999999999
1630937441007,-0.74603,0.215574,-0.6131719999999999
1630937441016,-0.74542,0.21398799999999998,-0.611098
1630937441026,-0.746335,0.212402,-0.61
1630937441035,-0.745786,0.212951,-0.609939
1630937441045,-0.74603,0.213622,-0.609451
1630937441055,-0.746701,0.213561,-0.60939
1630937441064,-0.745847,0.213195,-0.609024
1630937441074,-0.745969,0.212951,-0.610549
1630937441083,-0.745359,0.213134,-0.610854
1630937441093,-0.746518,0.212829,-0.611281
1630937441103,-0.747067,0.212341,-0.6119519999999999
1630937441112,-0.747494,0.212036,-0.611098
1630937441122,-0.746701,0.211121,-0.611586
1630937441131,-0.746457,0.210938,-0.6113419999999999
1630937441141,-0.74603,0.211914,-0.6104269999999999
1630937441151,-0.745603,0.212707,-0.6110369999999999
1630937441160,-0.746091,0.214171,-0.61061
1630937441170,-0.747006,0.214781,-0.60939
1630937441179,-0.745298,0.21459799999999998,-0.608841
1630937441189,-0.745359,0.213866,-0.610976
1630937441199,-0.746823,0.212707,-0.614209
1630937441208,-0.745908,0.21215799999999999,-0.61427
1630937441218,-0.74725,0.211182,-0.61183
1630937441227,-0.747189,0.21154799999999999,-0.6101219999999999
1630937441237,-0.747494,0.211792,-0.609085
1630937441247,-0.746152,0.210938,-0.609756
1630937441256,-0.747128,0.212585,-0.61183
1630937441266,-0.746823,0.213134,-0.612623
1630937441275,-0.746762,0.213256,-0.612806
1630937441285,-0.745786,0.212707,-0.612196
1630937441295,-0.745969,0.213622,-0.61122
1630937441304,-0.746274,0.212829,-0.6119519999999999
1630937441314,-0.746396,0.213134,-0.610671
1630937441323,-0.747128,0.213195,-0.611525
1630937441333,-0.746274,0.213439,-0.610488
1630937441343,-0.746884,0.213622,-0.6101219999999999
1630937441352,-0.74603,0.21459799999999998,-0.609878
1630937441362,-0.745664,0.214659,-0.611098
1630937441371,-0.746335,0.215269,-0.609939
1630937441381,-0.746457,0.21520799999999998,-0.6104269999999999
1630937441391,-0.746457,0.214415,-0.6113419999999999
1630937441400,-0.747006,0.21411,-0.61122
1630937441410,-0.74786,0.213622,-0.609939
1630937441419,-0.74786,0.21337799999999998,-0.6107319999999999
1630937441429,-0.747494,0.21289,-0.6095119999999999
1630937441439,-0.748714,0.212646,-0.610244
1630937441448,-0.747006,0.21276799999999998,-0.610183
1630937441458,-0.74725,0.212036,-0.610183
1630937441467,-0.74786,0.211426,-0.609634
1630937441477,-0.74725,0.210572,-0.61
1630937441487,-0.747372,0.210084,-0.609146
1630937441496,-0.746884,0.210206,-0.609756
1630937441506,-0.747738,0.212341,-0.610061
1630937441515,-0.746945,0.21185299999999999,-0.608963
1630937441525,-0.747372,0.211609,-0.609146
1630937441535,-0.746823,0.212402,-0.609329
1630937441544,-0.747189,0.213866,-0.609939
1630937441554,-0.747067,0.214476,-0.610915
1630937441563,-0.747067,0.213866,-0.610244
1630937441573,-0.747128,0.214537,-0.610061
1630937441583,-0.746945,0.214415,-0.611769
1630937441592,-0.746579,0.214537,-0.6104269999999999
1630937441602,-0.746335,0.21490299999999998,-0.610671
1630937441611,-0.746396,0.215391,-0.6104269999999999
1630937441621,-0.745908,0.216489,-0.610793
1630937441631,-0.746945,0.215452,-0.609878
1630937441640,-0.746274,0.216367,-0.6104269999999999
1630937441650,-0.747067,0.215879,-0.61122
1630937441659,-0.746884,0.21655,-0.609756
1630937441669,-0.746945,0.215086,-0.61
1630937441679,-0.746701,0.215086,-0.610366
1630937441688,-0.746274,0.21459799999999998,-0.6110369999999999
1630937441698,-0.74664,0.214354,-0.61061
1630937441707,-0.747555,0.213439,-0.6110369999999999
1630937441717,-0.746823,0.213256,-0.611586
1630937441727,-0.747433,0.212646,-0.61061
1630937441736,-0.747128,0.212402,-0.609756
1630937441746,-0.747799,0.212341,-0.6092069999999999
1630937441755,-0.747006,0.21228,-0.609451
1630937441765,-0.746457,0.212585,-0.609634
1630937441775,-0.746579,0.212402,-0.6101219999999999
1630937441784,-0.746579,0.213134,-0.609573
1630937441794,-0.74664,0.214659,-0.60878
1630937441803,-0.74725,0.21520799999999998,-0.608658
1630937441813,-0.748653,0.2135,-0.608841
1630937441823,-0.748531,0.213195,-0.609573
1630937441832,-0.747982,0.21337799999999998,-0.6092069999999999
1630937441842,-0.748104,0.212829,-0.60939
1630937441851,-0.748409,0.214232,-0.611708
1630937441861,-0.747372,0.213317,-0.611464
1630937441871,-0.747921,0.210633,-0.612074
1630937441880,-0.747067,0.210816,-0.614331
1630937441890,-0.747189,0.210694,-0.615185
1630937441899,-0.746518,0.211792,-0.61366
1630937441909,-0.746152,0.211487,-0.609634
1630937441919,-0.745115,0.21185299999999999,-0.607011
1630937441928,-0.745298,0.21289,-0.606218
1630937441938,-0.745603,0.213195,-0.606706
1630937441947,-0.74664,0.213744,-0.6085969999999999
1630937441957,-0.747372,0.214537,-0.610488
1630937441967,-0.747982,0.21398799999999998,-0.6104269999999999
1630937441976,-0.747067,0.214537,-0.6110369999999999
1630937441986,-0.747372,0.214049,-0.610671
1630937441995,-0.746762,0.21429299999999998,-0.61
1630937442005,-0.746396,0.21398799999999998,-0.610488
1630937442015,-0.746396,0.214476,-0.608475
1630937442024,-0.746884,0.214415,-0.608719
1630937442034,-0.747311,0.214354,-0.609024
1630937442043,-0.74725,0.214049,-0.6092069999999999
1630937442053,-0.747128,0.214659,-0.6095119999999999
1630937442063,-0.74786,0.213012,-0.6101219999999999
1630937442072,-0.747677,0.213134,-0.6116469999999999
1630937442082,-0.747616,0.211792,-0.611891
1630937442091,-0.747555,0.21106,-0.611891
1630937442101,-0.747677,0.21185299999999999,-0.610671
1630937442111,-0.747738,0.211121,-0.610183
1630937442120,-0.747982,0.211365,-0.6101219999999999
1630937442130,-0.746579,0.211609,-0.61
1630937442139,-0.747372,0.211731,-0.609573
1630937442149,-0.746762,0.213744,-0.61
1630937442159,-0.747006,0.213866,-0.609756
1630937442168,-0.746701,0.212402,-0.609756
1630937442178,-0.747067,0.212585,-0.6125619999999999
1630937442187,-0.747006,0.211975,-0.61488
1630937442197,-0.746945,0.210633,-0.613111
1630937442207,-0.746274,0.211731,-0.61122
1630937442216,-0.74603,0.21185299999999999,-0.6101219999999999
1630937442226,-0.745908,0.21167,-0.60939
1630937442235,-0.746335,0.211365,-0.610488
1630937442245,-0.746274,0.212097,-0.611525
1630937442255,-0.746396,0.211182,-0.61122
1630937442264,-0.746701,0.210999,-0.611098
1630937442274,-0.745847,0.210938,-0.611159
1630937442283,-0.745054,0.211975,-0.61061
1630937442293,-0.745176,0.211731,-0.611464
1630937442303,-0.745603,0.211731,-0.611525
1630937442312,-0.745725,0.211426,-0.610305
1630937442322,-0.746274,0.21228,-0.610915
1630937442331,-0.746335,0.212829,-0.6107319999999999
1630937442341,-0.745908,0.212219,-0.61
1630937442351,-0.746152,0.213439,-0.611281
1630937442360,-0.74603,0.213012,-0.611464
1630937442370,-0.747372,0.213256,-0.612684
1630937442379,-0.747677,0.213195,-0.6122569999999999
1630937442389,-0.746762,0.212524,-0.6119519999999999
1630937442399,-0.746152,0.211914,-0.61183
1630937442408,-0.746152,0.211121,-0.611464
1630937442418,-0.747311,0.21154799999999999,-0.610854
1630937442427,-0.746396,0.21167,-0.611464
1630937442437,-0.746518,0.210633,-0.6110369999999999
1630937442447,-0.745481,0.21185299999999999,-0.610976
1630937442456,-0.745786,0.211792,-0.611586
1630937442466,-0.746213,0.21228,-0.611159
1630937442475,-0.74664,0.21215799999999999,-0.610854
1630937442485,-0.746274,0.21215799999999999,-0.610549
1630937442495,-0.746457,0.212219,-0.610366
1630937442504,-0.746579,0.211609,-0.610549
1630937442514,-0.746457,0.21289,-0.6098169999999999
1630937442523,-0.746457,0.213439,-0.610549
1630937442533,-0.746335,0.213012,-0.610488
1630937442543,-0.746152,0.214354,-0.610488
1630937442552,-0.746518,0.214781,-0.610854
1630937442562,-0.746579,0.214049,-0.609573
1630937442571,-0.746701,0.214171,-0.609756
1630937442581,-0.746762,0.214415,-0.6095119999999999
1630937442591,-0.747616,0.21368299999999998,-0.610061
1630937442600,-0.748104,0.21368299999999998,-0.610488
1630937442610,-0.747433,0.213927,-0.610244
1630937442619,-0.747494,0.213439,-0.6092069999999999
1630937442629,-0.747921,0.214232,-0.6095119999999999
1630937442639,-0.748226,0.21398799999999998,-0.610061
1630937442648,-0.747982,0.21368299999999998,-0.608536
1630937442658,-0.748226,0.213622,-0.6089019999999999
1630937442667,-0.748592,0.21289,-0.609634
1630937442677,-0.748531,0.21337799999999998,-0.609146
1630937442687,-0.748714,0.213256,-0.6089019999999999
1630937442696,-0.748165,0.212341,-0.609451
1630937442706,-0.749812,0.212219,-0.609451
1630937442715,-0.749019,0.213134,-0.609146
1630937442725,-0.748714,0.21337799999999998,-0.60878
1630937442735,-0.74908,0.212951,-0.6082919999999999
1630937442744,-0.748836,0.212524,-0.6079869999999999
1630937442754,-0.74847,0.21215799999999999,-0.608414
1630937442763,-0.747738,0.212646,-0.609024
1630937442773,-0.748958,0.213195,-0.608658
1630937442783,-0.748714,0.213744,-0.609024
1630937442792,-0.748775,0.213744,-0.607804
1630937442802,-0.74908,0.213744,-0.607011
1630937442811,-0.749629,0.21337799999999998,-0.607621
1630937442821,-0.748226,0.21368299999999998,-0.608109
1630937442831,-0.748348,0.213805,-0.608231
1630937442840,-0.749629,0.213866,-0.6113419999999999
1630937442850,-0.749141,0.213622,-0.612806
1630937442859,-0.748592,0.212646,-0.61244
1630937442869,-0.748592,0.211731,-0.613294
1630937442879,-0.746579,0.210389,-0.613843
1630937442888,-0.74481,0.210755,-0.612135
1630937442898,-0.745054,0.210694,-0.609695
1630937442907,-0.745481,0.212097,-0.606645
1630937442917,-0.744871,0.212402,-0.605425
1630937442927,-0.745115,0.21215799999999999,-0.606706
1630937442936,-0.745603,0.21337799999999998,-0.608658
1630937442946,-0.74664,0.214659,-0.611891
1630937442955,-0.746457,0.214781,-0.6125619999999999
1630937442965,-0.746762,0.214964,-0.61244
1630937442975,-0.747128,0.213866,-0.610976
1630937442984,-0.746762,0.21429299999999998,-0.610305
1630937442994,-0.746213,0.215269,-0.60939
1630937443003,-0.745664,0.214781,-0.6095119999999999
1630937443013,-0.745603,0.215757,-0.610366
1630937443023,-0.74603,0.215635,-0.612135
1630937443032,-0.746091,0.215635,-0.611464
1630937443042,-0.745847,0.21490299999999998,-0.610854
1630937443051,-0.746579,0.214354,-0.6107319999999999
1630937443061,-0.745847,0.2135,-0.611159
1630937443071,-0.747311,0.21228,-0.6122569999999999
1630937443080,-0.747067,0.212585,-0.612196
1630937443090,-0.746518,0.212402,-0.612013
1630937443099,-0.746518,0.212829,-0.611891
1630937443109,-0.746396,0.213256,-0.610854
1630937443119,-0.746457,0.213927,-0.611098
1630937443128,-0.746762,0.213561,-0.610915
1630937443138,-0.74725,0.214476,-0.610976
1630937443147,-0.747311,0.214232,-0.610976
1630937443157,-0.745847,0.213744,-0.608841
1630937443167,-0.746945,0.213317,-0.612135
1630937443176,-0.746274,0.213012,-0.614331
1630937443186,-0.747494,0.21167,-0.614026
1630937443195,-0.746396,0.211792,-0.61244
1630937443205,-0.746701,0.210816,-0.610305
1630937443215,-0.746457,0.20904699999999998,-0.60817
1630937443224,-0.745237,0.209535,-0.609024
1630937443234,-0.745542,0.209535,-0.609695
1630937443243,-0.745298,0.20874199999999998,-0.6095119999999999
1630937443253,-0.745603,0.209474,-0.608841
1630937443263,-0.745908,0.20935199999999998,-0.60878
1630937443272,-0.746579,0.20923,-0.609756
1630937443282,-0.746701,0.209474,-0.610854
1630937443291,-0.747616,0.210389,-0.610366
1630937443301,-0.748104,0.209718,-0.609695
1630937443311,-0.747677,0.209718,-0.609695
1630937443320,-0.748348,0.209718,-0.609695
1630937443330,-0.749141,0.209901,-0.61
1630937443339,-0.749446,0.20984,-0.608658
1630937443349,-0.74969,0.21045,-0.608414
1630937443359,-0.749446,0.210267,-0.609024
1630937443368,-0.750178,0.21167,-0.608963
1630937443378,-0.74969,0.211426,-0.6082919999999999
1630937443387,-0.750178,0.21106,-0.609268
1630937443397,-0.751825,0.211243,-0.609878
1630937443407,-0.750849,0.210511,-0.610244
1630937443416,-0.750239,0.209718,-0.608658
1630937443426,-0.750117,0.21045,-0.608658
1630937443435,-0.7503,0.209596,-0.6079869999999999
1630937443445,-0.749995,0.20984,-0.608475
1630937443455,-0.750605,0.209718,-0.607865
1630937443464,-0.749751,0.208376,-0.60817
1630937443474,-0.750178,0.20923,-0.6076819999999999
1630937443483,-0.750239,0.209108,-0.607621
1630937443493,-0.749263,0.209474,-0.609085
1630937443503,-0.749324,0.210389,-0.6082919999999999
1630937443512,-0.74908,0.209718,-0.6089019999999999
1630937443522,-0.749385,0.209596,-0.60756
1630937443531,-0.748165,0.210328,-0.6076819999999999
1630937443541,-0.749019,0.210816,-0.607804
1630937443551,-0.74786,0.210511,-0.6085969999999999
1630937443560,-0.748043,0.211731,-0.6082919999999999
1630937443570,-0.74786,0.21154799999999999,-0.608414
1630937443579,-0.748104,0.21215799999999999,-0.609573
1630937443589,-0.746823,0.212402,-0.609146
1630937443599,-0.747067,0.211731,-0.609146
1630937443608,-0.746396,0.21215799999999999,-0.609146
1630937443618,-0.747494,0.212707,-0.609634
1630937443627,-0.747616,0.212341,-0.60878
1630937443637,-0.746945,0.211914,-0.608231
1630937443647,-0.746884,0.211975,-0.609329
1630937443656,-0.747616,0.212097,-0.609451
1630937443666,-0.74786,0.211426,-0.6095119999999999
1630937443675,-0.747799,0.212402,-0.609756
1630937443685,-0.74725,0.211731,-0.60878
1630937443695,-0.74786,0.211914,-0.609268
1630937443704,-0.748104,0.211426,-0.6089019999999999
1630937443714,-0.748104,0.211609,-0.60878
1630937443723,-0.747799,0.21154799999999999,-0.6085969999999999
1630937443733,-0.74786,0.211304,-0.608719
1630937443743,-0.748043,0.211243,-0.6098169999999999
1630937443752,-0.748714,0.213012,-0.609939
1630937443762,-0.748104,0.213805,-0.60817
1630937443771,-0.748714,0.213744,-0.608109
1630937443781,-0.749629,0.212036,-0.60756
1630937443791,-0.750361,0.212646,-0.609329
1630937443800,-0.750178,0.2135,-0.6085969999999999
1630937443810,-0.74908,0.212219,-0.607804
1630937443819,-0.749934,0.211731,-0.608841
1630937443829,-0.750605,0.210145,-0.611708
1630937443839,-0.749812,0.209169,-0.613599
1630937443848,-0.749202,0.207949,-0.610244
1630937443858,-0.749324,0.20721699999999998,-0.60878
1630937443867,-0.748043,0.207461,-0.609756
1630937443877,-0.746945,0.209169,-0.609939
1630937443887,-0.748348,0.210328,-0.607438
1630937443896,-0.749385,0.21167,-0.607072
1630937443906,-0.750483,0.21276799999999998,-0.60756
1630937443915,-0.7509709999999999,0.21246299999999999,-0.608048
1630937443925,-0.750178,0.211975,-0.609878
1630937443935,-0.75091,0.211609,-0.610549
1630937443944,-0.7503,0.20965699999999998,-0.6098169999999999
1630937443954,-0.749934,0.208315,-0.608841
1630937443963,-0.749202,0.208071,-0.607926
1630937443973,-0.74908,0.208315,-0.606584
1630937443983,-0.748287,0.20874199999999998,-0.605852
1630937443992,-0.74847,0.20923,-0.605852
1630937444002,-0.748592,0.20984,-0.607072
1630937444011,-0.747921,0.210938,-0.60634
1630937444021,-0.747799,0.210755,-0.606828
1630937444031,-0.748043,0.210084,-0.607743
1630937444040,-0.748104,0.209779,-0.608353
1630937444050,-0.748836,0.210389,-0.607499
1630937444059,-0.749446,0.210389,-0.608048
1630937444069,-0.750544,0.210511,-0.607621
1630937444079,-0.750422,0.210877,-0.6082919999999999
1630937444088,-0.750361,0.211426,-0.6089019999999999
1630937444098,-0.7506659999999999,0.211487,-0.6082919999999999
1630937444107,-0.751398,0.211243,-0.607377
1630937444117,-0.75213,0.211426,-0.606706
1630937444127,-0.750605,0.21045,-0.607438
1630937444136,-0.749812,0.20935199999999998,-0.610061
1630937444146,-0.749324,0.209596,-0.611708
1630937444155,-0.748958,0.207766,-0.610488
1630937444165,-0.750422,0.208376,-0.605913
1630937444175,-0.749812,0.208071,-0.605974
1630937444184,-0.748348,0.208864,-0.606523
1630937444194,-0.747982,0.209474,-0.6082919999999999
1630937444203,-0.748714,0.20984,-0.609939
1630937444213,-0.748348,0.210938,-0.609939
1630937444223,-0.747982,0.211121,-0.609878
1630937444232,-0.747555,0.211304,-0.609329
1630937444242,-0.747738,0.210938,-0.608414
1630937444251,-0.748104,0.211304,-0.608719
1630937444261,-0.748226,0.211182,-0.608963
1630937444271,-0.748653,0.211426,-0.610061
1630937444280,-0.74786,0.212707,-0.610671
1630937444290,-0.74847,0.21276799999999998,-0.610305
1630937444299,-0.749019,0.211792,-0.6095119999999999
1630937444309,-0.748287,0.210572,-0.6089019999999999
1630937444319,-0.747799,0.20996199999999998,-0.609573
1630937444328,-0.748897,0.210084,-0.61
1630937444338,-0.74908,0.210206,-0.611769
1630937444347,-0.74908,0.21045,-0.612074
1630937444357,-0.749995,0.20923,-0.611464
1630937444367,-0.749202,0.208193,-0.6107319999999999
1630937444376,-0.749385,0.20874199999999998,-0.610488
1630937444386,-0.748287,0.207888,-0.610061
1630937444395,-0.747982,0.207644,-0.609878
1630937444405,-0.747677,0.207339,-0.609085
1630937444415,-0.74786,0.206546,-0.609085
1630937444424,-0.748409,0.206546,-0.609024
1630937444434,-0.74786,0.20569199999999999,-0.6095119999999999
1630937444443,-0.748592,0.205936,-0.610061
1630937444453,-0.747372,0.206668,-0.609634
1630937444463,-0.747128,0.20679,-0.61
1630937444472,-0.747006,0.207095,-0.609695
1630937444482,-0.747067,0.20813199999999998,-0.609329
1630937444491,-0.747372,0.208071,-0.609268
1630937444501,-0.747494,0.209169,-0.609695
1630937444511,-0.747006,0.208864,-0.609878
1630937444520,-0.747372,0.208986,-0.609329
1630937444530,-0.747311,0.209169,-0.609573
1630937444539,-0.747738,0.20923,-0.61061
1630937444549,-0.746701,0.209474,-0.610488
1630937444559,-0.747067,0.20996199999999998,-0.610183
1630937444568,-0.747494,0.209779,-0.611098
1630937444578,-0.748348,0.210389,-0.611281
1630937444587,-0.748348,0.21045,-0.610854
1630937444597,-0.747372,0.210145,-0.610305
1630937444607,-0.747799,0.209596,-0.6110369999999999
1630937444616,-0.747921,0.210633,-0.6104269999999999
1630937444626,-0.748287,0.209779,-0.610854
1630937444635,-0.747433,0.209596,-0.609268
1630937444645,-0.747189,0.210084,-0.609268
1630937444655,-0.747494,0.21045,-0.6095119999999999
1630937444664,-0.74725,0.210206,-0.609451
1630937444674,-0.747677,0.211975,-0.6095119999999999
1630937444683,-0.74786,0.211365,-0.61
1630937444693,-0.747921,0.211182,-0.609268
1630937444703,-0.748226,0.21167,-0.608536
