timestamp,ax,ay,az
1629797652583,-0.139263,-0.524722,-0.831186
1629797652592,-0.14310599999999998,-0.5228309999999999,-0.8337479999999999
1629797652602,-0.145058,-0.519354,-0.836127
1629797652611,-0.148108,-0.513864,-0.837347
1629797652621,-0.151097,-0.509167,-0.83997
1629797652631,-0.152622,-0.503616,-0.8418
1629797652640,-0.153476,-0.497882,-0.844911
1629797652650,-0.153354,-0.492087,-0.847046
1629797652659,-0.152622,-0.48775599999999997,-0.84912
1629797652669,-0.149694,-0.485499,-0.848998
1629797652679,-0.148108,-0.48495,-0.846253
1629797652688,-0.145668,-0.48653599999999997,-0.84546
1629797652698,-0.142618,-0.488,-0.843996
1629797652707,-0.138836,-0.488915,-0.843203
1629797652717,-0.136274,-0.49141599999999996,-0.841251
1629797652727,-0.135359,-0.493368,-0.837164
1629797652736,-0.135786,-0.493795,-0.834724
1629797652746,-0.13663999999999998,-0.49355099999999996,-0.834297
1629797652755,-0.139202,-0.493368,-0.835029
1629797652765,-0.14158099999999998,-0.49172099999999996,-0.8367979999999999
1629797652775,-0.14457,-0.489403,-0.83936
1629797652784,-0.14884,-0.486048,-0.840519
1629797652794,-0.150548,-0.485377,-0.844545
1629797652803,-0.151219,-0.484828,-0.846009
1629797652813,-0.152256,-0.484218,-0.846924
1629797652823,-0.152561,-0.484645,-0.845521
1629797652832,-0.15494,-0.48501099999999997,-0.843142
1629797652842,-0.156465,-0.483425,-0.839116
1629797652851,-0.155733,-0.481046,-0.837957
1629797652861,-0.157563,-0.47763,-0.838445
1629797652871,-0.157197,-0.476105,-0.8383229999999999
1629797652880,-0.1586,-0.476837,-0.837042
1629797528079,-0.362096,-0.307867,-0.8744959999999999
1629797528089,-0.362645,-0.308233,-0.87413
1629797528098,-0.362096,-0.30805,-0.873337
1629797528108,-0.36173,-0.307623,-0.874618
1629797528117,-0.36173,-0.30780599999999997,-0.874679
1629797528127,-0.36173,-0.306403,-0.874374
1629797528137,-0.36112,-0.305183,-0.874374
1629797528146,-0.363072,-0.30536599999999997,-0.874557
1629797528156,-0.363499,-0.304878,-0.873703
1629797528165,-0.364048,-0.304634,-0.873764
1629797528175,-0.364353,-0.30439,-0.873703
1629797528185,-0.364658,-0.304085,-0.874008
1629797528194,-0.36484099999999997,-0.301828,-0.87535
1629797528204,-0.365512,-0.301645,-0.875167
1629797528213,-0.36606099999999997,-0.301035,-0.8763259999999999
1629797528223,-0.367098,-0.301767,-0.875655
1629797528233,-0.36661,-0.301218,-0.8751059999999999
1629797528242,-0.366244,-0.300181,-0.87657
1629797528252,-0.367037,-0.30012,-0.876997
1629797528261,-0.366732,-0.300791,-0.876265
1629797528271,-0.366488,-0.301584,-0.875472
1629797528281,-0.36575599999999997,-0.302072,-0.875594
1629797528290,-0.36636599999999997,-0.303231,-0.875655
1629797528300,-0.36636599999999997,-0.303292,-0.875167
1629797528309,-0.365939,-0.303231,-0.875045
1629797528319,-0.36484099999999997,-0.303475,-0.875533
1629797528329,-0.365024,-0.303475,-0.87535
1629797528338,-0.365817,-0.303902,-0.877119
1629797528348,-0.365268,-0.30536599999999997,-0.877058
1629797528357,-0.363804,-0.30683,-0.877485
1629797528367,-0.364719,-0.307928,-0.876997
1629797528377,-0.364597,-0.30841599999999997,-0.876509
1629797528386,-0.364048,-0.308355,-0.876692
1629797528396,-0.36423099999999997,-0.308233,-0.877058
1629797528405,-0.363865,-0.308294,-0.876692
1629797528415,-0.36514599999999997,-0.307623,-0.875289
1629797528425,-0.363316,-0.30689099999999997,-0.875777
1629797528434,-0.363011,-0.306464,-0.874374
1629797528444,-0.362096,-0.306403,-0.873947
1629797528453,-0.362767,-0.30561,-0.874557
1629797528463,-0.362279,-0.305732,-0.873947
1629797528473,-0.362218,-0.305488,-0.8751059999999999
1629797528482,-0.362218,-0.306464,-0.874679
1629797528492,-0.362889,-0.30622,-0.873642
1629797528501,-0.362828,-0.30597599999999997,-0.8744959999999999
1629797528511,-0.362218,-0.306647,-0.874679
1629797528521,-0.361364,-0.306525,-0.874679
1629797528530,-0.362096,-0.30750099999999997,-0.874374
1629797528540,-0.362828,-0.308233,-0.873215
1629797528549,-0.362035,-0.307867,-0.874984
1629797528559,-0.362157,-0.307745,-0.874679
1629797528569,-0.362218,-0.30750099999999997,-0.874679
1629797528578,-0.362523,-0.30780599999999997,-0.87474
1629797528588,-0.361852,-0.307257,-0.874618
1629797528597,-0.361608,-0.307562,-0.874313
1629797528607,-0.361791,-0.306952,-0.874374
1629797528617,-0.362096,-0.307379,-0.874008
1629797528626,-0.362035,-0.30719599999999997,-0.873825
1629797528636,-0.362645,-0.307257,-0.874313
1629797528645,-0.363194,-0.307867,-0.873764
1629797528655,-0.363804,-0.30866,-0.874008
1629797528665,-0.36295,-0.309514,-0.875472
1629797528674,-0.36362099999999997,-0.31055099999999997,-0.876204
1629797528684,-0.363133,-0.31024599999999997,-0.876753
1629797528693,-0.363865,-0.309697,-0.876265
1629797528703,-0.362889,-0.310002,-0.8772409999999999
1629797528713,-0.362401,-0.310368,-0.876814
1629797528722,-0.36295,-0.310856,-0.875533
1629797528732,-0.363194,-0.30902599999999997,-0.87596
1629797528741,-0.362828,-0.310002,-0.8769359999999999
1629797528751,-0.361608,-0.30902599999999997,-0.875899
1629797528761,-0.360876,-0.30963599999999997,-0.8754109999999999
1629797528770,-0.360449,-0.310307,-0.874374
1629797528780,-0.360388,-0.310612,-0.87474
1629797528789,-0.360754,-0.310856,-0.874679
1629797528799,-0.360693,-0.310917,-0.8760209999999999
1629797528809,-0.36051,-0.310002,-0.875533
1629797528818,-0.360998,-0.308599,-0.875045
1629797528828,-0.361608,-0.307379,-0.8751059999999999
1629797528837,-0.362279,-0.306708,-0.875899
1629797528847,-0.363377,-0.305122,-0.8763259999999999
1629797528857,-0.363316,-0.30439,-0.87657
1629797528866,-0.363011,-0.30384099999999997,-0.876143
1629797528876,-0.363194,-0.304024,-0.877485
1629797528885,-0.362218,-0.304878,-0.8772409999999999
1629797528895,-0.361547,-0.305244,-0.8775459999999999
1629797528905,-0.362645,-0.30439,-0.876387
1629797528914,-0.362096,-0.305244,-0.876143
1629797528924,-0.362035,-0.305854,-0.875533
1629797528933,-0.361242,-0.305732,-0.87474
1629797528943,-0.36051,-0.307013,-0.874862
1629797528953,-0.36112,-0.306647,-0.87657
1629797528962,-0.360632,-0.307867,-0.878217
1629797528972,-0.359351,-0.307074,-0.877607
1629797528981,-0.360449,-0.306952,-0.875777
1629797528991,-0.3599,-0.30658599999999997,-0.875045
1629797529001,-0.360754,-0.307135,-0.8741909999999999
1629797529010,-0.360449,-0.306708,-0.874557
1629797529020,-0.360876,-0.306525,-0.874679
1629797529029,-0.360815,-0.305183,-0.874313
1629797529039,-0.361181,-0.303963,-0.875777
1629797529049,-0.360388,-0.304024,-0.87596
1629797529058,-0.361791,-0.304573,-0.8757159999999999
1629797529068,-0.362279,-0.304573,-0.875899
1629797529077,-0.361852,-0.303048,-0.876448
1629797529087,-0.361852,-0.302926,-0.8766309999999999
1629797529097,-0.361791,-0.303414,-0.876143
1629797529106,-0.361486,-0.302194,-0.874862
1629797529116,-0.362767,-0.302255,-0.873642
1629797529125,-0.363316,-0.302194,-0.874435
1629797529135,-0.362584,-0.301462,-0.876082
1629797529145,-0.362584,-0.302804,-0.875655
1629797529154,-0.362401,-0.302438,-0.876753
1629797529164,-0.363682,-0.301828,-0.877485
1629797529173,-0.36356,-0.300486,-0.8775459999999999
1629797529183,-0.36392599999999997,-0.300974,-0.877119
1629797529193,-0.36478,-0.301706,-0.877424
1629797529202,-0.363865,-0.301706,-0.876265
1629797529212,-0.364048,-0.302072,-0.875228
1629797529221,-0.36417,-0.301828,-0.876204
1629797529231,-0.363682,-0.300242,-0.87657
1629797529241,-0.363438,-0.299449,-0.877424
1629797529250,-0.363316,-0.299388,-0.877912
1629797529260,-0.364292,-0.299815,-0.877485
1629797529269,-0.364597,-0.300974,-0.877729
1629797529279,-0.362767,-0.300974,-0.877302
1629797529289,-0.363194,-0.301706,-0.87718
1629797529298,-0.363804,-0.302255,-0.877058
1629797529308,-0.363133,-0.30317,-0.877729
1629797529317,-0.36356,-0.302072,-0.876875
1629797529327,-0.362523,-0.301157,-0.876509
1629797529337,-0.362645,-0.300852,-0.876814
1629797529346,-0.36234,-0.30134,-0.876814
1629797529356,-0.362645,-0.300913,-0.876692
1629797529365,-0.362706,-0.300852,-0.8769359999999999
1629797529375,-0.363133,-0.302011,-0.8766309999999999
1629797529385,-0.362828,-0.301889,-0.876204
1629797529394,-0.362218,-0.301584,-0.875899
1629797529404,-0.362462,-0.302499,-0.875594
1629797529413,-0.361486,-0.303536,-0.876082
1629797529423,-0.361364,-0.304878,-0.875838
1629797529433,-0.36173,-0.304573,-0.87535
1629797529442,-0.362035,-0.305793,-0.876082
1629797529452,-0.362096,-0.306647,-0.875045
1629797529461,-0.360815,-0.307623,-0.873825
1629797529471,-0.36112,-0.307989,-0.8744959999999999
1629797529481,-0.360388,-0.307684,-0.875472
1629797529490,-0.361303,-0.306647,-0.874923
1629797529500,-0.362096,-0.307318,-0.8744959999999999
1629797529509,-0.361974,-0.307379,-0.875167
1629797529519,-0.362218,-0.306647,-0.8751059999999999
1629797529529,-0.362096,-0.305915,-0.876143
1629797529538,-0.362828,-0.30475599999999997,-0.875167
1629797529548,-0.363804,-0.304268,-0.874618
1629797529557,-0.363255,-0.303353,-0.87413
1629797529567,-0.362584,-0.30256,-0.872483
1629797529577,-0.363377,-0.302682,-0.871385
1629797529586,-0.361791,-0.302438,-0.872239
1629797529596,-0.360632,-0.301889,-0.871019
1629797529605,-0.360754,-0.301035,-0.867969
1629797529615,-0.360388,-0.299083,-0.865407
1629797529625,-0.35861899999999997,-0.29792399999999997,-0.8638819999999999
1629797529634,-0.358558,-0.296521,-0.863699
1629797529644,-0.35746,-0.296765,-0.86193
1629797529653,-0.356972,-0.295545,-0.862235
1629797529663,-0.35502,-0.29463,-0.861259
1629797529673,-0.353312,-0.29548399999999997,-0.860466
1629797529682,-0.352031,-0.294447,-0.8586969999999999
1629797529692,-0.350567,-0.294325,-0.858453
1629797529701,-0.350567,-0.295972,-0.856318
1629797529711,-0.351421,-0.29707,-0.852841
1629797529721,-0.350872,-0.299937,-0.84729
1629797529730,-0.350994,-0.314455,-0.841312
1629797529740,-0.350506,-0.32635,-0.844118
1629797529749,-0.347883,-0.332328,-0.848693
1629797529759,-0.343735,-0.340868,-0.845643
1629797529769,-0.34172199999999997,-0.347273,-0.842776
1629797529778,-0.339831,-0.35319,-0.843874
1629797529788,-0.337452,-0.357826,-0.844179
1629797529797,-0.336659,-0.364658,-0.84119
1629797529807,-0.335317,-0.371368,-0.839482
1629797529817,-0.334036,-0.37942,-0.839299
1629797529826,-0.331352,-0.388082,-0.83936
1629797529836,-0.328058,-0.402234,-0.838262
1629797529845,-0.323971,-0.419802,-0.8367979999999999
1629797529855,-0.320006,-0.434991,-0.839726
1629797529865,-0.315126,-0.448716,-0.841373
1629797529874,-0.311466,-0.462746,-0.840336
1629797529884,-0.307379,-0.47665399999999997,-0.841251
1629797529893,-0.305244,-0.489342,-0.83997
1629797529903,-0.30475599999999997,-0.500017,-0.838262
1629797529913,-0.301828,-0.51118,-0.835639
1629797529922,-0.300059,-0.521184,-0.8358829999999999
1629797529932,-0.297802,-0.530334,-0.838567
1629797529941,-0.294752,-0.539179,-0.841373
1629797529951,-0.290543,-0.547658,-0.845582
1629797529961,-0.287615,-0.552782,-0.845155
1629797529970,-0.28377199999999997,-0.553514,-0.842105
1629797529980,-0.282064,-0.555527,-0.8401529999999999
1629797529989,-0.280844,-0.555893,-0.83753
1629797529999,-0.277794,-0.554368,-0.835151
1629797530009,-0.277855,-0.553087,-0.836981
1629797530018,-0.275964,-0.546072,-0.83631
1629797530028,-0.273402,-0.543266,-0.8328329999999999
1629797530037,-0.274439,-0.539118,-0.828929
1629797530047,-0.276818,-0.531798,-0.828502
1629797530057,-0.276879,-0.524661,-0.827831
1629797530066,-0.277611,-0.516304,-0.8306979999999999
1629797530076,-0.28182,-0.509899,-0.834541
1629797530085,-0.284016,-0.506117,-0.8334429999999999
1629797530095,-0.28609,-0.500871,-0.831125
1629797530105,-0.287554,-0.495747,-0.831552
1629797530114,-0.28975,-0.49105,-0.831674
1629797530124,-0.290116,-0.484523,-0.83082
1629797530133,-0.29334899999999997,-0.475251,-0.834846
1629797530143,-0.296826,-0.46494199999999997,-0.837896
1629797530153,-0.300486,-0.45811,-0.837469
1629797530162,-0.302621,-0.451217,-0.8392379999999999
1629797530172,-0.30445099999999997,-0.441945,-0.842959
1629797530181,-0.305854,-0.43676,-0.84302
1629797530191,-0.307135,-0.429013,-0.842044
1629797530201,-0.30597599999999997,-0.41748399999999997,-0.845643
1629797530210,-0.306403,-0.403881,-0.847534
1629797530220,-0.30988,-0.39497499999999997,-0.848388
1629797530229,-0.312869,-0.388631,-0.85522
1629797530239,-0.3172,-0.381982,-0.864736
1629797530249,-0.32208,-0.38112799999999997,-0.869555
1629797530258,-0.325069,-0.378566,-0.868396
1629797530268,-0.327143,-0.37155099999999996,-0.862174
1629797530277,-0.327692,-0.363316,-0.855281
1629797530287,-0.332511,-0.356972,-0.858575
1629797530297,-0.330742,-0.34465,-0.86803
1629797530306,-0.334768,-0.331108,-0.875594
1629797530316,-0.337818,-0.318969,-0.872788
1629797530325,-0.342393,-0.311344,-0.875899
1629797530335,-0.344101,-0.304268,-0.881023
1629797530345,-0.343796,-0.297375,-0.8857809999999999
1629797530354,-0.343186,-0.287066,-0.890173
1629797530364,-0.34526,-0.274439,-0.890783
1629797530373,-0.34690699999999997,-0.270291,-0.895236
1629797530383,-0.347395,-0.267058,-0.896883
1629797530393,-0.346846,-0.26187299999999997,-0.897249
1629797530402,-0.3477,-0.250466,-0.8985299999999999
1629797530412,-0.350018,-0.238571,-0.895968
1629797530421,-0.35197,-0.231373,-0.8960899999999999
1629797530431,-0.351482,-0.223504,-0.896456
1629797530441,-0.351055,-0.215086,-0.892125
1629797530450,-0.349957,-0.206363,-0.889075
1629797530460,-0.351238,-0.197823,-0.885598
1629797530469,-0.352763,-0.190808,-0.8854759999999999
1629797530479,-0.353861,-0.187514,-0.886635
1629797530489,-0.353983,-0.18605,-0.886635
1629797530498,-0.35434899999999997,-0.184281,-0.88511
1629797530508,-0.352031,-0.184159,-0.882914
1629797530517,-0.349286,-0.186172,-0.878095
1629797530527,-0.347822,-0.188368,-0.874862
1629797530537,-0.34599199999999997,-0.192394,-0.873642
1629797530546,-0.34538199999999997,-0.197518,-0.873398
1629797530556,-0.344223,-0.2013,-0.872544
1629797530565,-0.343918,-0.203862,-0.8702259999999999
1629797530575,-0.343918,-0.207766,-0.866139
1629797530585,-0.34172199999999997,-0.216916,-0.863211
1629797530594,-0.340258,-0.231373,-0.865346
1629797530604,-0.335866,-0.247416,-0.869311
1629797530613,-0.330498,-0.261385,-0.870104
1629797530623,-0.329034,-0.274744,-0.870958
1629797530633,-0.327021,-0.291946,-0.874862
1629797530642,-0.324154,-0.302682,-0.875045
1629797530652,-0.321897,-0.314577,-0.874618
1629797530661,-0.320799,-0.328973,-0.875472
1629797530671,-0.315248,-0.334646,-0.870104
1629797530681,-0.31768799999999997,-0.334829,-0.861076
1629797530690,-0.320616,-0.34404,-0.8626619999999999
1629797530700,-0.319396,-0.362096,-0.870592
1629797530709,-0.316041,-0.384544,-0.875472
1629797530719,-0.312015,-0.40546699999999997,-0.878888
1629797530729,-0.30902599999999997,-0.423218,-0.8799859999999999
1629797530738,-0.309514,-0.436394,-0.88084
1629797530748,-0.310368,-0.443592,-0.886574
1629797530757,-0.30719599999999997,-0.43938299999999997,-0.896883
1629797530767,-0.310185,-0.447252,-0.896029
1629797530777,-0.305732,-0.44682499999999997,-0.8994449999999999
1629797530786,-0.300913,-0.447496,-0.894504
1629797530796,-0.295057,-0.446154,-0.88816
1629797530805,-0.290604,-0.44652,-0.882304
1629797530815,-0.284016,-0.445178,-0.871019
1629797530825,-0.279929,-0.443531,-0.858758
1629797530834,-0.275476,-0.447862,-0.846436
1629797530844,-0.275293,-0.45566999999999996,-0.841068
1629797530853,-0.273829,-0.46585699999999997,-0.842349
1629797530863,-0.274134,-0.474458,-0.8492419999999999
1629797530873,-0.275171,-0.47946,-0.856745
1629797530882,-0.276025,-0.48348599999999997,-0.861808
1629797530892,-0.278038,-0.477081,-0.867786
1629797530901,-0.277855,-0.466894,-0.869982
1629797530911,-0.279502,-0.462563,-0.8647969999999999
1629797530921,-0.28377199999999997,-0.458232,-0.860161
1629797530930,-0.288103,-0.455487,-0.864553
1629797530940,-0.287981,-0.456219,-0.866932
1629797530949,-0.290055,-0.453474,-0.873032
1629797530959,-0.29097,-0.450851,-0.885598
1629797530969,-0.292922,-0.444507,-0.894748
1629797530978,-0.29463,-0.438712,-0.894931
1629797530988,-0.29761899999999997,-0.43255099999999996,-0.894443
1629797530997,-0.298168,-0.425048,-0.898286
1629797531007,-0.29761899999999997,-0.418155,-0.895846
1629797531017,-0.29700899999999997,-0.41107899999999997,-0.897371
1629797531026,-0.295362,-0.40089199999999997,-0.893772
1629797531036,-0.29341,-0.388753,-0.889319
1629797531045,-0.29402,-0.381555,-0.883097
1629797531055,-0.292312,-0.37332,-0.87718
1629797531065,-0.290726,-0.366,-0.873703
1629797531074,-0.288042,-0.357216,-0.8647969999999999
1629797531084,-0.28560199999999997,-0.348676,-0.854793
1629797531093,-0.286456,-0.336232,-0.847229
1629797531103,-0.287005,-0.325984,-0.84302
1629797531113,-0.287798,-0.322751,-0.842654
1629797531122,-0.285358,-0.317017,-0.843508
1629797531132,-0.287188,-0.311832,-0.844118
1629797531141,-0.287432,-0.308904,-0.84729
1629797531151,-0.289262,-0.307379,-0.852231
1629797531161,-0.291214,-0.304207,-0.857111
1629797531170,-0.291519,-0.301645,-0.859673
1629797531180,-0.293776,-0.29707,-0.861198
1629797531189,-0.294691,-0.29243399999999997,-0.862784
1629797531199,-0.29524,-0.291214,-0.859185
1629797531209,-0.295118,-0.287066,-0.858636
1629797531218,-0.298412,-0.28407699999999997,-0.8601
1629797531228,-0.30012,-0.283711,-0.861198
1629797531237,-0.303536,-0.287005,-0.864675
1629797531247,-0.30628099999999997,-0.294142,-0.8723609999999999
1629797531257,-0.30561,-0.301096,-0.87718
1629797531266,-0.303048,-0.30927,-0.881633
1629797531276,-0.301462,-0.318786,-0.881572
1629797531285,-0.298717,-0.33488999999999997,-0.8796809999999999
1629797531295,-0.292068,-0.35563,-0.87596
1629797531305,-0.287554,-0.370453,-0.877912
1629797531314,-0.282918,-0.382287,-0.8787659999999999
1629797531324,-0.279441,-0.392474,-0.8787659999999999
1629797531333,-0.2745,-0.40699199999999996,-0.878095
1629797531343,-0.269437,-0.425719,-0.8790709999999999
1629797531353,-0.264618,-0.43877299999999997,-0.8778509999999999
1629797531362,-0.257054,-0.448594,-0.878217
1629797531372,-0.253577,-0.453718,-0.8778509999999999
1629797531381,-0.250344,-0.456524,-0.8757159999999999
1629797531391,-0.247172,-0.461831,-0.872178
1629797531401,-0.243024,-0.471896,-0.866871
1629797531410,-0.239974,-0.479826,-0.8635769999999999
1629797531420,-0.23558199999999999,-0.486414,-0.8605269999999999
1629797531429,-0.232715,-0.48836599999999997,-0.859246
1629797531439,-0.229543,-0.484767,-0.856806
1629797531449,-0.226981,-0.47763,-0.856074
1629797531458,-0.223931,-0.473665,-0.854671
1629797531468,-0.222406,-0.47268899999999997,-0.856379
1629797531477,-0.21953899999999998,-0.474336,-0.858636
1629797531487,-0.217099,-0.47573899999999997,-0.860588
1629797531497,-0.217953,-0.474458,-0.863394
1629797531506,-0.21770899999999999,-0.474641,-0.8626619999999999
1629797531516,-0.216001,-0.473482,-0.8626619999999999
1629797531525,-0.216916,-0.47085899999999997,-0.861808
1629797531535,-0.216184,-0.469151,-0.859734
1629797531545,-0.213744,-0.46482,-0.858148
1629797531554,-0.214659,-0.461526,-0.865712
1629797531564,-0.21398799999999998,-0.466528,-0.87718
1629797531573,-0.21246299999999999,-0.471103,-0.883158
1629797531583,-0.214354,-0.474946,-0.88084
1629797531593,-0.21490299999999998,-0.472811,-0.877485
1629797531602,-0.217587,-0.46768699999999996,-0.875838
1629797531612,-0.22045399999999998,-0.4636,-0.8769359999999999
1629797531621,-0.22082,-0.458354,-0.875838
1629797531631,-0.222833,-0.449997,-0.8769359999999999
1629797531641,-0.22478499999999998,-0.441762,-0.880474
1629797531650,-0.226798,-0.43602799999999997,-0.8790709999999999
1629797531660,-0.228872,-0.42944,-0.882243
1629797531669,-0.229665,-0.423584,-0.885842
1629797531679,-0.23125099999999998,-0.417423,-0.889685
1629797531689,-0.23241,-0.412177,-0.891393
1629797531698,-0.233447,-0.411323,-0.893528
1629797531708,-0.23424,-0.405589,-0.893406
1629797531717,-0.23607,-0.390766,-0.8957849999999999
1629797531727,-0.237778,-0.380274,-0.904508
1629797531737,-0.240401,-0.371795,-0.904874
1629797531746,-0.242231,-0.362706,-0.902068
1629797531756,-0.244732,-0.352275,-0.905179
1629797531765,-0.244305,-0.34446699999999997,-0.908656
1629797531775,-0.244061,-0.33977,-0.911584
1629797531785,-0.244427,-0.338916,-0.910059
1629797531794,-0.245769,-0.334829,-0.907192
1629797531804,-0.245342,-0.325618,-0.903593
1629797531813,-0.247538,-0.311832,-0.899628
1629797531823,-0.251442,-0.299571,-0.8997499999999999
1629797531833,-0.25498,-0.291641,-0.902129
1629797531842,-0.258091,-0.28548,-0.907131
1629797531852,-0.261141,-0.282918,-0.910608
1629797531861,-0.265228,-0.278526,-0.909144
1629797531871,-0.271328,-0.273158,-0.9055449999999999
1629797531881,-0.27999,-0.270596,-0.905057
1629797531890,-0.2867,-0.262422,-0.904264
1629797531900,-0.293776,-0.249612,-0.906582
1629797531909,-0.300364,-0.236314,-0.908961
1629797531919,-0.307867,-0.227286,-0.9088999999999999
1629797531929,-0.316407,-0.221003,-0.908473
1629797531938,-0.323971,-0.22014899999999998,-0.905606
1629797531948,-0.32848499999999997,-0.218868,-0.902678
1629797531957,-0.331779,-0.216428,-0.9018849999999999
1629797531967,-0.33672,-0.211304,-0.905667
1629797531977,-0.337696,-0.206363,-0.902129
1629797531986,-0.341356,-0.198311,-0.9012749999999999
1629797531996,-0.34282,-0.190808,-0.902617
1629797532005,-0.342271,-0.186477,-0.903349
1629797532015,-0.34526,-0.181414,-0.905423
1629797532025,-0.347456,-0.177998,-0.907497
1629797532034,-0.351055,-0.178425,-0.906887
1629797532044,-0.35197,-0.180011,-0.904081
1629797532053,-0.3538,-0.17873,-0.896029
1629797532063,-0.356606,-0.174887,-0.888953
1629797532073,-0.362645,-0.171959,-0.8842559999999999
1629797532082,-0.36295,-0.166957,-0.889258
1629797532092,-0.36636599999999997,-0.163663,-0.8936499999999999
1629797532101,-0.36819599999999997,-0.162382,-0.897798
1629797532111,-0.370087,-0.165981,-0.897066
1629797532121,-0.36966,-0.167201,-0.894077
1629797532130,-0.372466,-0.166469,-0.893406
1629797532140,-0.374906,-0.16287,-0.893894
1629797532149,-0.378139,-0.161528,-0.88999
1629797532159,-0.384361,-0.159881,-0.884744
1629797532169,-0.386923,-0.156038,-0.875655
1629797532178,-0.393511,-0.15006,-0.868518
1629797532188,-0.399855,-0.142557,-0.8651019999999999
1629797532197,-0.402905,-0.13602999999999998,-0.862296
1629797532207,-0.404674,-0.130296,-0.860161
1629797532217,-0.408334,-0.125294,-0.858209
1629797532226,-0.41290899999999997,-0.122366,-0.857416
1629797532236,-0.416996,-0.124379,-0.860771
1629797532245,-0.42212,-0.129991,-0.862845
1629797532255,-0.42584099999999997,-0.137799,-0.867847
1629797532265,-0.42822,-0.147071,-0.872117
1629797532274,-0.429074,-0.155794,-0.874313
1629797532284,-0.43133099999999996,-0.161528,-0.874374
1629797532293,-0.43371,-0.165371,-0.8723
1629797532303,-0.434137,-0.165432,-0.865224
1629797532313,-0.439627,-0.163663,-0.859978
1629797532322,-0.446886,-0.164761,-0.86132
1629797532332,-0.45444999999999997,-0.163724,-0.8620519999999999
1629797532341,-0.460306,-0.165432,-0.863394
1629797532351,-0.464271,-0.169763,-0.865712
1629797532361,-0.467809,-0.174521,-0.866017
1629797532370,-0.47031,-0.18117,-0.866688
1629797532380,-0.472872,-0.18531799999999998,-0.866566
1629797532389,-0.474641,-0.191357,-0.8662
1629797532399,-0.477203,-0.192882,-0.865773
1629797532409,-0.480436,-0.194102,-0.86742
1629797532418,-0.481473,-0.19611499999999998,-0.8726659999999999
1629797532428,-0.48287599999999997,-0.19947,-0.8732759999999999
1629797532437,-0.481778,-0.20349599999999998,-0.871019
1629797532447,-0.480985,-0.209108,-0.866505
1629797532457,-0.481961,-0.216428,-0.864919
1629797532466,-0.483364,-0.223992,-0.865834
1629797532476,-0.483242,-0.234179,-0.867664
1629797532485,-0.481595,-0.241316,-0.865346
1629797532495,-0.479948,-0.241865,-0.862723
1629797532505,-0.486414,-0.236131,-0.85583
1629797532514,-0.47939899999999996,-0.23546,-0.847961
1629797532524,-0.475251,-0.23186099999999998,-0.840702
1629797532533,-0.4758,-0.23338599999999998,-0.8367979999999999
1629797532543,-0.48007,-0.23058,-0.8352729999999999
1629797532553,-0.47268899999999997,-0.23119,-0.829661
1629797532562,-0.470981,-0.235216,-0.8276479999999999
1629797532572,-0.47665399999999997,-0.244122,-0.829112
1629797532581,-0.477691,-0.246806,-0.828929
1629797532591,-0.484462,-0.24766,-0.821487
1629797532601,-0.48287599999999997,-0.252906,-0.8139839999999999
1629797532610,-0.482327,-0.253028,-0.807945
1629797532620,-0.484584,-0.255529,-0.8026989999999999
1629797532629,-0.485682,-0.254858,-0.801906
1629797532639,-0.48861,-0.257176,-0.803675
1629797532649,-0.493124,-0.263947,-0.812886
1629797532658,-0.494161,-0.279075,-0.8233779999999999
1629797532668,-0.492148,-0.298717,-0.825269
1629797532677,-0.491538,-0.313723,-0.817217
1629797532687,-0.494222,-0.323483,-0.80825
1629797532697,-0.49916299999999997,-0.326655,-0.798368
1629797532706,-0.505385,-0.327814,-0.7896449999999999
1629797532716,-0.511912,-0.32269,-0.787388
1629797532725,-0.515694,-0.319152,-0.790926
1629797532735,-0.5176459999999999,-0.319579,-0.797148
1629797532745,-0.5182559999999999,-0.31768799999999997,-0.802272
1629797532754,-0.519354,-0.316102,-0.806176
1629797532764,-0.518378,-0.316651,-0.808311
1629797532773,-0.518683,-0.317627,-0.80764
1629797532783,-0.5210009999999999,-0.316834,-0.803492
1629797532793,-0.523563,-0.319701,-0.801967
1629797532802,-0.526857,-0.32086,-0.799588
1629797532812,-0.529175,-0.320189,-0.793183
1629797532821,-0.532042,-0.32043299999999997,-0.7875099999999999
1629797532831,-0.531554,-0.319152,-0.784399
1629797532841,-0.529358,-0.315675,-0.782386
1629797532850,-0.530456,-0.312442,-0.780556
1629797532860,-0.530212,-0.313845,-0.776774
1629797532869,-0.53375,-0.320067,-0.773968
1629797532879,-0.53497,-0.325191,-0.770003
1629797532889,-0.5361899999999999,-0.33061999999999997,-0.765123
1629797532898,-0.538203,-0.331718,-0.762317
1629797532908,-0.539728,-0.337757,-0.761585
1629797532917,-0.539606,-0.33977,-0.7598159999999999
1629797532927,-0.5392399999999999,-0.34385699999999997,-0.759938
1629797532937,-0.539728,-0.352641,-0.7604259999999999
1629797532946,-0.539606,-0.356423,-0.759694
1629797532956,-0.536739,-0.35563,-0.7598159999999999
1629797532965,-0.536434,-0.354532,-0.760975
1629797532975,-0.537166,-0.355325,-0.762744
1629797532985,-0.539423,-0.353922,-0.7640859999999999
1629797532994,-0.541863,-0.35251899999999997,-0.7643909999999999
1629797533004,-0.5413749999999999,-0.351665,-0.765062
1629797533013,-0.543266,-0.35197,-0.762378
1629797533023,-0.544303,-0.35251899999999997,-0.76128
1629797533033,-0.545462,-0.353495,-0.759084
1629797533042,-0.546377,-0.353312,-0.756644
1629797533052,-0.549488,-0.354898,-0.7546309999999999
1629797533061,-0.551196,-0.357948,-0.7567659999999999
1629797533071,-0.550586,-0.361425,-0.757864
1629797533081,-0.550464,-0.361242,-0.75823
1629797533090,-0.549549,-0.35953399999999996,-0.761524
1629797533100,-0.550159,-0.35556899999999997,-0.7665259999999999
1629797533109,-0.549915,-0.354166,-0.770796
1629797533119,-0.550281,-0.353556,-0.773602
1629797533129,-0.55083,-0.354776,-0.772687
1629797533138,-0.551745,-0.356545,-0.770674
1629797533148,-0.553148,-0.359656,-0.767807
1629797533157,-0.550952,-0.363438,-0.771101
1629797533167,-0.545767,-0.36667099999999997,-0.765794
1629797533177,-0.5483899999999999,-0.366915,-0.7616459999999999
1629797533186,-0.547597,-0.369294,-0.7610359999999999
1629797533196,-0.548817,-0.370697,-0.766099
1629797533205,-0.5471699999999999,-0.373076,-0.773175
1629797533215,-0.546804,-0.373686,-0.777262
1629797533225,-0.544059,-0.373076,-0.782264
1629797533234,-0.537959,-0.372588,-0.783972
1629797533244,-0.535397,-0.37094099999999997,-0.785863
1629797533253,-0.53375,-0.36880599999999997,-0.787571
1629797533263,-0.532042,-0.368928,-0.785558
1629797533273,-0.530578,-0.370758,-0.781959
1629797533282,-0.528504,-0.370514,-0.779763
1629797533292,-0.525942,-0.37149,-0.7783599999999999
1629797533301,-0.5246,-0.372466,-0.777933
1629797533311,-0.522099,-0.37155099999999996,-0.777262
1629797533321,-0.521672,-0.371612,-0.777567
1629797533330,-0.520269,-0.370758,-0.777506
1629797533340,-0.51789,-0.369965,-0.777994
1629797533349,-0.516182,-0.36819599999999997,-0.7780549999999999
1629797533359,-0.51301,-0.366244,-0.778604
1629797533369,-0.508984,-0.365024,-0.778482
1629797533378,-0.506666,-0.36514599999999997,-0.7768349999999999
1629797533388,-0.505873,-0.364475,-0.778482
1629797533397,-0.505141,-0.365573,-0.780678
1629797533407,-0.499895,-0.36545099999999997,-0.782508
1629797533417,-0.49824799999999997,-0.365634,-0.784277
1629797533426,-0.497516,-0.365573,-0.7850699999999999
1629797533436,-0.496906,-0.36661,-0.7835449999999999
1629797533445,-0.496967,-0.36758599999999997,-0.783118
1629797533455,-0.49654,-0.368074,-0.782386
1629797533465,-0.49471,-0.37027,-0.782264
1629797533474,-0.492819,-0.370758,-0.7844599999999999
1629797533484,-0.492758,-0.371124,-0.784704
1629797533493,-0.492148,-0.371063,-0.785314
1629797533503,-0.492209,-0.371429,-0.787388
1629797533513,-0.491538,-0.371307,-0.7884249999999999
1629797533522,-0.489525,-0.371795,-0.789584
1629797533532,-0.48897599999999997,-0.372039,-0.7893399999999999
1629797533541,-0.487634,-0.370575,-0.791353
1629797533551,-0.485438,-0.369233,-0.793183
1629797533561,-0.484767,-0.368928,-0.793915
1629797533570,-0.482754,-0.368013,-0.794098
1629797533580,-0.47946,-0.36789099999999997,-0.792573
1629797533589,-0.477081,-0.367403,-0.792024
1629797533599,-0.475983,-0.36880599999999997,-0.79239
1629797533609,-0.47275,-0.370148,-0.792451
1629797533618,-0.471225,-0.37332,-0.793427
1629797533628,-0.469822,-0.376614,-0.793488
1629797533637,-0.467748,-0.37929799999999997,-0.793549
1629797533647,-0.465186,-0.38356799999999996,-0.792146
1629797533657,-0.46311199999999997,-0.387045,-0.79239
1629797533666,-0.460916,-0.387533,-0.792512
1629797533676,-0.46036699999999997,-0.387167,-0.792573
1629797533685,-0.45884199999999997,-0.388692,-0.791902
1629797533695,-0.457012,-0.389729,-0.791902
1629797533705,-0.454084,-0.39131499999999997,-0.7917799999999999
1629797533714,-0.451339,-0.394243,-0.793366
1629797533724,-0.448289,-0.397171,-0.793549
1629797533733,-0.445422,-0.401014,-0.794037
1629797533743,-0.444019,-0.402905,-0.791414
1629797533753,-0.44456799999999996,-0.402844,-0.7878149999999999
1629797533762,-0.44365299999999996,-0.404369,-0.782874
1629797533772,-0.445239,-0.402539,-0.780007
1629797533781,-0.449753,-0.40180699999999997,-0.779214
1629797533791,-0.453108,-0.401868,-0.781349
1629797533801,-0.454206,-0.402478,-0.778787
1629797533810,-0.454389,-0.406748,-0.777201
1629797533820,-0.45536499999999996,-0.415105,-0.7774449999999999
1629797533829,-0.45292499999999997,-0.42334,-0.777811
1629797533839,-0.449814,-0.430538,-0.776591
1629797533849,-0.443714,-0.43798,-0.774822
1629797533858,-0.43785799999999997,-0.442799,-0.773785
1629797533868,-0.432612,-0.446398,-0.768356
1629797533877,-0.431148,-0.45292499999999997,-0.764269
1629797533887,-0.42919599999999997,-0.46726,-0.76616
1629797533897,-0.426024,-0.485804,-0.771162
1629797533906,-0.420412,-0.504592,-0.77348
1629797533916,-0.417667,-0.514779,-0.774578
1629797533925,-0.413763,-0.5170359999999999,-0.776286
1629797533935,-0.410957,-0.515084,-0.777506
1629797533945,-0.40790699999999996,-0.510814,-0.775981
1629797533954,-0.406809,-0.504592,-0.775432
1629797533964,-0.406199,-0.497821,-0.777628
1629797533973,-0.404979,-0.491965,-0.7762249999999999
1629797533983,-0.40443,-0.485377,-0.774517
1629797533993,-0.405345,-0.477935,-0.774273
1629797534002,-0.40607699999999997,-0.47397,-0.774639
1629797534012,-0.406138,-0.47031,-0.774456
1629797534021,-0.406748,-0.468785,-0.777323
1629797534031,-0.406016,-0.468968,-0.7792749999999999
1629797534041,-0.40687,-0.469822,-0.7789699999999999
1629797534050,-0.40577199999999997,-0.470676,-0.778238
1629797534060,-0.405223,-0.471225,-0.777872
1629797534069,-0.404796,-0.469822,-0.778238
1629797534079,-0.404491,-0.465979,-0.777628
1629797534089,-0.405223,-0.461648,-0.774395
1629797534098,-0.407175,-0.45566999999999996,-0.771528
1629797534108,-0.410713,-0.45261999999999997,-0.770308
1629797534117,-0.412848,-0.44926499999999997,-0.769454
1629797534127,-0.41419,-0.44773999999999997,-0.769332
1629797534137,-0.416325,-0.446093,-0.769942
1629797534146,-0.416325,-0.446154,-0.770247
1629797534156,-0.416386,-0.448167,-0.769515
1629797534165,-0.415532,-0.448899,-0.767807
1629797534175,-0.417301,-0.451827,-0.76494
1629797534185,-0.416752,-0.456524,-0.765428
1629797534194,-0.41785,-0.458232,-0.76555
1629797534204,-0.41900899999999996,-0.46067199999999997,-0.765123
1629797534213,-0.419558,-0.461465,-0.765672
1629797534223,-0.421388,-0.463173,-0.76433
1629797534233,-0.422059,-0.466589,-0.765794
1629797534242,-0.422608,-0.469456,-0.766892
1629797534252,-0.423523,-0.470737,-0.76738
1629797534261,-0.42553599999999997,-0.47458,-0.766404
1629797534271,-0.426878,-0.480436,-0.765184
1629797534281,-0.429074,-0.485499,-0.765062
1629797534290,-0.429989,-0.488793,-0.766282
1629797534300,-0.43072099999999997,-0.49263599999999996,-0.770003
1629797534309,-0.42944,-0.496357,-0.771345
1629797534319,-0.427549,-0.497516,-0.772382
1629797534329,-0.428159,-0.498065,-0.771772
1629797534338,-0.428769,-0.496845,-0.77104
1629797534348,-0.428403,-0.497089,-0.770308
1629797534357,-0.42822,-0.494222,-0.768539
1629797534367,-0.429745,-0.49019599999999997,-0.766587
1629797534377,-0.431758,-0.48440099999999997,-0.765672
1629797534386,-0.433649,-0.478057,-0.764025
1629797534396,-0.434991,-0.47451899999999997,-0.76067
1629797534405,-0.43541799999999997,-0.470188,-0.7601209999999999
1629797534415,-0.43663799999999997,-0.466955,-0.759084
1629797534425,-0.438041,-0.464088,-0.758779
1629797534434,-0.43846799999999997,-0.46280699999999997,-0.758169
1629797534444,-0.438346,-0.463234,-0.758047
1629797534453,-0.439444,-0.46463699999999997,-0.7592059999999999
1629797534463,-0.438712,-0.465369,-0.760182
1629797534473,-0.43999299999999997,-0.46707699999999996,-0.759938
1629797534482,-0.439871,-0.471103,-0.759084
1629797534492,-0.439139,-0.473726,-0.759084
1629797534501,-0.438834,-0.47329899999999997,-0.759267
1629797534511,-0.440054,-0.472933,-0.758657
1629797534521,-0.440115,-0.47329899999999997,-0.757803
1629797534530,-0.441762,-0.470798,-0.75762
1629797534540,-0.442677,-0.471652,-0.757742
1629797534549,-0.442799,-0.47458,-0.757803
1629797534559,-0.44347,-0.47573899999999997,-0.759328
1629797534569,-0.442311,-0.475251,-0.759145
1629797534578,-0.442616,-0.47641,-0.758474
1629797534588,-0.443287,-0.47824,-0.760914
1629797534597,-0.44212799999999997,-0.479765,-0.75945
1629797534607,-0.44164,-0.47909399999999996,-0.759084
1629797534617,-0.44103,-0.478728,-0.75823
1629797534626,-0.440115,-0.47763,-0.757559
1629797534636,-0.439566,-0.477752,-0.757437
1629797534645,-0.43846799999999997,-0.478362,-0.758474
1629797534655,-0.437797,-0.479887,-0.758352
1629797534665,-0.436211,-0.480863,-0.75823
1629797534674,-0.43633299999999997,-0.482327,-0.756217
1629797534684,-0.436211,-0.482327,-0.7546309999999999
1629797534693,-0.435845,-0.482083,-0.75457
1629797534703,-0.43737,-0.481717,-0.753594
1629797534713,-0.435784,-0.48007,-0.7524959999999999
1629797534722,-0.435052,-0.479033,-0.7521909999999999
1629797534732,-0.43541799999999997,-0.476715,-0.7552409999999999
1629797534741,-0.43511299999999997,-0.475251,-0.758047
1629797534751,-0.43602799999999997,-0.47451899999999997,-0.759084
1629797534761,-0.43676,-0.474946,-0.758108
1629797534770,-0.43676,-0.47397,-0.7567659999999999
1629797534780,-0.437675,-0.475922,-0.756034
1629797534789,-0.437004,-0.47763,-0.755119
1629797534799,-0.435906,-0.48007,-0.754387
1629797534809,-0.435967,-0.482144,-0.756034
1629797534818,-0.43694299999999997,-0.483425,-0.7567659999999999
1629797534828,-0.43663799999999997,-0.48531599999999997,-0.755058
1629797534837,-0.437065,-0.486902,-0.754875
1629797534847,-0.43633299999999997,-0.488854,-0.756644
1629797534857,-0.435662,-0.491477,-0.756583
1629797534866,-0.435296,-0.490318,-0.755424
1629797534876,-0.435479,-0.48861,-0.756034
1629797534885,-0.436272,-0.486902,-0.755424
1629797534895,-0.436699,-0.484645,-0.755058
1629797534905,-0.438956,-0.481839,-0.754997
1629797534914,-0.439627,-0.479948,-0.756095
1629797534924,-0.439444,-0.478118,-0.75701
1629797534933,-0.439505,-0.477203,-0.7564
1629797534943,-0.438956,-0.47756899999999997,-0.755912
1629797534953,-0.438285,-0.478911,-0.7543259999999999
1629797534962,-0.440054,-0.480558,-0.753533
1629797534972,-0.440359,-0.48031399999999996,-0.75335
1629797534981,-0.44029799999999997,-0.479216,-0.751947
1629797534991,-0.440481,-0.47946,-0.752618
1629797535001,-0.438651,-0.481168,-0.753289
1629797535010,-0.438102,-0.481473,-0.751703
1629797535020,-0.43859,-0.481412,-0.74908
1629797535029,-0.438651,-0.482754,-0.748897
1629797535039,-0.43816299999999997,-0.48312,-0.746579
1629797535049,-0.439261,-0.482754,-0.743346
1629797535058,-0.43938299999999997,-0.485499,-0.744139
1629797535068,-0.438102,-0.490013,-0.745176
1629797535077,-0.436882,-0.495015,-0.747555
1629797535087,-0.436089,-0.500078,-0.749446
1629797535097,-0.435967,-0.502274,-0.750849
1629797535106,-0.43724799999999997,-0.504287,-0.749019
1629797535116,-0.43755299999999997,-0.506056,-0.748836
1629797535125,-0.437004,-0.505812,-0.748592
1629797535135,-0.438651,-0.504165,-0.750361
1629797535145,-0.438956,-0.50325,-0.7515809999999999
1629797535154,-0.43859,-0.50325,-0.751154
1629797535164,-0.437919,-0.502884,-0.751032
1629797535173,-0.437675,-0.501908,-0.7503
1629797535183,-0.437492,-0.501054,-0.7506659999999999
1629797535193,-0.436882,-0.499529,-0.749202
1629797535202,-0.43694299999999997,-0.498797,-0.748226
1629797535212,-0.435906,-0.49654,-0.748714
1629797535221,-0.437065,-0.49458799999999997,-0.748653
1629797535231,-0.43755299999999997,-0.49288,-0.749812
1629797535241,-0.438102,-0.49050099999999996,-0.749934
1629797535250,-0.43785799999999997,-0.489464,-0.750788
1629797535260,-0.43859,-0.48745099999999997,-0.750788
1629797535269,-0.43981,-0.48623099999999997,-0.751093
1629797535279,-0.439566,-0.487695,-0.7518859999999999
1629797535289,-0.4392,-0.49050099999999996,-0.751642
1629797535298,-0.44042,-0.491172,-0.752435
1629797535308,-0.442677,-0.49080599999999996,-0.750727
1629797535317,-0.444446,-0.490562,-0.749202
1629797535327,-0.447008,-0.491172,-0.745542
1629797535337,-0.448472,-0.49733299999999997,-0.74481
1629797535346,-0.450668,-0.501298,-0.74786
1629797535356,-0.449143,-0.504104,-0.753167
1629797535365,-0.447984,-0.504104,-0.758657
1629797535375,-0.449204,-0.502518,-0.764208
1629797535385,-0.44926499999999997,-0.503738,-0.766892
1629797535394,-0.44834999999999997,-0.501542,-0.7650009999999999
1629797535404,-0.448106,-0.499285,-0.761158
1629797535413,-0.448167,-0.498126,-0.756522
1629797535423,-0.446154,-0.500261,-0.753228
1629797535433,-0.445117,-0.501481,-0.750788
1629797535442,-0.44591,-0.50447,-0.754143
1629797535452,-0.447374,-0.507581,-0.7592059999999999
1629797535461,-0.447252,-0.510204,-0.760853
1629797535471,-0.449936,-0.5124609999999999,-0.7592059999999999
1629797535481,-0.454267,-0.512583,-0.760365
1629797535490,-0.456097,-0.510814,-0.75884
1629797535500,-0.45597499999999996,-0.510204,-0.754875
1629797535509,-0.457683,-0.509167,-0.751459
1629797535519,-0.46128199999999997,-0.508374,-0.754753
1629797535529,-0.462685,-0.508801,-0.757925
1629797535538,-0.46787,-0.50874,-0.76006
1629797535548,-0.47238399999999997,-0.509716,-0.763659
1629797535557,-0.476471,-0.51301,-0.767258
1629797535567,-0.47878899999999996,-0.514352,-0.770674
1629797535577,-0.476837,-0.512583,-0.77165
1629797535586,-0.475678,-0.509716,-0.767685
1629797535596,-0.472567,-0.506117,-0.764818
1629797535605,-0.47153,-0.502213,-0.765672
1629797535615,-0.470737,-0.500505,-0.76799
1629797535625,-0.471347,-0.499346,-0.768417
1629797535634,-0.471896,-0.49959,-0.770186
1629797535644,-0.472628,-0.5002,-0.772748
1629797535653,-0.47146899999999997,-0.5002,-0.774517
1629797535663,-0.467504,-0.496906,-0.776164
1629797535673,-0.463966,-0.493856,-0.778604
1629797535682,-0.458415,-0.485072,-0.784338
1629797535692,-0.45200999999999997,-0.47512899999999997,-0.7838499999999999
1629797535701,-0.44834999999999997,-0.46311199999999997,-0.782752
1629797535711,-0.446947,-0.45597499999999996,-0.783606
1629797535721,-0.44743499999999997,-0.451644,-0.781959
1629797535730,-0.444324,-0.452559,-0.787388
1629797535740,-0.43968799999999997,-0.457317,-0.798124
1629797535749,-0.43255099999999996,-0.454816,-0.793732
1629797535759,-0.42334,-0.447618,-0.789218
1629797535769,-0.412482,-0.435052,-0.791719
1629797535778,-0.407114,-0.41626399999999997,-0.794952
1629797535788,-0.403515,-0.396256,-0.7991
1629797535797,-0.399611,-0.37807799999999997,-0.804712
1629797535807,-0.395768,-0.367403,-0.811727
1629797535817,-0.38856999999999997,-0.366793,-0.822097
1629797535826,-0.378749,-0.369355,-0.830149
1629797535836,-0.370453,-0.37716299999999997,-0.831979
1629797535845,-0.36514599999999997,-0.382287,-0.828929
1629797535855,-0.361913,-0.387594,-0.822036
1629797535865,-0.361669,-0.391559,-0.81557
1629797535874,-0.357826,-0.393389,-0.812947
1629797535884,-0.356362,-0.391071,-0.8133739999999999
1629797535893,-0.354227,-0.379969,-0.8097139999999999
1629797535903,-0.358192,-0.364902,-0.8060539999999999
1629797535913,-0.366427,-0.35563,-0.806725
1629797535922,-0.370087,-0.35739899999999997,-0.808616
1629797535932,-0.373808,-0.36423099999999997,-0.813191
1629797535941,-0.377956,-0.372161,-0.8239879999999999
1629797535951,-0.382775,-0.377651,-0.835944
1629797535961,-0.38734999999999997,-0.380762,-0.845582
1629797535970,-0.38978999999999997,-0.377224,-0.850523
1629797535980,-0.39375499999999997,-0.37027,-0.853573
1629797535989,-0.39711,-0.361425,-0.857904
1629797535999,-0.40028199999999997,-0.352458,-0.859978
1629797536009,-0.401136,-0.338367,-0.86437
1629797536018,-0.402661,-0.324032,-0.866261
1629797536028,-0.404064,-0.30933099999999997,-0.862296
1629797536037,-0.407846,-0.29341,-0.861503
1629797536047,-0.409859,-0.278892,-0.86376
1629797536057,-0.408578,-0.267058,-0.869555
1629797536066,-0.408639,-0.254797,-0.875594
1629797536076,-0.409676,-0.244244,-0.878339
1629797536085,-0.407663,-0.234728,-0.878217
1629797536095,-0.403759,-0.225822,-0.876509
1629797536105,-0.39894,-0.213927,-0.873154
1629797536114,-0.396256,-0.20166599999999998,-0.873764
1629797536124,-0.387411,-0.195017,-0.874008
1629797536133,-0.379725,-0.192882,-0.869555
1629797536143,-0.377529,-0.195444,-0.863821
1629797536153,-0.375394,-0.198372,-0.857355
1629797536162,-0.374601,-0.201422,-0.853146
1629797536172,-0.374906,-0.20410599999999998,-0.851133
1629797536181,-0.374601,-0.20319099999999998,-0.8480219999999999
1629797536191,-0.374967,-0.199104,-0.84607
1629797536201,-0.37698,-0.192821,-0.846436
1629797536210,-0.37746799999999997,-0.187575,-0.849059
1629797536220,-0.379786,-0.180194,-0.8550369999999999
1629797536229,-0.38125,-0.171837,-0.865773
1629797536239,-0.382226,-0.163358,-0.876082
1629797536249,-0.383324,-0.154086,-0.884805
1629797536258,-0.384178,-0.149145,-0.892918
1629797536268,-0.384666,-0.145363,-0.891393
1629797536277,-0.385886,-0.142557,-0.8885259999999999
1629797536287,-0.386252,-0.14457,-0.887428
1629797536297,-0.387533,-0.148169,-0.887062
1629797536306,-0.390339,-0.150182,-0.887733
1629797536316,-0.395402,-0.150731,-0.884805
1629797536325,-0.401746,-0.146949,-0.883402
1629797536335,-0.407419,-0.143228,-0.880779
1629797536345,-0.41321399999999997,-0.138165,-0.879193
1629797536354,-0.41992399999999996,-0.134078,-0.8815109999999999
1629797536364,-0.423218,-0.129686,-0.8848659999999999
1629797536373,-0.428769,-0.125904,-0.886574
1629797536383,-0.434015,-0.121817,-0.8863909999999999
1629797536393,-0.440664,-0.11730299999999999,-0.8870009999999999
1629797536402,-0.445056,-0.115717,-0.885537
1629797536412,-0.447984,-0.111813,-0.878339
1629797536421,-0.45200999999999997,-0.107787,-0.871995
1629797536431,-0.456646,-0.104798,-0.868701
1629797536441,-0.460733,-0.10406599999999999,-0.867359
1629797536450,-0.46494199999999997,-0.10406599999999999,-0.864553
1629797536460,-0.46677199999999996,-0.101199,-0.861381
1629797536469,-0.473848,-0.097417,-0.8586969999999999
1629797536479,-0.47909399999999996,-0.091561,-0.8571719999999999
1629797536489,-0.48373,-0.084851,-0.856501
1629797536498,-0.486292,-0.0793,-0.85949
1629797536508,-0.48989099999999997,-0.073444,-0.865041
1629797536517,-0.49233099999999996,-0.069967,-0.8717509999999999
1629797536527,-0.49593,-0.063562,-0.874069
1629797536537,-0.498614,-0.059841,-0.876204
1629797536546,-0.502152,-0.05856,-0.878644
1629797536556,-0.502945,-0.056669,-0.879498
1629797536565,-0.503372,-0.052032999999999996,-0.874862
1629797536575,-0.503616,-0.047945999999999996,-0.867908
1629797536585,-0.506849,-0.044042,-0.862296
1629797536594,-0.510936,-0.044225,-0.85888
1629797536604,-0.514474,-0.044774,-0.860344
1629797536613,-0.517707,-0.048617,-0.863638
1629797536623,-0.52094,-0.051667,-0.864919
1629797536633,-0.521977,-0.05307,-0.858758
1629797536642,-0.523807,-0.053496999999999996,-0.85095
1629797536652,-0.52643,-0.054046,-0.842227
1629797536661,-0.530029,-0.053436,-0.8313079999999999
1629797536671,-0.533933,-0.051179,-0.824049
1629797536681,-0.537166,-0.049044,-0.82167
1629797536690,-0.539484,-0.049532,-0.820694
1629797536700,-0.541314,-0.050873999999999996,-0.816912
1629797536709,-0.542168,-0.056974,-0.817949
1629797536719,-0.543266,-0.059414,-0.82289
1629797536729,-0.5432049999999999,-0.062098,-0.834419
1629797536738,-0.541924,-0.064233,-0.843569
1629797536748,-0.540277,-0.067832,-0.845155
1629797536757,-0.538386,-0.068808,-0.844118
1629797536767,-0.535885,-0.070272,-0.842776
1629797536777,-0.534848,-0.070882,-0.834419
1629797536786,-0.5374099999999999,-0.07356599999999999,-0.822829
1629797536796,-0.536922,-0.076616,-0.816668
1629797536805,-0.535824,-0.077958,-0.814411
1629797536815,-0.536922,-0.082594,-0.817827
1629797536825,-0.538447,-0.086864,-0.8230729999999999
1629797536834,-0.539484,-0.092903,-0.827465
1629797536844,-0.539606,-0.098088,-0.830271
1629797536853,-0.5389349999999999,-0.103883,-0.831552
1629797536863,-0.539118,-0.111386,-0.834114
1629797536873,-0.538691,-0.116571,-0.8398479999999999
1629797536882,-0.536678,-0.118462,-0.844728
1629797536892,-0.534848,-0.120048,-0.845582
1629797536901,-0.53375,-0.11931599999999999,-0.843508
1629797536911,-0.533384,-0.119987,-0.8395429999999999
1629797536921,-0.532286,-0.120536,-0.837164
1629797536930,-0.530639,-0.12023099999999999,-0.8361879999999999
1629797536940,-0.532286,-0.119865,-0.833504
1629797536949,-0.534238,-0.120597,-0.834907
1629797536959,-0.535824,-0.122122,-0.83753
1629797536969,-0.535519,-0.123098,-0.836371
1629797536978,-0.536922,-0.124501,-0.833016
1629797536988,-0.537959,-0.126819,-0.831674
1629797536997,-0.538874,-0.128527,-0.831674
1629797537007,-0.538386,-0.13054,-0.833992
1629797537017,-0.538813,-0.132065,-0.835517
1629797537026,-0.540826,-0.133041,-0.837225
1629797537036,-0.5410699999999999,-0.135176,-0.8395429999999999
1629797537045,-0.539728,-0.139568,-0.840702
1629797537055,-0.538142,-0.143655,-0.839055
1629797537065,-0.533323,-0.146583,-0.836676
1629797537074,-0.531371,-0.149572,-0.833992
1629797537084,-0.528626,-0.152439,-0.832345
1629797537093,-0.52765,-0.152805,-0.836676
1629797537103,-0.528687,-0.148535,-0.841983
1629797537113,-0.530883,-0.141642,-0.843752
1629797537122,-0.533933,-0.13047899999999998,-0.846619
1629797537132,-0.535641,-0.118218,-0.847595
1629797537141,-0.535336,-0.109556,-0.8474119999999999
1629797537151,-0.533994,-0.104554,-0.844118
1629797537161,-0.534665,-0.099552,-0.842349
1629797537170,-0.534665,-0.097661,-0.843325
1629797537180,-0.537288,-0.092903,-0.845643
1629797537189,-0.5383249999999999,-0.090829,-0.844362
1629797537199,-0.539118,-0.087657,-0.84485
1629797537209,-0.539484,-0.08912099999999999,-0.843752
1629797537218,-0.539118,-0.090097,-0.8474119999999999
1629797537228,-0.539423,-0.09394,-0.84668
1629797537237,-0.5383249999999999,-0.10126,-0.844606
1629797537247,-0.537654,-0.108153,-0.845338
1629797537257,-0.5367999999999999,-0.11547299999999999,-0.842837
1629797537266,-0.535336,-0.121817,-0.837896
1629797537276,-0.53131,-0.126697,-0.830759
1629797537285,-0.52643,-0.132248,-0.827099
1629797537295,-0.522404,-0.138958,-0.824781
1629797537305,-0.520574,-0.146156,-0.81984
1629797537314,-0.5188659999999999,-0.152927,-0.819352
1629797537324,-0.5176459999999999,-0.160186,-0.820938
1629797537333,-0.514535,-0.166652,-0.824415
1629797537343,-0.511363,-0.173667,-0.827465
1629797537353,-0.508801,-0.181475,-0.827282
1629797537362,-0.505934,-0.19025899999999998,-0.827892
1629797537372,-0.501115,-0.203252,-0.827282
1629797537381,-0.496174,-0.21472,-0.8288679999999999
1629797537391,-0.489708,-0.22386999999999999,-0.831674
1629797537401,-0.481107,-0.230702,-0.836554
1629797537410,-0.47390899999999997,-0.238205,-0.838201
1629797537420,-0.46616199999999997,-0.247111,-0.8364929999999999
1629797537429,-0.460916,-0.2562,-0.832894
1629797537439,-0.453596,-0.26718,-0.831186
1629797537449,-0.446032,-0.281271,-0.830576
1629797537458,-0.43877299999999997,-0.296277,-0.830515
1629797537468,-0.430294,-0.311466,-0.829417
1629797537477,-0.421998,-0.32787499999999997,-0.829356
1629797537487,-0.41229899999999997,-0.341051,-0.826489
1629797537497,-0.40424699999999997,-0.352641,-0.821304
1629797537506,-0.397842,-0.361852,-0.816973
1629797537516,-0.392291,-0.372405,-0.8127639999999999
1629797537525,-0.388814,-0.383751,-0.804651
1629797537535,-0.384117,-0.397049,-0.8011739999999999
1629797537545,-0.376492,-0.41778899999999997,-0.801906
1629797537554,-0.371124,-0.436272,-0.809226
1629797537564,-0.364719,-0.447496,-0.817583
1629797537573,-0.357521,-0.454816,-0.823134
1629797537583,-0.35556899999999997,-0.459818,-0.8242929999999999
1629797537593,-0.350933,-0.46555199999999997,-0.8221579999999999
1629797537602,-0.346419,-0.471347,-0.821731
1629797537612,-0.34172199999999997,-0.476532,-0.821121
1629797537621,-0.33733,-0.481717,-0.817278
1629797537631,-0.33366999999999997,-0.490257,-0.816668
1629797537641,-0.330986,-0.498675,-0.8115439999999999
1629797537650,-0.328302,-0.508496,-0.807335
1629797537660,-0.325557,-0.5170359999999999,-0.804773
1629797537669,-0.32269,-0.524478,-0.803431
1629797537679,-0.321409,-0.525576,-0.80398
1629797537689,-0.322507,-0.5240509999999999,-0.803065
1629797537698,-0.321287,-0.52338,-0.803065
1629797537708,-0.320677,-0.5234409999999999,-0.803126
1629797537717,-0.322995,-0.524112,-0.804712
1629797537727,-0.323727,-0.523014,-0.803675
1629797537737,-0.326411,-0.522953,-0.802882
1629797537746,-0.328424,-0.524539,-0.8023939999999999
1629797537756,-0.330132,-0.521489,-0.80276
1629797537765,-0.332999,-0.52277,-0.80093
1629797537775,-0.336049,-0.523075,-0.79971
1629797537785,-0.338611,-0.52277,-0.800076
1629797537794,-0.34080699999999997,-0.520147,-0.801906
1629797537804,-0.343369,-0.514352,-0.805078
1629797537813,-0.346968,-0.507581,-0.804163
1629797537823,-0.350079,-0.500932,-0.802638
1629797537833,-0.353678,-0.4941,-0.799893
1629797537842,-0.355813,-0.486719,-0.798368
1629797537852,-0.360693,-0.482205,-0.796538
1629797537861,-0.36234,-0.480863,-0.798307
1629797537871,-0.364719,-0.481656,-0.7999539999999999
1629797537881,-0.368379,-0.482266,-0.803126
1629797537890,-0.37124599999999996,-0.48000899999999996,-0.807091
1629797537900,-0.37271,-0.472811,-0.808921
1629797537909,-0.376614,-0.464393,-0.811361
1629797537919,-0.380396,-0.451827,-0.81191
1629797537929,-0.388082,-0.440237,-0.81008
1629797537938,-0.39466999999999997,-0.43005,-0.807823
1629797537948,-0.399916,-0.41846,-0.80825
1629797537957,-0.408029,-0.40809,-0.8060539999999999
1629797537967,-0.41382399999999997,-0.39894,-0.804285
1629797537977,-0.419131,-0.390156,-0.80886
1629797537986,-0.42462099999999997,-0.382287,-0.8139839999999999
1629797537996,-0.428037,-0.372771,-0.8224629999999999
1629797538005,-0.433344,-0.36295,-0.8319179999999999
1629797538015,-0.43541799999999997,-0.353556,-0.84302
1629797538025,-0.437675,-0.346724,-0.850889
1629797538034,-0.438712,-0.340563,-0.8556469999999999
1629797538044,-0.439566,-0.33611,-0.855769
1629797538053,-0.442616,-0.33275499999999997,-0.8486319999999999
1629797538063,-0.445483,-0.326716,-0.843203
1629797538073,-0.445727,-0.32012799999999997,-0.839665
1629797538082,-0.44591,-0.313357,-0.8374079999999999
1629797538092,-0.445788,-0.306037,-0.838384
1629797538101,-0.443714,-0.299693,-0.839299
1629797538111,-0.441884,-0.29639899999999997,-0.840946
1629797538121,-0.440786,-0.29243399999999997,-0.840824
1629797538130,-0.43785799999999997,-0.289506,-0.83814
1629797538140,-0.42944,-0.288286,-0.838567
1629797538149,-0.419375,-0.287432,-0.843447
1629797538159,-0.411262,-0.289933,-0.847351
1629797538169,-0.404674,-0.29578899999999997,-0.8474119999999999
1629797538178,-0.397232,-0.299937,-0.8507669999999999
1629797538188,-0.38887499999999997,-0.304329,-0.858819
1629797538197,-0.379786,-0.306708,-0.864248
1629797538207,-0.369172,-0.304817,-0.868762
1629797538217,-0.358436,-0.301279,-0.870897
1629797538226,-0.348432,-0.299937,-0.870958
1629797538236,-0.338306,-0.297131,-0.8775459999999999
1629797538245,-0.322446,-0.303109,-0.88816
1629797538255,-0.309575,-0.31677299999999997,-0.895968
1629797538265,-0.290299,-0.332816,-0.899018
1629797538274,-0.273707,-0.348615,-0.900787
1629797538284,-0.260226,-0.364597,-0.8997499999999999
1629797538293,-0.246501,-0.37746799999999997,-0.895663
1629797538303,-0.234911,-0.386496,-0.890478
1629797538313,-0.224358,-0.391437,-0.884012
1629797538322,-0.21777,-0.390522,-0.881145
1629797538332,-0.20679,-0.388326,-0.884073
1629797538341,-0.192333,-0.384178,-0.890783
1629797538351,-0.17995,-0.382836,-0.898652
1629797538361,-0.168909,-0.383812,-0.905789
1629797538370,-0.157441,-0.387838,-0.909083
1629797538380,-0.148901,-0.39039999999999997,-0.907131
1629797538389,-0.144326,-0.394914,-0.901458
1629797538399,-0.139995,-0.397476,-0.9009699999999999
1629797538409,-0.138226,-0.405894,-0.898164
1629797538418,-0.133834,-0.41199399999999997,-0.895663
1629797538428,-0.134139,-0.411445,-0.899201
1629797538437,-0.13541999999999998,-0.40687,-0.900909
1629797538447,-0.138409,-0.397598,-0.900116
1629797538457,-0.144204,-0.38765499999999997,-0.9006649999999999
1629797538466,-0.150426,-0.380701,-0.901153
1629797538476,-0.15616,-0.374967,-0.901458
1629797538485,-0.163236,-0.370575,-0.900238
1629797538495,-0.173484,-0.36783,-0.900726
1629797538505,-0.18287799999999999,-0.363804,-0.902617
1629797538514,-0.191235,-0.35861899999999997,-0.9070699999999999
1629797538524,-0.198067,-0.350323,-0.913902
1629797538533,-0.204411,-0.341844,-0.920246
1629797538543,-0.210572,-0.332389,-0.923845
1629797538553,-0.217953,-0.323971,-0.925553
1629797538562,-0.225029,-0.311832,-0.926956
1629797538572,-0.231983,-0.296948,-0.928786
1629797538581,-0.23802199999999998,-0.270047,-0.932507
1629797538591,-0.244366,-0.241804,-0.936228
1629797538601,-0.253394,-0.221003,-0.934093
1629797538610,-0.2623,-0.205204,-0.9280539999999999
1629797538620,-0.267485,-0.193431,-0.923113
1629797538629,-0.272487,-0.188246,-0.9189039999999999
1629797538639,-0.279014,-0.188917,-0.917867
1629797538649,-0.28365,-0.195688,-0.912987
1629797538658,-0.287005,-0.199409,-0.907802
1629797538668,-0.293227,-0.206058,-0.903044
1629797538677,-0.29822899999999997,-0.217282,-0.897798
1629797538687,-0.300852,-0.230702,-0.892796
1629797538697,-0.305793,-0.246501,-0.888709
1629797538706,-0.308172,-0.267729,-0.8845609999999999
1629797538716,-0.30841599999999997,-0.289933,-0.878888
1629797538725,-0.310185,-0.313052,-0.871324
1629797538735,-0.312503,-0.33916,-0.865224
1629797538745,-0.314333,-0.35587399999999997,-0.859734
1629797538754,-0.317871,-0.37393,-0.856074
1629797538764,-0.32104299999999997,-0.390766,-0.854305
1629797538773,-0.321287,-0.411018,-0.8516819999999999
1629797538783,-0.317566,-0.43041599999999997,-0.8483269999999999
1629797538793,-0.319884,-0.448106,-0.845277
1629797538802,-0.314516,-0.462685,-0.845094
1629797538812,-0.317505,-0.475251,-0.844301
1629797538821,-0.311344,-0.479582,-0.848266
1629797538831,-0.310917,-0.48653599999999997,-0.852353
1629797538841,-0.307379,-0.487207,-0.8568669999999999
1629797538850,-0.305793,-0.486475,-0.863333
1629797538860,-0.303353,-0.482449,-0.869799
1629797538869,-0.302682,-0.474397,-0.8748009999999999
1629797538879,-0.301767,-0.464454,-0.877668
1629797538889,-0.30012,-0.451522,-0.882365
1629797538898,-0.300364,-0.432734,-0.883219
1629797538908,-0.302072,-0.415776,-0.881633
1629797538917,-0.302316,-0.403271,-0.881755
1629797538927,-0.300608,-0.390583,-0.88511
1629797538937,-0.298717,-0.379237,-0.890112
1629797538946,-0.29402,-0.369599,-0.892735
1629797538956,-0.291824,-0.361974,-0.890112
1629797538965,-0.289567,-0.357521,-0.886269
1629797538975,-0.286456,-0.35709399999999997,-0.88206
1629797538985,-0.283955,-0.35953399999999996,-0.878949
1629797538994,-0.280966,-0.364719,-0.877058
1629797539004,-0.277306,-0.369599,-0.877424
1629797539013,-0.273036,-0.373076,-0.877668
1629797539023,-0.270108,-0.373869,-0.8760209999999999
1629797539033,-0.27297499999999997,-0.377834,-0.8769359999999999
1629797539042,-0.26931499999999997,-0.378505,-0.8723
1629797539052,-0.270657,-0.38143299999999997,-0.867237
1629797539061,-0.27419499999999997,-0.385703,-0.863943
1629797539071,-0.275842,-0.390949,-0.861503
1629797539081,-0.277062,-0.395097,-0.858575
1629797539090,-0.279502,-0.397293,-0.856745
1629797539100,-0.280844,-0.3965,-0.8574769999999999
1629797539109,-0.28243,-0.392962,-0.8596119999999999
1629797539119,-0.283406,-0.392047,-0.862601
1629797539129,-0.284016,-0.39314499999999997,-0.863821
1629797539138,-0.285175,-0.39314499999999997,-0.86559
1629797539148,-0.284626,-0.388204,-0.866505
1629797539157,-0.28853,-0.383141,-0.863943
1629797539167,-0.292556,-0.379786,-0.861564
1629797539177,-0.297375,-0.376492,-0.85949
1629797539186,-0.299144,-0.373564,-0.858453
1629797539196,-0.301462,-0.370453,-0.8571719999999999
1629797539205,-0.30506099999999997,-0.36636599999999997,-0.857233
1629797539215,-0.306037,-0.363011,-0.857294
1629797539225,-0.308904,-0.36295,-0.858758
1629797539234,-0.310734,-0.366,-0.857599
1629797539244,-0.311527,-0.36972099999999997,-0.855891
1629797539253,-0.31476,-0.374052,-0.856806
1629797539263,-0.31707799999999997,-0.381372,-0.860588
1629797539273,-0.319091,-0.388814,-0.863394
1629797539282,-0.32208,-0.396927,-0.860649
1629797539292,-0.325801,-0.410103,-0.859368
1629797539301,-0.329583,-0.429257,-0.854793
1629797539311,-0.33183999999999997,-0.452376,-0.853085
1629797539321,-0.32757,-0.468663,-0.858575
1629797539330,-0.322324,-0.476715,-0.862845
1629797539340,-0.321165,-0.475861,-0.868152
1629797539349,-0.32165299999999997,-0.473421,-0.871568
1629797539359,-0.322995,-0.465003,-0.873642
1629797539369,-0.325862,-0.451949,-0.875228
1629797539378,-0.330376,-0.43602799999999997,-0.86803
1629797539388,-0.333609,-0.415837,-0.862479
1629797539397,-0.33794,-0.395524,-0.867115
1629797539407,-0.34221,-0.378566,-0.869738
1629797539417,-0.34507699999999997,-0.36850099999999997,-0.866322
1629797539426,-0.349896,-0.365024,-0.861869
1629797539436,-0.35258,-0.362767,-0.857233
1629797539445,-0.354593,-0.362401,-0.853878
1629797539455,-0.356301,-0.361852,-0.8483269999999999
1629797539465,-0.357521,-0.357948,-0.846619
1629797539474,-0.358375,-0.350445,-0.848266
1629797539484,-0.358863,-0.336049,-0.852963
1629797539493,-0.363133,-0.326838,-0.865468
1629797539503,-0.363011,-0.319457,-0.870775
1629797539513,-0.36575599999999997,-0.312686,-0.872422
1629797539522,-0.368074,-0.30866,-0.870043
1629797539532,-0.37033099999999997,-0.30658599999999997,-0.8644919999999999
1629797539541,-0.372039,-0.29822899999999997,-0.860588
1629797539551,-0.37655299999999997,-0.291214,-0.856623
1629797539561,-0.38064,-0.282064,-0.857355
1629797539570,-0.385093,-0.27388999999999997,-0.857416
1629797539580,-0.387106,-0.267546,-0.8577819999999999
1629797539589,-0.388631,-0.254431,-0.862296
1629797539599,-0.391864,-0.240523,-0.866566
1629797539609,-0.396683,-0.220088,-0.873703
1629797539618,-0.409127,-0.211182,-0.873825
1629797539628,-0.422242,-0.219356,-0.865346
1629797539637,-0.432612,-0.240218,-0.8474119999999999
1629797539647,-0.439444,-0.260836,-0.831247
1629797539657,-0.443836,-0.284504,-0.8221579999999999
1629797539666,-0.443104,-0.309087,-0.821304
1629797539676,-0.44395799999999996,-0.332328,-0.822707
1629797539685,-0.444019,-0.352885,-0.8276479999999999
1629797539695,-0.444019,-0.37027,-0.830637
1629797539705,-0.44029799999999997,-0.384056,-0.836066
1629797539714,-0.4392,-0.391132,-0.842532
1629797539724,-0.440115,-0.400709,-0.84912
1629797539733,-0.441335,-0.409432,-0.8535119999999999
1629797539743,-0.43755299999999997,-0.415898,-0.8532069999999999
1629797539753,-0.434198,-0.42029,-0.8532069999999999
1629797539762,-0.429989,-0.418643,-0.855769
1629797539772,-0.428952,-0.414861,-0.861198
1629797539781,-0.426512,-0.408029,-0.870775
1629797539791,-0.429074,-0.403576,-0.8796809999999999
1629797539801,-0.426085,-0.394487,-0.8830359999999999
1629797539810,-0.427793,-0.383385,-0.881633
1629797539820,-0.42340099999999997,-0.367708,-0.878278
1629797539829,-0.420961,-0.349408,-0.8781559999999999
1629797539839,-0.41419,-0.339099,-0.87596
1629797539849,-0.408517,-0.33305999999999997,-0.876265
1629797539858,-0.402783,-0.330376,-0.8784609999999999
1629797539868,-0.396256,-0.329339,-0.877607
1629797539877,-0.388448,-0.325069,-0.875167
1629797539887,-0.385032,-0.31799299999999997,-0.874252
1629797539897,-0.377834,-0.306464,-0.871385
1629797539906,-0.374906,-0.298595,-0.868091
1629797539916,-0.370453,-0.29304399999999997,-0.866749
1629797539925,-0.365024,-0.28853,-0.865895
1629797539935,-0.359717,-0.28609,-0.865834
1629797539945,-0.352763,-0.28487,-0.8644919999999999
1629797539954,-0.34599199999999997,-0.283284,-0.8651019999999999
1629797539964,-0.340014,-0.28365,-0.865834
1629797539973,-0.334768,-0.28438199999999997,-0.868091
1629797539983,-0.329949,-0.28529699999999997,-0.8717509999999999
1629797539993,-0.324093,-0.286578,-0.8735809999999999
1629797540002,-0.318786,-0.286517,-0.870775
1629797540012,-0.314089,-0.2867,-0.869128
1629797540021,-0.309514,-0.286334,-0.8708359999999999
1629797540031,-0.304939,-0.287188,-0.8702259999999999
1629797540041,-0.301462,-0.289384,-0.8723
1629797540050,-0.297192,-0.290848,-0.874557
1629797540060,-0.292922,-0.2928,-0.8775459999999999
1629797540069,-0.290299,-0.291519,-0.8787659999999999
1629797540079,-0.287493,-0.28853,-0.881633
1629797540089,-0.285236,-0.286639,-0.885842
1629797540098,-0.282186,-0.28590699999999997,-0.884744
1629797540108,-0.279624,-0.285419,-0.885537
1629797540117,-0.277001,-0.288408,-0.8888309999999999
1629797540127,-0.275232,-0.292922,-0.889868
1629797540137,-0.272426,-0.299998,-0.888953
1629797540146,-0.270108,-0.307379,-0.887733
1629797540156,-0.268888,-0.31537,-0.888465
1629797540165,-0.268339,-0.322812,-0.892186
1629797540175,-0.266387,-0.32909499999999997,-0.893284
1629797540185,-0.266143,-0.334829,-0.8957849999999999
1629797540194,-0.26718,-0.33794,-0.898347
1629797540204,-0.268644,-0.341478,-0.897249
1629797540213,-0.270474,-0.34416199999999997,-0.896944
1629797540223,-0.271511,-0.34507699999999997,-0.902068
1629797540233,-0.273219,-0.34587,-0.903776
1629797540242,-0.276452,-0.347334,-0.903654
1629797540252,-0.278343,-0.347334,-0.903898
1629797540261,-0.2806,-0.348554,-0.899384
1629797540271,-0.28304,-0.34892,-0.895419
1629797540281,-0.283955,-0.350933,-0.894016
1629797540290,-0.286639,-0.349469,-0.893894
1629797540300,-0.288713,-0.347273,-0.893345
1629797540309,-0.289872,-0.345321,-0.893467
1629797540319,-0.292678,-0.341234,-0.894626
1629797540329,-0.29456899999999997,-0.33672,-0.897981
1629797540338,-0.29731399999999997,-0.335744,-0.899079
1629797540348,-0.297741,-0.335744,-0.8991399999999999
1629797540357,-0.299083,-0.335683,-0.897188
1629797540367,-0.299937,-0.336659,-0.894992
1629797540377,-0.300669,-0.337269,-0.892735
1629797540386,-0.301218,-0.337269,-0.891332
1629797540396,-0.301828,-0.338428,-0.887977
1629797540405,-0.30414599999999997,-0.340685,-0.885232
1629797540415,-0.305305,-0.340258,-0.883707
1629797540425,-0.30866,-0.339099,-0.88267
1629797540434,-0.310368,-0.336903,-0.87962
1629797540444,-0.316529,-0.33397499999999997,-0.876814
1629797540453,-0.318725,-0.332572,-0.875594
1629797540463,-0.320799,-0.33061999999999997,-0.874374
1629797540473,-0.323178,-0.326045,-0.87474
1629797540482,-0.326533,-0.320677,-0.877058
1629797540492,-0.331047,-0.314577,-0.879742
1629797540501,-0.334951,-0.306647,-0.882975
1629797540511,-0.338855,-0.29951,-0.886025
1629797540521,-0.340563,-0.292922,-0.891637
1629797540530,-0.341173,-0.288103,-0.896639
1629797540540,-0.341783,-0.285785,-0.8988349999999999
1629797540549,-0.343735,-0.28438199999999997,-0.900482
1629797540559,-0.34477199999999997,-0.2806,-0.901214
1629797540569,-0.344711,-0.277611,-0.9021899999999999
1629797540578,-0.34477199999999997,-0.276269,-0.903532
1629797540588,-0.345748,-0.274927,-0.904508
1629797540597,-0.348432,-0.273463,-0.9040199999999999
1629797540607,-0.349774,-0.272609,-0.903166
1629797540617,-0.351238,-0.27114499999999997,-0.900604
1629797540626,-0.355508,-0.27144999999999997,-0.899994
1629797540636,-0.35648399999999997,-0.270718,-0.903044
1629797540645,-0.35678899999999997,-0.268339,-0.905972
1629797540655,-0.355996,-0.26474,-0.9088999999999999
1629797540665,-0.353983,-0.261385,-0.913109
1629797540674,-0.354898,-0.256444,-0.919026
1629797540684,-0.353861,-0.253028,-0.923723
1629797540693,-0.353556,-0.24759899999999999,-0.926773
1629797540703,-0.35319,-0.240279,-0.9314089999999999
1629797540713,-0.351787,-0.227347,-0.937692
1629797540722,-0.352885,-0.220637,-0.940437
1629797540732,-0.355081,-0.217038,-0.9372039999999999
1629797540741,-0.355508,-0.216794,-0.930982
1629797540751,-0.352275,-0.217648,-0.92232
1629797540761,-0.349225,-0.215452,-0.914451
1629797540770,-0.348737,-0.211426,-0.9079849999999999
1629797540780,-0.348798,-0.210267,-0.897676
1629797540789,-0.349286,-0.211182,-0.886025
1629797540799,-0.352275,-0.213012,-0.877119
1629797540809,-0.352336,-0.218685,-0.868091
1629797540818,-0.352336,-0.222223,-0.865834
1629797540828,-0.351543,-0.225029,-0.866383
1629797540837,-0.351055,-0.22600499999999998,-0.865712
1629797540847,-0.35014,-0.226493,-0.869494
1629797540857,-0.349042,-0.226676,-0.873032
1629797540866,-0.34953,-0.231373,-0.876265
1629797540876,-0.348432,-0.23558199999999999,-0.8775459999999999
1629797540885,-0.347761,-0.24046199999999998,-0.877607
1629797540895,-0.346419,-0.244915,-0.879803
1629797540905,-0.34587,-0.249246,-0.886635
1629797540914,-0.346419,-0.252845,-0.893589
1629797540924,-0.34599199999999997,-0.25681,-0.8994449999999999
1629797540933,-0.344223,-0.260897,-0.904996
1629797540943,-0.337208,-0.265411,-0.907131
1629797540953,-0.328058,-0.271694,-0.9046299999999999
1629797540962,-0.32025,-0.27999,-0.902556
1629797540972,-0.309819,-0.28621199999999997,-0.905179
1629797540981,-0.301645,-0.286944,-0.9092049999999999
1629797540991,-0.292251,-0.28243,-0.911462
1629797541001,-0.285724,-0.273341,-0.916586
1629797541010,-0.282064,-0.262971,-0.920795
1629797541020,-0.280661,-0.24766,-0.924821
1629797541029,-0.276818,-0.23308099999999998,-0.9329339999999999
1629797541039,-0.274866,-0.216245,-0.941352
1629797541049,-0.274134,-0.20191,-0.945317
1629797541058,-0.274927,-0.18348799999999998,-0.9444629999999999
1629797541068,-0.273341,-0.163114,-0.945744
1629797541077,-0.277367,-0.141398,-0.9481229999999999
1629797541087,-0.285114,-0.122732,-0.952454
1629797541097,-0.28792,-0.105164,-0.955809
1629797541106,-0.294325,-0.088145,-0.9539179999999999
1629797541116,-0.304268,-0.07356599999999999,-0.950441
1629797541125,-0.315675,-0.060756,-0.945134
1629797541135,-0.325496,-0.049776,-0.939888
1629797541145,-0.331474,-0.0427,-0.932141
1629797541154,-0.337452,-0.033672,-0.925126
1629797541164,-0.34404,-0.022143,-0.923906
1629797541173,-0.349042,-0.011407,-0.9256139999999999
1629797541183,-0.356057,-0.003172,-0.925126
1629797541193,-0.360754,0.000366,-0.924943
1629797541202,-0.363987,-0.001403,-0.916952
1629797541212,-0.370697,-0.001098,-0.908168
1629797541221,-0.375577,-0.0015249999999999999,-0.896273
1629797541231,-0.383995,-0.00183,-0.881755
1629797541241,-0.396927,-0.0028669999999999998,-0.868152
1629797541250,-0.40748,-0.001464,-0.85827
1629797541260,-0.416752,-0.001098,-0.852048
1629797541269,-0.42370599999999997,0.0006709999999999999,-0.850401
1629797541279,-0.429745,-0.001098,-0.846863
1629797541289,-0.437736,0.001952,-0.848388
1629797541298,-0.443226,0.004941,-0.850706
1629797541308,-0.44773999999999997,0.005429,-0.842776
1629797541317,-0.44987499999999997,0.000366,-0.833504
1629797541327,-0.448228,0.00244,-0.833504
1629797541337,-0.444995,0.0077469999999999995,-0.836554
1629797541346,-0.445178,0.020496,-0.839116
1629797541356,-0.450424,0.032513,-0.832406
1629797541365,-0.45975699999999997,0.046055,-0.821426
1629797541375,-0.469822,0.057583999999999996,-0.820084
1629797541385,-0.474092,0.06831999999999999,-0.831735
1629797541394,-0.47878899999999996,0.076006,-0.848144
1629797541404,-0.48836599999999997,0.077836,-0.863211
1629797541413,-0.502701,0.07649399999999999,-0.870409
1629797541423,-0.5145959999999999,0.068991,-0.86803
1629797541433,-0.526186,0.059292,-0.8699209999999999
1629797541442,-0.540033,0.049471,-0.866444
1629797541452,-0.556991,0.039345,-0.859368
1629797541461,-0.573156,0.033001,-0.847961
1629797541471,-0.592615,0.027023,-0.833626
1629797541481,-0.609024,0.018117,-0.814106
1629797541490,-0.624152,0.013237,-0.793366
1629797541500,-0.638182,0.012565999999999999,-0.774334
1629797541509,-0.652639,0.015127999999999999,-0.7619509999999999
1629797541519,-0.6655099999999999,0.019154,-0.757437
1629797541529,-0.67649,0.024949,-0.76189
1629797541538,-0.6832,0.031354,-0.765123
1629797541548,-0.689483,0.036661,-0.767685
1629797541557,-0.690398,0.033306,-0.766099
1629797541567,-0.6944239999999999,0.029707,-0.760853
1629797541577,-0.696071,0.021838,-0.75762
1629797541586,-0.696498,0.013176,-0.7573759999999999
1629797541596,-0.697047,0.005063,-0.756339
1629797541605,-0.696376,-0.006222,-0.754448
1629797541615,-0.696864,-0.018483,-0.749019
1629797541625,-0.696742,-0.029219,-0.744932
1629797541634,-0.695827,-0.036966,-0.743041
1629797541644,-0.696132,-0.041479999999999996,-0.73932
1629797541653,-0.697657,-0.044712999999999996,-0.73932
1629797541663,-0.697108,-0.048434,-0.738954
1629797541673,-0.696803,-0.051301,-0.736819
1629797541682,-0.699792,-0.054473,-0.733891
1629797541692,-0.700646,-0.058743,-0.7348669999999999
1629797541701,-0.698633,-0.063867,-0.738771
1629797541711,-0.696986,-0.06893,-0.741943
1629797541721,-0.693692,-0.073017,-0.744322
1629797541730,-0.691923,-0.07679899999999999,-0.748653
1629797541740,-0.68869,-0.082106,-0.748043
1629797541749,-0.68442,-0.08601,-0.745847
1629797541759,-0.681797,-0.088999,-0.7397469999999999
1629797541769,-0.680943,-0.08881599999999999,-0.73505
1629797541778,-0.678198,-0.088267,-0.723704
1629797541788,-0.676063,-0.08588799999999999,-0.711077
1629797541797,-0.678137,-0.085644,-0.701988
1629797541807,-0.6813089999999999,-0.083509,-0.698572
1629797541817,-0.684786,-0.081252,-0.695949
1629797541826,-0.6880189999999999,-0.079483,-0.701256
1629797541836,-0.688507,-0.07942199999999999,-0.712419
1629797541845,-0.685335,-0.082167,-0.720959
1629797541855,-0.682346,-0.085461,-0.724558
1629797541865,-0.679418,-0.090951,-0.727364
1629797541874,-0.676124,-0.095404,-0.730414
1629797541884,-0.673074,-0.098637,-0.7321219999999999
1629797541893,-0.671183,-0.098576,-0.731085
1629797541903,-0.67222,-0.09851499999999999,-0.730536
1629797541913,-0.672891,-0.09436699999999999,-0.731939
1629797541922,-0.673928,-0.091866,-0.732
1629797541932,-0.676368,-0.088023,-0.729194
1629797541941,-0.67771,-0.083204,-0.7278519999999999
1629797541951,-0.679296,-0.077775,-0.728523
1629797541961,-0.678442,-0.074115,-0.7296819999999999
1629797541970,-0.678198,-0.075823,-0.72773
1629797541980,-0.680577,-0.079483,-0.723765
1629797541989,-0.681858,-0.0854,-0.724009
1629797541999,-0.679906,-0.094733,-0.7287669999999999
1629797542009,-0.679296,-0.101565,-0.732183
1629797542018,-0.6803939999999999,-0.10607899999999999,-0.737124
1629797542028,-0.679845,-0.10614,-0.743468
1629797542037,-0.6810039999999999,-0.106018,-0.749019
1629797542047,-0.678564,-0.104554,-0.75213
1629797542057,-0.675697,-0.103639,-0.751764
1629797542066,-0.67466,-0.106323,-0.747006
1629797542076,-0.674782,-0.108641,-0.739991
1629797542085,-0.676185,-0.110776,-0.731146
1629797542095,-0.679113,-0.112423,-0.725534
1629797542105,-0.681126,-0.112484,-0.722545
1629797542114,-0.682285,-0.11053199999999999,-0.723826
1629797542124,-0.682651,-0.107421,-0.727913
1629797542133,-0.681858,-0.10577399999999999,-0.732671
1629797542143,-0.677771,-0.104737,-0.738344
1629797542153,-0.675941,-0.10284599999999999,-0.7424919999999999
1629797542162,-0.673867,-0.103334,-0.742675
1629797542172,-0.67344,-0.103273,-0.74054
1629797542181,-0.672586,-0.10467599999999999,-0.734684
1629797542191,-0.672464,-0.10729899999999999,-0.7327319999999999
1629797542201,-0.67283,-0.10729899999999999,-0.731451
1629797542210,-0.673318,-0.106262,-0.729255
1629797542220,-0.672464,-0.105347,-0.726815
1629797542229,-0.67222,-0.103578,-0.724802
1629797542239,-0.671244,-0.10113799999999999,-0.723277
1629797542249,-0.67039,-0.099979,-0.723521
1629797542258,-0.6673399999999999,-0.099003,-0.725656
1629797542268,-0.664778,-0.09881999999999999,-0.7272419999999999
1629797542277,-0.661484,-0.099247,-0.728584
1629797542287,-0.658983,-0.102907,-0.727608
1629797542297,-0.656787,-0.106811,-0.726632
1629797542306,-0.654713,-0.11041,-0.7269369999999999
1629797542316,-0.652334,-0.115351,-0.722606
1629797542325,-0.653676,-0.11931599999999999,-0.715652
1629797542335,-0.655201,-0.122122,-0.70943
1629797542345,-0.655079,-0.12383,-0.707905
1629797542354,-0.653432,-0.12627,-0.7137
1629797542364,-0.65209,-0.130845,-0.723094
1629797542373,-0.652151,-0.137311,-0.729804
1629797542383,-0.649772,-0.143655,-0.734745
1629797542393,-0.648308,-0.14823,-0.736636
1629797542402,-0.648003,-0.15128,-0.737429
1629797542412,-0.648552,-0.153354,-0.735355
1629797542421,-0.648064,-0.157136,-0.730841
1629797542431,-0.6448309999999999,-0.159942,-0.730719
1629797542441,-0.642879,-0.160491,-0.738588
1629797542450,-0.6396459999999999,-0.16408999999999999,-0.748836
1629797542460,-0.635132,-0.171044,-0.757132
1629797542469,-0.630923,-0.180255,-0.760792
1629797542479,-0.627324,-0.190625,-0.761524
1629797542489,-0.623969,-0.20197099999999998,-0.7622559999999999
1629797542498,-0.617808,-0.21459799999999998,-0.762988
1629797542508,-0.6110369999999999,-0.225212,-0.76372
1629797542517,-0.601643,-0.230519,-0.767685
1629797542527,-0.5978,-0.23558199999999999,-0.771162
1629797542537,-0.593957,-0.24296299999999998,-0.771894
1629797542546,-0.591395,-0.253272,-0.77165
1629797542556,-0.5870029999999999,-0.262544,-0.771528
1629797542565,-0.583038,-0.272609,-0.772443
1629797542575,-0.578402,-0.282308,-0.769942
1629797542585,-0.5734,-0.289994,-0.768539
1629797542594,-0.567422,-0.294996,-0.7677459999999999
1629797542604,-0.564616,-0.297985,-0.762134
1629797542613,-0.561566,-0.303536,-0.759084
1629797542623,-0.55632,-0.308355,-0.757132
1629797542633,-0.552294,-0.31232,-0.755363
1629797542642,-0.549854,-0.319274,-0.756827
1629797542652,-0.546926,-0.328607,-0.76006
1629797542661,-0.543266,-0.335622,-0.7637809999999999
1629797542671,-0.5416799999999999,-0.33977,-0.765733
1629797542681,-0.540948,-0.343979,-0.766343
1629797542690,-0.540826,-0.347944,-0.766038
1629797542700,-0.538264,-0.351421,-0.765977
1629797542709,-0.536312,-0.355081,-0.767685
1629797542719,-0.532042,-0.35868,-0.76982
1629797542729,-0.528809,-0.362767,-0.773114
1629797542738,-0.5237459999999999,-0.365695,-0.775371
1629797542748,-0.5197809999999999,-0.367403,-0.776774
1629797542757,-0.512583,-0.370697,-0.779214
1629797542767,-0.507215,-0.374235,-0.782813
1629797542777,-0.500078,-0.37698,-0.7832399999999999
1629797542786,-0.495686,-0.380335,-0.783423
1629797542796,-0.490013,-0.38247,-0.7823249999999999
1629797542805,-0.487573,-0.388143,-0.779763
1629797542815,-0.484584,-0.392352,-0.779214
1629797542825,-0.480802,-0.395646,-0.777872
1629797542834,-0.47878899999999996,-0.40016,-0.775432
1629797542844,-0.47695899999999997,-0.405345,-0.775737
1629797542853,-0.475312,-0.408578,-0.776957
1629797542863,-0.472506,-0.409554,-0.7774449999999999
1629797542873,-0.469639,-0.409737,-0.777079
1629797542882,-0.468846,-0.409676,-0.776042
1629797542892,-0.465064,-0.41175,-0.776408
1629797542901,-0.4636,-0.41260399999999997,-0.775981
1629797542911,-0.46189199999999997,-0.414373,-0.776103
1629797542921,-0.46116,-0.41419,-0.7756149999999999
1629797542930,-0.461648,-0.415776,-0.774395
1629797542940,-0.46238,-0.416447,-0.773602
1629797542949,-0.463478,-0.41717899999999997,-0.774456
1629797542959,-0.461526,-0.41663,-0.777201
1629797542969,-0.458659,-0.414251,-0.782874
1629797542978,-0.454938,-0.413031,-0.7850699999999999
1629797542988,-0.450058,-0.414373,-0.783423
1629797542997,-0.447191,-0.416325,-0.782447
1629797543007,-0.447679,-0.419985,-0.7795799999999999
1629797543017,-0.452376,-0.423462,-0.776957
1629797543026,-0.45811,-0.428647,-0.772992
1629797543036,-0.466284,-0.427549,-0.770125
1629797543045,-0.47085899999999997,-0.424804,-0.76982
1629797543055,-0.47092,-0.4209,-0.769698
1629797543065,-0.470554,-0.414922,-0.773114
1629797543074,-0.470554,-0.409005,-0.776896
1629797543084,-0.471103,-0.404125,-0.775371
1629797543093,-0.472018,-0.40077,-0.775493
1629797543103,-0.472506,-0.39894,-0.777506
1629797543113,-0.471103,-0.397659,-0.782569
1629797543122,-0.4697,-0.398025,-0.785436
1629797543132,-0.46848,-0.39772,-0.785863
1629797543141,-0.46585699999999997,-0.395829,-0.785558
1629797543151,-0.46311199999999997,-0.394182,-0.7859849999999999
1629797543161,-0.460916,-0.391071,-0.783179
1629797543170,-0.45536499999999996,-0.39070499999999997,-0.780556
1629797543180,-0.450607,-0.393267,-0.776713
1629797543189,-0.445422,-0.396439,-0.772748
1629797543199,-0.439444,-0.400831,-0.769271
1629797543209,-0.435174,-0.40546699999999997,-0.769149
1629797543218,-0.430233,-0.409493,-0.76982
1629797543228,-0.426268,-0.41358,-0.772382
1629797543237,-0.42456,-0.419375,-0.775371
1629797543247,-0.421754,-0.42578,-0.778238
1629797543257,-0.418887,-0.431758,-0.780312
1629797543266,-0.414373,-0.43676,-0.783057
1629797543276,-0.410042,-0.443714,-0.780434
1629797543285,-0.40577199999999997,-0.45597499999999996,-0.778543
1629797543295,-0.402905,-0.466284,-0.780007
1629797543305,-0.397476,-0.47360399999999997,-0.781959
1629797543314,-0.390522,-0.481961,-0.7841549999999999
1629797543324,-0.38051799999999997,-0.490867,-0.785802
1629797543333,-0.37149,-0.500505,-0.7838499999999999
1629797543343,-0.363255,-0.509655,-0.782142
1629797543353,-0.358497,-0.515938,-0.777811
1629797543362,-0.35258,-0.5231359999999999,-0.773968
1629797543372,-0.348798,-0.528626,-0.772199
1629797543381,-0.34416199999999997,-0.535153,-0.772138
1629797543391,-0.338977,-0.543144,-0.776774
1629797543401,-0.334707,-0.548512,-0.782386
1629797543410,-0.329766,-0.554368,-0.786046
1629797543420,-0.324886,-0.559797,-0.788303
1629797543429,-0.31951799999999997,-0.565592,-0.790438
1629797543439,-0.314516,-0.570533,-0.791109
1629797543449,-0.307013,-0.575596,-0.792756
1629797543458,-0.302133,-0.576694,-0.792024
1629797543468,-0.298107,-0.578524,-0.788974
1629797543477,-0.29365399999999997,-0.578524,-0.785314
1629797543487,-0.288896,-0.579317,-0.781654
1629797543497,-0.284748,-0.580415,-0.777201
1629797543506,-0.28102699999999997,-0.581391,-0.771162
1629797543516,-0.279258,-0.5795,-0.767502
1629797543525,-0.278465,-0.57767,-0.7637809999999999
1629797543535,-0.276086,-0.578585,-0.7640859999999999
1629797543545,-0.271938,-0.578768,-0.764513
1629797543554,-0.268156,-0.577365,-0.767868
1629797543564,-0.263276,-0.575657,-0.771589
1629797543573,-0.25943299999999997,-0.572668,-0.777689
1629797543583,-0.254736,-0.570838,-0.782691
1629797543593,-0.250527,-0.5678489999999999,-0.7878149999999999
1629797543602,-0.24790399999999999,-0.5654089999999999,-0.788181
1629797543612,-0.244244,-0.56303,-0.787937
1629797543621,-0.241377,-0.5608339999999999,-0.787449
1629797543631,-0.236436,-0.560773,-0.785619
1629797543641,-0.231739,-0.563518,-0.783179
1629797543650,-0.226798,-0.565531,-0.7804949999999999
1629797543660,-0.222162,-0.567727,-0.778299
1629797543669,-0.21716,-0.5724239999999999,-0.774395
1629797543679,-0.214537,-0.575474,-0.771955
1629797543689,-0.21215799999999999,-0.577792,-0.768112
1629797543698,-0.210694,-0.580171,-0.764818
1629797543708,-0.20904699999999998,-0.58377,-0.765062
1629797543717,-0.20752199999999998,-0.587247,-0.76555
1629797543727,-0.205936,-0.590297,-0.766648
1629797543737,-0.204899,-0.593042,-0.767197
1629797543746,-0.203313,-0.5946279999999999,-0.768234
1629797543756,-0.202703,-0.595055,-0.770125
1629797543765,-0.202154,-0.5970679999999999,-0.770247
1629797543775,-0.202703,-0.598227,-0.769332
1629797543785,-0.202825,-0.599203,-0.768844
1629797543794,-0.204411,-0.599996,-0.766343
1629797543804,-0.20599699999999999,-0.598654,-0.7659159999999999
1629797543813,-0.207583,-0.597434,-0.765428
1629797543823,-0.208864,-0.597129,-0.765733
1629797543833,-0.209718,-0.5967629999999999,-0.76677
1629797543842,-0.210694,-0.595604,-0.76799
1629797543852,-0.212219,-0.594811,-0.768478
1629797543861,-0.213195,-0.594994,-0.76982
1629797543871,-0.213561,-0.594689,-0.770491
1629797543881,-0.215757,-0.59475,-0.769942
1629797543890,-0.218746,-0.594689,-0.768539
1629797543900,-0.22167399999999998,-0.594445,-0.76677
1629797543909,-0.22447999999999999,-0.5940179999999999,-0.7662209999999999
1629797543919,-0.226188,-0.593286,-0.7643909999999999
1629797543929,-0.228933,-0.592676,-0.7653059999999999
1629797543938,-0.230458,-0.59231,-0.7659159999999999
1629797543948,-0.23125099999999998,-0.5909679999999999,-0.765977
1629797543957,-0.233325,-0.590907,-0.766343
1629797543967,-0.235216,-0.5903579999999999,-0.765428
1629797543977,-0.23710699999999998,-0.5894429999999999,-0.767258
1629797543986,-0.238266,-0.589382,-0.768661
1629797543996,-0.23985199999999998,-0.588467,-0.770247
1629797544005,-0.24034,-0.588894,-0.770308
1629797544015,-0.24174299999999999,-0.5885279999999999,-0.770186
1629797544025,-0.243939,-0.588955,-0.770979
1629797544034,-0.244122,-0.59109,-0.769698
1629797544044,-0.24631799999999998,-0.592066,-0.76921
1629797544053,-0.247477,-0.5931029999999999,-0.768478
1629797544063,-0.250466,-0.5955429999999999,-0.766892
1629797544073,-0.252845,-0.596946,-0.766465
1629797544082,-0.25668799999999997,-0.597861,-0.76799
1629797544092,-0.257969,-0.597678,-0.769942
1629797544101,-0.257969,-0.595421,-0.773968
1629797544111,-0.258152,-0.593286,-0.776896
1629797544121,-0.259067,-0.58926,-0.7801899999999999
1629797544130,-0.259677,-0.58499,-0.781471
1629797544140,-0.262178,-0.581452,-0.7817149999999999
1629797544149,-0.261812,-0.578219,-0.779702
1629797544159,-0.264679,-0.578158,-0.778909
1629797544169,-0.263764,-0.578646,-0.780007
1629797544178,-0.262422,-0.579561,-0.781471
1629797544188,-0.26034799999999997,-0.576572,-0.783606
1629797544197,-0.26004299999999997,-0.574254,-0.781593
1629797544207,-0.260409,-0.5724239999999999,-0.781349
1629797544217,-0.25882299999999997,-0.570716,-0.7801899999999999
1629797544226,-0.258152,-0.5675439999999999,-0.780922
1629797544236,-0.257786,-0.564128,-0.7789699999999999
1629797544245,-0.25912799999999997,-0.562115,-0.776469
1629797544255,-0.260104,-0.558882,-0.776042
1629797544265,-0.25973799999999997,-0.5551,-0.776957
1629797544274,-0.259494,-0.551928,-0.776896
1629797544284,-0.26047,-0.548207,-0.777018
1629797544293,-0.26108,-0.545767,-0.776713
1629797544303,-0.262727,-0.544608,-0.7759199999999999
1629797544313,-0.264679,-0.543754,-0.7765299999999999
1629797544322,-0.266021,-0.5456449999999999,-0.775798
1629797544332,-0.267546,-0.545218,-0.7759199999999999
1629797544341,-0.270169,-0.544608,-0.774273
1629797544351,-0.273219,-0.5468649999999999,-0.771101
1629797544361,-0.276025,-0.550037,-0.767624
1629797544370,-0.27938,-0.552904,-0.7668309999999999
1629797544380,-0.28346699999999997,-0.5551,-0.7671359999999999
1629797544389,-0.286334,-0.557906,-0.766343
1629797544399,-0.28914,-0.559919,-0.764147
1629797544409,-0.292251,-0.563823,-0.7640859999999999
1629797544418,-0.29456899999999997,-0.565653,-0.7619509999999999
1629797544428,-0.299449,-0.5702889999999999,-0.7601209999999999
1629797544437,-0.30256,-0.574193,-0.759633
1629797544447,-0.304024,-0.577304,-0.757925
1629797544457,-0.30622,-0.579683,-0.757559
1629797544466,-0.307562,-0.580049,-0.760548
1629797544476,-0.30744,-0.580598,-0.7622559999999999
1629797544485,-0.30841599999999997,-0.582916,-0.761463
1629797544495,-0.311344,-0.5839529999999999,-0.761158
1629797544505,-0.312869,-0.58499,-0.7558509999999999
1629797544514,-0.316102,-0.586637,-0.753228
1629797544524,-0.317444,-0.587369,-0.749934
1629797544533,-0.318237,-0.58743,-0.749995
1629797544543,-0.31951799999999997,-0.58682,-0.749812
1629797544553,-0.31964,-0.585234,-0.74786
1629797544562,-0.317444,-0.584136,-0.747494
1629797544572,-0.31646799999999997,-0.585539,-0.747921
1629797544581,-0.315736,-0.5851729999999999,-0.747311
1629797544591,-0.314089,-0.585112,-0.749202
1629797544601,-0.31354,-0.585234,-0.74908
1629797544610,-0.314394,-0.584014,-0.745786
1629797544620,-0.313296,-0.58499,-0.743895
1629797544629,-0.313479,-0.586637,-0.74237
1629797544639,-0.314211,-0.5863929999999999,-0.742309
1629797544649,-0.314699,-0.588406,-0.743712
1629797544658,-0.31598,-0.588406,-0.74542
1629797544668,-0.314882,-0.587796,-0.745725
1629797544677,-0.315614,-0.587247,-0.747006
1629797544687,-0.316346,-0.586881,-0.748104
1629797544697,-0.315553,-0.5860879999999999,-0.748958
1629797544706,-0.315126,-0.585417,-0.750117
1629797544716,-0.313967,-0.584136,-0.7503
1629797544725,-0.314638,-0.582855,-0.750727
1629797544735,-0.314516,-0.581086,-0.748714
1629797544745,-0.313906,-0.581025,-0.748897
1629797544754,-0.313601,-0.580476,-0.750239
1629797544764,-0.312076,-0.58011,-0.751337
1629797544773,-0.312015,-0.579988,-0.753838
1629797544783,-0.3111,-0.578585,-0.75457
1629797544793,-0.310795,-0.577121,-0.753838
1629797544802,-0.308782,-0.577304,-0.7546309999999999
1629797544812,-0.307257,-0.577304,-0.75518
1629797544821,-0.30658599999999997,-0.577792,-0.754875
1629797544831,-0.30628099999999997,-0.577243,-0.756034
1629797544841,-0.305244,-0.577548,-0.7561559999999999
1629797544850,-0.30384099999999997,-0.578097,-0.75762
1629797544860,-0.302194,-0.579073,-0.75762
1629797544869,-0.300669,-0.579195,-0.75762
1629797544879,-0.30012,-0.58011,-0.757925
1629797544889,-0.29829,-0.579927,-0.759999
1629797544898,-0.297863,-0.579805,-0.760487
1629797544908,-0.295606,-0.580293,-0.761219
1629797544917,-0.294142,-0.579256,-0.762073
1629797544927,-0.292678,-0.579561,-0.762378
1629797544937,-0.291397,-0.580476,-0.761707
1629797544946,-0.290604,-0.579012,-0.762927
1629797544956,-0.289079,-0.579317,-0.7619509999999999
1629797544965,-0.289079,-0.577975,-0.763598
1629797544975,-0.286578,-0.577182,-0.764879
1629797544985,-0.285419,-0.57645,-0.765245
1629797544994,-0.284626,-0.576084,-0.765855
1629797545004,-0.284321,-0.574071,-0.767258
1629797545013,-0.284565,-0.572668,-0.770125
1629797545023,-0.284016,-0.572912,-0.77287
1629797545033,-0.282491,-0.5718139999999999,-0.775432
1629797545042,-0.280783,-0.569923,-0.777933
1629797545052,-0.278526,-0.569008,-0.7783599999999999
1629797545061,-0.277184,-0.567727,-0.777567
1629797545071,-0.276391,-0.5669339999999999,-0.7765299999999999
1629797545081,-0.274866,-0.566751,-0.775493
1629797545090,-0.27266999999999997,-0.565348,-0.777018
1629797545100,-0.270169,-0.56425,-0.777506
1629797545109,-0.266997,-0.5632739999999999,-0.7786649999999999
1629797545119,-0.264557,-0.562542,-0.779702
1629797545129,-0.262239,-0.562115,-0.780861
1629797545138,-0.258884,-0.562847,-0.7829349999999999
1629797545148,-0.256627,-0.560407,-0.783972
1629797545157,-0.253211,-0.559187,-0.785314
1629797545167,-0.250222,-0.558943,-0.785497
1629797545177,-0.246562,-0.55876,-0.787022
1629797545186,-0.243939,-0.55815,-0.787998
1629797545196,-0.23851,-0.557967,-0.789706
1629797545205,-0.234972,-0.558455,-0.790316
1629797545215,-0.23155599999999998,-0.557845,-0.790316
1629797545225,-0.228933,-0.556381,-0.792207
1629797545234,-0.224968,-0.554124,-0.792268
1629797545244,-0.22167399999999998,-0.552416,-0.793061
1629797545253,-0.219478,-0.55144,-0.793732
1629797545263,-0.215574,-0.550708,-0.795501
1629797545273,-0.211365,-0.550769,-0.796233
1629797545282,-0.209413,-0.55022,-0.795806
1629797545292,-0.207034,-0.548939,-0.797148
1629797545301,-0.205814,-0.547719,-0.797941
1629797545311,-0.20258099999999998,-0.5477799999999999,-0.800747
1629797545321,-0.20069,-0.548268,-0.79971
1629797545330,-0.198982,-0.547841,-0.800137
1629797545340,-0.195871,-0.5465599999999999,-0.804041
1629797545349,-0.193248,-0.546194,-0.805932
1629797545359,-0.191723,-0.545462,-0.8066639999999999
1629797545369,-0.19056399999999998,-0.544791,-0.8063589999999999
1629797545378,-0.188978,-0.545706,-0.8066639999999999
1629797545388,-0.188246,-0.546377,-0.804956
1629797545397,-0.188368,-0.547597,-0.80581
1629797545407,-0.186416,-0.5465599999999999,-0.805871
1629797545417,-0.187026,-0.545706,-0.8072739999999999
1629797545426,-0.186355,-0.544486,-0.809043
1629797545436,-0.186111,-0.5428999999999999,-0.810751
1629797545445,-0.184037,-0.542351,-0.811727
1629797545455,-0.183244,-0.542656,-0.811788
1629797545465,-0.18226799999999999,-0.542107,-0.811788
1629797545474,-0.180804,-0.5425949999999999,-0.812642
1629797545484,-0.181475,-0.541924,-0.812398
1629797545493,-0.18117,-0.541497,-0.8130689999999999
1629797545503,-0.180072,-0.541558,-0.813618
1629797545513,-0.180438,-0.539972,-0.81557
1629797545522,-0.179279,-0.539911,-0.815936
1629797545532,-0.179401,-0.539789,-0.815448
1629797545541,-0.179706,-0.540338,-0.81557
1629797545551,-0.177998,-0.5401549999999999,-0.815936
1629797545561,-0.17793699999999998,-0.539911,-0.815692
1629797545570,-0.178608,-0.539179,-0.81679
1629797545580,-0.17751,-0.539667,-0.816302
1629797545589,-0.178303,-0.5413749999999999,-0.815997
1629797545599,-0.177754,-0.540521,-0.816546
1629797545609,-0.17793699999999998,-0.5404599999999999,-0.816241
1629797545618,-0.177266,-0.540826,-0.816607
1629797545628,-0.176778,-0.541558,-0.817949
1629797545637,-0.177205,-0.542534,-0.817827
1629797545647,-0.176473,-0.5413749999999999,-0.818498
1629797545657,-0.17671699999999999,-0.542351,-0.818742
1629797545666,-0.176534,-0.541802,-0.819596
1629797545676,-0.17568,-0.541497,-0.819901
1629797545685,-0.175192,-0.541558,-0.820389
1629797545695,-0.174643,-0.541558,-0.82045
1629797545705,-0.174155,-0.5419849999999999,-0.820816
1629797545714,-0.173728,-0.541802,-0.820877
1629797545724,-0.173179,-0.541802,-0.820694
1629797545733,-0.171288,-0.541558,-0.820206
1629797545743,-0.170129,-0.541192,-0.820084
1629797545753,-0.169824,-0.540887,-0.819474
1629797545762,-0.168604,-0.5407649999999999,-0.819901
1629797545772,-0.167628,-0.541253,-0.818681
1629797545781,-0.167872,-0.5410699999999999,-0.817827
1629797545791,-0.167201,-0.541863,-0.8164239999999999
1629797545801,-0.166774,-0.542412,-0.815326
1629797545810,-0.165676,-0.5435099999999999,-0.815448
1629797545820,-0.16561499999999998,-0.544364,-0.814716
1629797545829,-0.163907,-0.544608,-0.814533
1629797545839,-0.164517,-0.545096,-0.814411
1629797545849,-0.164578,-0.545462,-0.8148989999999999
1629797545858,-0.164883,-0.547536,-0.815082
1629797545868,-0.165249,-0.5459499999999999,-0.8145939999999999
1629797545877,-0.16683499999999998,-0.545401,-0.814228
1629797545887,-0.167872,-0.545584,-0.81374
1629797545897,-0.167872,-0.5462549999999999,-0.813862
1629797545906,-0.169702,-0.547109,-0.8121539999999999
1629797545916,-0.170434,-0.545218,-0.81191
1629797545925,-0.17177599999999998,-0.546072,-0.811605
1629797545935,-0.173362,-0.5465599999999999,-0.810385
1629797545945,-0.175863,-0.547048,-0.808128
1629797545954,-0.177754,-0.548207,-0.8069689999999999
1629797545964,-0.180499,-0.548756,-0.8045289999999999
1629797545973,-0.182085,-0.547902,-0.804468
1629797545983,-0.183854,-0.548512,-0.804773
1629797545993,-0.18544,-0.548451,-0.805383
1629797546002,-0.18781899999999999,-0.549854,-0.805505
1629797546012,-0.190503,-0.551196,-0.804956
1629797546021,-0.19276,-0.55144,-0.804346
1629797546031,-0.19519999999999998,-0.551257,-0.804895
1629797546041,-0.197396,-0.552477,-0.80337
1629797546050,-0.20044599999999999,-0.553026,-0.800991
1629797546060,-0.202947,-0.553575,-0.7996489999999999
1629797546069,-0.205936,-0.555039,-0.798063
1629797546079,-0.207583,-0.556259,-0.798978
1629797546089,-0.210023,-0.556625,-0.799405
1629797546098,-0.213256,-0.55693,-0.799466
1629797546108,-0.216977,-0.558516,-0.798063
1629797546117,-0.219051,-0.560102,-0.79788
1629797546127,-0.221552,-0.560285,-0.7984289999999999
1629797546137,-0.224114,-0.55998,-0.798002
1629797546146,-0.22630999999999998,-0.560041,-0.79544
1629797546156,-0.22691999999999998,-0.560468,-0.795806
1629797546165,-0.22942099999999999,-0.559675,-0.796721
1629797546175,-0.23119,-0.560346,-0.797087
1629797546185,-0.23241,-0.5614439999999999,-0.79849
1629797546194,-0.234179,-0.560651,-0.798246
1629797546204,-0.234545,-0.561322,-0.797819
1629797546213,-0.234545,-0.559797,-0.798978
1629797546223,-0.23668,-0.559797,-0.79849
1629797546233,-0.237046,-0.560407,-0.796843
1629797546242,-0.237351,-0.559736,-0.797514
1629797546252,-0.23680199999999998,-0.560163,-0.796965
1629797546261,-0.237839,-0.559553,-0.796416
1629797546271,-0.238266,-0.559675,-0.795562
1629797546281,-0.238693,-0.558638,-0.794037
1629797546290,-0.23985199999999998,-0.55754,-0.794342
1629797546300,-0.239669,-0.556381,-0.794037
1629797546309,-0.239669,-0.555527,-0.794098
1629797546319,-0.238998,-0.555649,-0.794159
1629797546329,-0.23924199999999998,-0.555405,-0.793854
1629797546338,-0.238998,-0.555283,-0.793671
1629797546348,-0.238998,-0.553453,-0.793488
1629797546357,-0.240096,-0.55266,-0.792878
1629797546367,-0.239974,-0.552233,-0.793854
1629797546377,-0.24015699999999998,-0.55144,-0.793549
1629797546386,-0.240889,-0.551562,-0.792939
1629797546396,-0.240523,-0.551684,-0.794098
1629797546405,-0.241011,-0.551013,-0.79361
1629797546415,-0.241011,-0.550098,-0.794586
1629797546425,-0.241621,-0.55083,-0.793976
1629797546434,-0.24095,-0.551257,-0.79361
1629797546444,-0.242536,-0.550464,-0.792329
1629797546453,-0.243024,-0.551257,-0.792573
1629797546463,-0.242292,-0.551013,-0.7914749999999999
1629797546473,-0.241194,-0.552294,-0.792268
1629797546482,-0.24204799999999999,-0.552538,-0.791841
1629797546492,-0.242475,-0.552904,-0.791597
1629797546501,-0.242536,-0.553392,-0.792207
1629797546511,-0.24326799999999998,-0.553575,-0.791963
1629797546521,-0.24387799999999998,-0.553697,-0.793
1629797546530,-0.244732,-0.554185,-0.792573
1629797546540,-0.245342,-0.554612,-0.791658
1629797546549,-0.24583,-0.555649,-0.792146
1629797546559,-0.245525,-0.555161,-0.791353
1629797546569,-0.245769,-0.556198,-0.791536
1629797546578,-0.245952,-0.556747,-0.793305
1629797546588,-0.246074,-0.556808,-0.793793
1629797546597,-0.244427,-0.558028,-0.793244
1629797546607,-0.24570799999999998,-0.557967,-0.79361
1629797546617,-0.246074,-0.558699,-0.793854
1629797546626,-0.24583,-0.559065,-0.793183
1629797546636,-0.244122,-0.559126,-0.793305
1629797546645,-0.244671,-0.560407,-0.79239
1629797546655,-0.24448799999999998,-0.560163,-0.792573
1629797546665,-0.243512,-0.561322,-0.792573
1629797546674,-0.241926,-0.561627,-0.792695
1629797546684,-0.241682,-0.560346,-0.793366
1629797546693,-0.240767,-0.560956,-0.794159
1629797546703,-0.23973,-0.5602239999999999,-0.795135
1629797546713,-0.237839,-0.560163,-0.794098
1629797546722,-0.236558,-0.559065,-0.794098
1629797546732,-0.234972,-0.559126,-0.793427
1629797546741,-0.232044,-0.55876,-0.7917799999999999
1629797546751,-0.231739,-0.5602239999999999,-0.790011
1629797546761,-0.231312,-0.562237,-0.7899499999999999
1629797546770,-0.229482,-0.5632739999999999,-0.790743
1629797546780,-0.228689,-0.561688,-0.790194
1629797546789,-0.228628,-0.561322,-0.792024
1629797546799,-0.227591,-0.560346,-0.793854
1629797546809,-0.228079,-0.559675,-0.79483
1629797546818,-0.226066,-0.558882,-0.795379
1629797546828,-0.224724,-0.558638,-0.796477
1629797546837,-0.22386999999999999,-0.558394,-0.79727
1629797546847,-0.222955,-0.558028,-0.795562
1629797546857,-0.222589,-0.557784,-0.795013
1629797546866,-0.221552,-0.55693,-0.793854
1629797546876,-0.22021,-0.555954,-0.793793
1629797546885,-0.21892899999999998,-0.554002,-0.793732
1629797546895,-0.219173,-0.551989,-0.793488
1629797546905,-0.218197,-0.551074,-0.795135
1629797546914,-0.218563,-0.550281,-0.79544
1629797546924,-0.21770899999999999,-0.550098,-0.79666
1629797546933,-0.216855,-0.550159,-0.798185
1629797546943,-0.215635,-0.550281,-0.798795
1629797546953,-0.21429299999999998,-0.550342,-0.79788
1629797546962,-0.21533,-0.551562,-0.796721
1629797546972,-0.213866,-0.551928,-0.796782
1629797546981,-0.21398799999999998,-0.553514,-0.796599
1629797546991,-0.212585,-0.55327,-0.798185
1629797547001,-0.212646,-0.554185,-0.79971
1629797547010,-0.212402,-0.554551,-0.801601
1629797547020,-0.212646,-0.553819,-0.800503
1629797547029,-0.212585,-0.554856,-0.7999539999999999
1629797547039,-0.212524,-0.554978,-0.801235
1629797547049,-0.213134,-0.5551,-0.801052
1629797547058,-0.213195,-0.555527,-0.800991
1629797547068,-0.213256,-0.554917,-0.80215
1629797547077,-0.213805,-0.554002,-0.800991
1629797547087,-0.21520799999999998,-0.55266,-0.8017839999999999
1629797547097,-0.215269,-0.551745,-0.8036139999999999
1629797547106,-0.21551299999999998,-0.550952,-0.803248
1629797547116,-0.216916,-0.550586,-0.804041
1629797547125,-0.216672,-0.550403,-0.80398
1629797547135,-0.216855,-0.549915,-0.805505
1629797547145,-0.216855,-0.549915,-0.804956
1629797547154,-0.216672,-0.549732,-0.8045289999999999
1629797547164,-0.21655,-0.549549,-0.80459
1629797547173,-0.217526,-0.550037,-0.803492
1629797547183,-0.219295,-0.548634,-0.80337
1629797547193,-0.21899,-0.548146,-0.8033089999999999
1629797547202,-0.219478,-0.5468649999999999,-0.804407
1629797547212,-0.219783,-0.545706,-0.805688
1629797547221,-0.221186,-0.545096,-0.805932
1629797547231,-0.22197899999999998,-0.545706,-0.8054439999999999
1629797547241,-0.222955,-0.545706,-0.8066639999999999
1629797547250,-0.221796,-0.545218,-0.8069689999999999
1629797547260,-0.223016,-0.5447299999999999,-0.805993
1629797547269,-0.222345,-0.5441199999999999,-0.805505
1629797547279,-0.22228399999999998,-0.543998,-0.804895
1629797547289,-0.22204,-0.544059,-0.804468
1629797547298,-0.221613,-0.542351,-0.80459
1629797547308,-0.22197899999999998,-0.543998,-0.803675
1629797547317,-0.222406,-0.543632,-0.803492
1629797547327,-0.22106399999999998,-0.5444249999999999,-0.802821
1629797547337,-0.22228399999999998,-0.544669,-0.801967
1629797547346,-0.221796,-0.546072,-0.803126
1629797547356,-0.221735,-0.547536,-0.803492
1629797547365,-0.22204,-0.548573,-0.8042239999999999
1629797547375,-0.221308,-0.548634,-0.804407
1629797547385,-0.222467,-0.548939,-0.804102
1629797547394,-0.222467,-0.549366,-0.802577
1629797547404,-0.222833,-0.550342,-0.80215
1629797547413,-0.222345,-0.550281,-0.801662
1629797547423,-0.22228399999999998,-0.549366,-0.801418
1629797547433,-0.223138,-0.550647,-0.801357
1629797547442,-0.223321,-0.551501,-0.800198
1629797547452,-0.22197899999999998,-0.551135,-0.799283
1629797547461,-0.222406,-0.551318,-0.799405
1629797547471,-0.222467,-0.550586,-0.798368
1629797547481,-0.22326,-0.551623,-0.798063
1629797547490,-0.223382,-0.551623,-0.797636
1629797547500,-0.224602,-0.552233,-0.798246
1629797547509,-0.225029,-0.552233,-0.798978
1629797547519,-0.225212,-0.552416,-0.798917
1629797547529,-0.225334,-0.553209,-0.799405
1629797547538,-0.226554,-0.55388,-0.798368
1629797547548,-0.225883,-0.554246,-0.7987339999999999
1629797547557,-0.225517,-0.554612,-0.7987339999999999
1629797547567,-0.22539499999999998,-0.554185,-0.7987339999999999
1629797547577,-0.225822,-0.554124,-0.797697
1629797547586,-0.22417499999999999,-0.554978,-0.796111
1629797547596,-0.224419,-0.554917,-0.795867
1629797547605,-0.224724,-0.554063,-0.795928
1629797547615,-0.225456,-0.554063,-0.79544
1629797547625,-0.225822,-0.554429,-0.795623
1629797547634,-0.225944,-0.555344,-0.795684
1629797547644,-0.22508999999999998,-0.555344,-0.796416
1629797547653,-0.224297,-0.557052,-0.795684
1629797547663,-0.224907,-0.556991,-0.795928
1629797547673,-0.225212,-0.557967,-0.796416
1629797547682,-0.225212,-0.557723,-0.79666
1629797547692,-0.22539499999999998,-0.556747,-0.796965
1629797547701,-0.226127,-0.556747,-0.795867
1629797547711,-0.22569999999999998,-0.557845,-0.796477
1629797547721,-0.225639,-0.557296,-0.796233
1629797547730,-0.223992,-0.55754,-0.796965
1629797547740,-0.224297,-0.554917,-0.796843
1629797547749,-0.225273,-0.555039,-0.795867
1629797547759,-0.225822,-0.555161,-0.796233
1629797547769,-0.225456,-0.555283,-0.797575
1629797547778,-0.224297,-0.554673,-0.797941
1629797547788,-0.223016,-0.555771,-0.799466
1629797547797,-0.223077,-0.556381,-0.798063
1629797547807,-0.22386999999999999,-0.556503,-0.79666
1629797547817,-0.223809,-0.556686,-0.795928
1629797547826,-0.223138,-0.55693,-0.795379
1629797547836,-0.223992,-0.555527,-0.796416
1629797547845,-0.224419,-0.553636,-0.798185
1629797547855,-0.224236,-0.553575,-0.800808
1629797547865,-0.223321,-0.552111,-0.801967
1629797547874,-0.224724,-0.552538,-0.802028
1629797547884,-0.223687,-0.553514,-0.801906
1629797547893,-0.224114,-0.552843,-0.8026989999999999
1629797547903,-0.222833,-0.55144,-0.800503
1629797547913,-0.222467,-0.550891,-0.799161
1629797547922,-0.22326,-0.550403,-0.797697
1629797547932,-0.223687,-0.550708,-0.798856
1629797547941,-0.223626,-0.55022,-0.798612
1629797547951,-0.224968,-0.549427,-0.799832
1629797547961,-0.22386999999999999,-0.5477799999999999,-0.801235
1629797547970,-0.224724,-0.5483899999999999,-0.802638
1629797547980,-0.224724,-0.547109,-0.802516
1629797547989,-0.225578,-0.546621,-0.802577
1629797547999,-0.22539499999999998,-0.546011,-0.802577
1629797548009,-0.226066,-0.545828,-0.803065
1629797548018,-0.226188,-0.545706,-0.803675
1629797548028,-0.226127,-0.543571,-0.8045289999999999
1629797548037,-0.227652,-0.542168,-0.804468
1629797548047,-0.22813999999999998,-0.5413749999999999,-0.8052
1629797548057,-0.228994,-0.5407649999999999,-0.80459
1629797548066,-0.229482,-0.539789,-0.805566
1629797548076,-0.228323,-0.539118,-0.80581
1629797548085,-0.228018,-0.5398499999999999,-0.807152
1629797548095,-0.228628,-0.539606,-0.805017
1629797548105,-0.229177,-0.539972,-0.803187
1629797548114,-0.229909,-0.541192,-0.8030039999999999
1629797548124,-0.229482,-0.5410699999999999,-0.804102
1629797548133,-0.230092,-0.5401549999999999,-0.8054439999999999
1629797548143,-0.23058,-0.538996,-0.805932
1629797548153,-0.230702,-0.538142,-0.805627
1629797548162,-0.23094599999999998,-0.537227,-0.805383
1629797548172,-0.23094599999999998,-0.537227,-0.808128
1629797548181,-0.23003099999999999,-0.538142,-0.808311
1629797548191,-0.23064099999999998,-0.538508,-0.807518
1629797548201,-0.230885,-0.5392399999999999,-0.806176
1629797548210,-0.230092,-0.539667,-0.806481
1629797548220,-0.230214,-0.539911,-0.80703
1629797548229,-0.22997,-0.5398499999999999,-0.8072739999999999
1629797548239,-0.22942099999999999,-0.540338,-0.8072739999999999
1629797548249,-0.22936,-0.539972,-0.807396
1629797548258,-0.228567,-0.540338,-0.806176
1629797548268,-0.22813999999999998,-0.538874,-0.8063589999999999
1629797548277,-0.227652,-0.538386,-0.8072739999999999
1629797548287,-0.227957,-0.538142,-0.8060539999999999
1629797548297,-0.228933,-0.538569,-0.8066639999999999
1629797548306,-0.227286,-0.5383249999999999,-0.805993
1629797548316,-0.227774,-0.537776,-0.806603
1629797548325,-0.226432,-0.537288,-0.806298
1629797548335,-0.226432,-0.537044,-0.805993
1629797548345,-0.227042,-0.537471,-0.8060539999999999
1629797548354,-0.226981,-0.537776,-0.80642
1629797548364,-0.226188,-0.538203,-0.805932
1629797548373,-0.226249,-0.538203,-0.806786
1629797548383,-0.225517,-0.5392399999999999,-0.806298
1629797548393,-0.22600499999999998,-0.538996,-0.806481
1629797548402,-0.224114,-0.540338,-0.805932
1629797548412,-0.225334,-0.541497,-0.8051389999999999
1629797548421,-0.224724,-0.542656,-0.804346
1629797548431,-0.22386999999999999,-0.543632,-0.805505
1629797548441,-0.223199,-0.5435099999999999,-0.8048339999999999
1629797548450,-0.223748,-0.544364,-0.8042239999999999
1629797548460,-0.224358,-0.544669,-0.804773
1629797548469,-0.223504,-0.544974,-0.804895
1629797548479,-0.224358,-0.545523,-0.8052
1629797548489,-0.225029,-0.545157,-0.8048339999999999
1629797548498,-0.224846,-0.546438,-0.804041
1629797548508,-0.224602,-0.545828,-0.803248
1629797548517,-0.224968,-0.546743,-0.802455
1629797548527,-0.22386999999999999,-0.546804,-0.802211
1629797548537,-0.224053,-0.5465599999999999,-0.8014789999999999
1629797548546,-0.22356499999999999,-0.5465599999999999,-0.801601
1629797548556,-0.224968,-0.546926,-0.800991
1629797548565,-0.22447999999999999,-0.5465599999999999,-0.80032
1629797548575,-0.224846,-0.545462,-0.800686
1629797548585,-0.225639,-0.5459499999999999,-0.801296
1629797548594,-0.226676,-0.545828,-0.801967
1629797548604,-0.227103,-0.5459499999999999,-0.8017839999999999
1629797548613,-0.226981,-0.545889,-0.80276
1629797548623,-0.226981,-0.544913,-0.802333
1629797548633,-0.227347,-0.545157,-0.80276
1629797548642,-0.227469,-0.5462549999999999,-0.8026989999999999
1629797548652,-0.22691999999999998,-0.546133,-0.801967
1629797548661,-0.226249,-0.547109,-0.801418
1629797548671,-0.22661499999999998,-0.5471699999999999,-0.801235
1629797548681,-0.225517,-0.545828,-0.8005639999999999
1629797548690,-0.224602,-0.545584,-0.801296
1629797548700,-0.225456,-0.545279,-0.7999539999999999
1629797548709,-0.226432,-0.5459499999999999,-0.800747
1629797548719,-0.225883,-0.547048,-0.802821
1629797548729,-0.225944,-0.546804,-0.803248
1629797548738,-0.224297,-0.5468649999999999,-0.8054439999999999
1629797548748,-0.224846,-0.548268,-0.80581
1629797548757,-0.225883,-0.548268,-0.803248
1629797548767,-0.225517,-0.5480849999999999,-0.802516
1629797548777,-0.22539499999999998,-0.548268,-0.801418
1629797548786,-0.226066,-0.5474749999999999,-0.80154
1629797548796,-0.226249,-0.546194,-0.802028
1629797548805,-0.225944,-0.545279,-0.8030039999999999
1629797548815,-0.226432,-0.545523,-0.803553
1629797548825,-0.225944,-0.5462549999999999,-0.8039189999999999
1629797548834,-0.22508999999999998,-0.545462,-0.803797
1629797548844,-0.225883,-0.546316,-0.803492
1629797548853,-0.225578,-0.545889,-0.803858
1629797548863,-0.225517,-0.545462,-0.802882
1629797548873,-0.226859,-0.545828,-0.801723
1629797548882,-0.227469,-0.546377,-0.802272
1629797548892,-0.227347,-0.545096,-0.8030039999999999
1629797548901,-0.228018,-0.544669,-0.804651
1629797548911,-0.229665,-0.543388,-0.8042239999999999
1629797548921,-0.229848,-0.541802,-0.80459
1629797548930,-0.231068,-0.539911,-0.804956
1629797548940,-0.231434,-0.539972,-0.805078
1629797548949,-0.232288,-0.539606,-0.805566
1629797548959,-0.232532,-0.538813,-0.804895
1629797548969,-0.231739,-0.538447,-0.804712
1629797548978,-0.231434,-0.5374099999999999,-0.8045289999999999
1629797548988,-0.23216599999999998,-0.536312,-0.804468
1629797548997,-0.232959,-0.536678,-0.8033089999999999
1629797549007,-0.235155,-0.536007,-0.804468
1629797549017,-0.234972,-0.5367999999999999,-0.804468
1629797549026,-0.23399599999999998,-0.537044,-0.80459
1629797549036,-0.233508,-0.536373,-0.8063589999999999
1629797549045,-0.23308099999999998,-0.536678,-0.8084939999999999
1629797549055,-0.234362,-0.537532,-0.807762
1629797549065,-0.234118,-0.5395449999999999,-0.80581
1629797549074,-0.233325,-0.5404599999999999,-0.804651
1629797549084,-0.233264,-0.541009,-0.804407
1629797549093,-0.232715,-0.540521,-0.803858
1629797549103,-0.23363,-0.539911,-0.805871
1629797549113,-0.23363,-0.5398499999999999,-0.8063589999999999
1629797549122,-0.232898,-0.539606,-0.8072739999999999
1629797549132,-0.233569,-0.540704,-0.807091
1629797549141,-0.233142,-0.541741,-0.806908
1629797549151,-0.232532,-0.541924,-0.807701
1629797549161,-0.23277599999999998,-0.541558,-0.807396
1629797549170,-0.2318,-0.543022,-0.806725
1629797549180,-0.231922,-0.543632,-0.806115
1629797549189,-0.231312,-0.543266,-0.805871
1629797549199,-0.23064099999999998,-0.543632,-0.80459
1629797549209,-0.231007,-0.542107,-0.804346
1629797549218,-0.23058,-0.543388,-0.804773
1629797549228,-0.22936,-0.5428999999999999,-0.803736
1629797549237,-0.229665,-0.540887,-0.804407
1629797549247,-0.230153,-0.540582,-0.8026989999999999
1629797549257,-0.229482,-0.540521,-0.80459
1629797549266,-0.229299,-0.540704,-0.80337
1629797549276,-0.228628,-0.541131,-0.8036139999999999
1629797549285,-0.22936,-0.5410699999999999,-0.804407
1629797549295,-0.228628,-0.540338,-0.804407
1629797549305,-0.230092,-0.540033,-0.80337
1629797549314,-0.229482,-0.539606,-0.803675
1629797549324,-0.22936,-0.539972,-0.8033089999999999
1629797549333,-0.228872,-0.5392399999999999,-0.802455
1629797549343,-0.228872,-0.539057,-0.801906
1629797549353,-0.22997,-0.540094,-0.802943
1629797549362,-0.229177,-0.541253,-0.8026989999999999
1629797549372,-0.229482,-0.541558,-0.80215
1629797549381,-0.229665,-0.542168,-0.801967
1629797549391,-0.229238,-0.542778,-0.801906
1629797549401,-0.22936,-0.5435099999999999,-0.801113
1629797549410,-0.228933,-0.545096,-0.80215
1629797549420,-0.229665,-0.545157,-0.801845
1629797549429,-0.229665,-0.5453399999999999,-0.801296
1629797549439,-0.228933,-0.547231,-0.801235
1629797549449,-0.229604,-0.548329,-0.801052
1629797549458,-0.228872,-0.549549,-0.80093
1629797549468,-0.22875,-0.549366,-0.802455
1629797549477,-0.228933,-0.549366,-0.803126
1629797549487,-0.22844499999999998,-0.548756,-0.804712
1629797549497,-0.229116,-0.549549,-0.803065
1629797549506,-0.228811,-0.549183,-0.802516
1629797549516,-0.227774,-0.549366,-0.801662
1629797549525,-0.227469,-0.549854,-0.801357
1629797549535,-0.22752999999999998,-0.549854,-0.801235
1629797549545,-0.228018,-0.549793,-0.8014789999999999
1629797549554,-0.22691999999999998,-0.550464,-0.802211
1629797549564,-0.22691999999999998,-0.548329,-0.802028
1629797549573,-0.226554,-0.548329,-0.802272
1629797549583,-0.228018,-0.547231,-0.802028
1629797549593,-0.227652,-0.5471699999999999,-0.80215
1629797549602,-0.228994,-0.547292,-0.801845
1629797549612,-0.227652,-0.5471699999999999,-0.8017839999999999
1629797549621,-0.22875,-0.5474749999999999,-0.801601
1629797549631,-0.228933,-0.547414,-0.801967
1629797549641,-0.228811,-0.545218,-0.802211
1629797549650,-0.22942099999999999,-0.544242,-0.802272
1629797549660,-0.230153,-0.542656,-0.802211
1629797549669,-0.230275,-0.541802,-0.801906
1629797549679,-0.23064099999999998,-0.5413749999999999,-0.802943
1629797549689,-0.231312,-0.542046,-0.8030039999999999
1629797549698,-0.23003099999999999,-0.541192,-0.803492
1629797549708,-0.228628,-0.5416799999999999,-0.804285
1629797549717,-0.230458,-0.542717,-0.8033089999999999
1629797549727,-0.230763,-0.542778,-0.802516
1629797549737,-0.230092,-0.5432049999999999,-0.801235
1629797549746,-0.230092,-0.543754,-0.8011739999999999
1629797549756,-0.230763,-0.5435099999999999,-0.801906
1629797549765,-0.23003099999999999,-0.5432049999999999,-0.802272
1629797549775,-0.230275,-0.5441199999999999,-0.8030039999999999
1629797549785,-0.229055,-0.544181,-0.805871
1629797549794,-0.22942099999999999,-0.544486,-0.807762
1629797549804,-0.228628,-0.543998,-0.806237
1629797549813,-0.228506,-0.544364,-0.805017
1629797549823,-0.22752999999999998,-0.5444249999999999,-0.803858
1629797549833,-0.227164,-0.544791,-0.802211
1629797549842,-0.226737,-0.546072,-0.801418
1629797549852,-0.226554,-0.5459499999999999,-0.801845
1629797549861,-0.22661499999999998,-0.546194,-0.802821
1629797549871,-0.226859,-0.545584,-0.803797
1629797549881,-0.226371,-0.544913,-0.803248
1629797549890,-0.225273,-0.545096,-0.8030039999999999
1629797549900,-0.226798,-0.545096,-0.8030039999999999
1629797549909,-0.227164,-0.544608,-0.803492
1629797549919,-0.226676,-0.5453399999999999,-0.803065
1629797549929,-0.226676,-0.544913,-0.802943
1629797549938,-0.227042,-0.544303,-0.8036139999999999
1629797549948,-0.228018,-0.543144,-0.804712
1629797549957,-0.228994,-0.542168,-0.804407
1629797549967,-0.229299,-0.542046,-0.8052
1629797549977,-0.229299,-0.5419849999999999,-0.805261
1629797549986,-0.228994,-0.542229,-0.8042239999999999
1629797549996,-0.228689,-0.541436,-0.806176
1629797550005,-0.228872,-0.5413749999999999,-0.806542
1629797550015,-0.228384,-0.542046,-0.8057489999999999
1629797550025,-0.227286,-0.541741,-0.804712
1629797550034,-0.227042,-0.541741,-0.804285
1629797550044,-0.227408,-0.541436,-0.803248
1629797550053,-0.227103,-0.5422899999999999,-0.803797
1629797550063,-0.227164,-0.541924,-0.803736
1629797550073,-0.226859,-0.541924,-0.804102
1629797550082,-0.227164,-0.5401549999999999,-0.804651
1629797550092,-0.226798,-0.541253,-0.804468
1629797550101,-0.227042,-0.541802,-0.8054439999999999
1629797550111,-0.226493,-0.542839,-0.805078
1629797550121,-0.226676,-0.543327,-0.805017
1629797550130,-0.22691999999999998,-0.543876,-0.805566
1629797550140,-0.227042,-0.5441199999999999,-0.8052
1629797550149,-0.226737,-0.543876,-0.8052
1629797550159,-0.225944,-0.543754,-0.804102
1629797550169,-0.22630999999999998,-0.544242,-0.804102
1629797550178,-0.225517,-0.544059,-0.8039189999999999
1629797550188,-0.226737,-0.544608,-0.802943
1629797550197,-0.227713,-0.544303,-0.8030039999999999
1629797550207,-0.226981,-0.543998,-0.803187
1629797550217,-0.226371,-0.5453399999999999,-0.803675
1629797550226,-0.225944,-0.5438149999999999,-0.804651
1629797550236,-0.226066,-0.543449,-0.804895
1629797550245,-0.225944,-0.543998,-0.804346
1629797550255,-0.226432,-0.5441199999999999,-0.803797
1629797550265,-0.226371,-0.544974,-0.804346
1629797550274,-0.22630999999999998,-0.544547,-0.803797
1629797550284,-0.225822,-0.545706,-0.804285
1629797550293,-0.226127,-0.5453399999999999,-0.803797
1629797550303,-0.22600499999999998,-0.544974,-0.802882
1629797550313,-0.22630999999999998,-0.5447299999999999,-0.803736
1629797550322,-0.226493,-0.544974,-0.8033089999999999
1629797550332,-0.225944,-0.544059,-0.8030039999999999
1629797550341,-0.226188,-0.544181,-0.803675
1629797550351,-0.226188,-0.544669,-0.802455
1629797550361,-0.226371,-0.545157,-0.802943
1629797550370,-0.226737,-0.545584,-0.802577
1629797550380,-0.22722499999999998,-0.546133,-0.802638
1629797550389,-0.226798,-0.545767,-0.802272
1629797550399,-0.22661499999999998,-0.546011,-0.8020889999999999
1629797550409,-0.226798,-0.546316,-0.802272
1629797550418,-0.226554,-0.546438,-0.80215
1629797550428,-0.226737,-0.545706,-0.802272
1629797550437,-0.22813999999999998,-0.546621,-0.802882
1629797550447,-0.227896,-0.546316,-0.8026989999999999
1629797550457,-0.227347,-0.547292,-0.8030039999999999
1629797550466,-0.22844499999999998,-0.5468649999999999,-0.8030039999999999
1629797550476,-0.228628,-0.546316,-0.8030039999999999
1629797550485,-0.22752999999999998,-0.546194,-0.803187
1629797550495,-0.228018,-0.5477799999999999,-0.802882
1629797550505,-0.227713,-0.5465599999999999,-0.8017839999999999
1629797550514,-0.227408,-0.546377,-0.801967
1629797550524,-0.228018,-0.5465599999999999,-0.801967
1629797550533,-0.228079,-0.547414,-0.801906
1629797550543,-0.227652,-0.547048,-0.801235
1629797550553,-0.228506,-0.547048,-0.802577
1629797550562,-0.227286,-0.5468649999999999,-0.801906
1629797550572,-0.227774,-0.545279,-0.8026989999999999
1629797550581,-0.228811,-0.545218,-0.802943
1629797550591,-0.227652,-0.545096,-0.803126
1629797550601,-0.226859,-0.545096,-0.803797
1629797550610,-0.228262,-0.545096,-0.80337
1629797550620,-0.228079,-0.546316,-0.8017839999999999
1629797550629,-0.228201,-0.546682,-0.801906
1629797550639,-0.227896,-0.5465599999999999,-0.801906
1629797550649,-0.22875,-0.546499,-0.801601
1629797550658,-0.229177,-0.544913,-0.801967
1629797550668,-0.22942099999999999,-0.544364,-0.801662
1629797550677,-0.230092,-0.543998,-0.803431
1629797550687,-0.230824,-0.5441199999999999,-0.80398
1629797550697,-0.230824,-0.5432049999999999,-0.804651
1629797550706,-0.230214,-0.543693,-0.805566
1629797550716,-0.22972599999999999,-0.5438149999999999,-0.8048339999999999
1629797550725,-0.23064099999999998,-0.543083,-0.804712
1629797550735,-0.23125099999999998,-0.543754,-0.803065
1629797550745,-0.230702,-0.542168,-0.802455
1629797550754,-0.231129,-0.541863,-0.8026989999999999
1629797550764,-0.231007,-0.541802,-0.803065
1629797550773,-0.23003099999999999,-0.540704,-0.802211
1629797550783,-0.231983,-0.540094,-0.8051389999999999
1629797550793,-0.231129,-0.540277,-0.806115
1629797550802,-0.230458,-0.540094,-0.806847
1629797550812,-0.23033599999999999,-0.540643,-0.8066639999999999
1629797550821,-0.229665,-0.542412,-0.806176
1629797550831,-0.229665,-0.542229,-0.804956
1629797550841,-0.229543,-0.542229,-0.8039189999999999
1629797550850,-0.229055,-0.543022,-0.802943
1629797550860,-0.228384,-0.5438149999999999,-0.802455
1629797550869,-0.22844499999999998,-0.543266,-0.803492
1629797550879,-0.227164,-0.542778,-0.804102
1629797550889,-0.227774,-0.542046,-0.802577
1629797550898,-0.228018,-0.5425949999999999,-0.802516
1629797550908,-0.228262,-0.542534,-0.801967
1629797550917,-0.22752999999999998,-0.542961,-0.802211
1629797550927,-0.227896,-0.542961,-0.8020889999999999
1629797550937,-0.227347,-0.542839,-0.803187
1629797550946,-0.228262,-0.542412,-0.804285
1629797550956,-0.228201,-0.541497,-0.804651
1629797550965,-0.229604,-0.540399,-0.805383
1629797550975,-0.230519,-0.540094,-0.805993
1629797550985,-0.230885,-0.540582,-0.806725
1629797550994,-0.230458,-0.540277,-0.805993
1629797551004,-0.23094599999999998,-0.541131,-0.806542
1629797551013,-0.230458,-0.5413749999999999,-0.8072739999999999
1629797551023,-0.23125099999999998,-0.5413749999999999,-0.807518
1629797551033,-0.23094599999999998,-0.542107,-0.80581
1629797551042,-0.231373,-0.542656,-0.8057489999999999
1629797551052,-0.231434,-0.541558,-0.805871
1629797551061,-0.231312,-0.542168,-0.805383
1629797551071,-0.23064099999999998,-0.542168,-0.8054439999999999
1629797551081,-0.229848,-0.539667,-0.804773
1629797551090,-0.231312,-0.539789,-0.804651
1629797551100,-0.23125099999999998,-0.541009,-0.805322
1629797551109,-0.231068,-0.540582,-0.806237
1629797551119,-0.231495,-0.540704,-0.805932
1629797551129,-0.23058,-0.5404599999999999,-0.805505
1629797551138,-0.231434,-0.540216,-0.806298
1629797551148,-0.230519,-0.541314,-0.805261
1629797551157,-0.230885,-0.540826,-0.80581
1629797551167,-0.231495,-0.540521,-0.806847
1629797551177,-0.229848,-0.539606,-0.806847
1629797551186,-0.23033599999999999,-0.540216,-0.805505
1629797551196,-0.229848,-0.539484,-0.804956
1629797551205,-0.230824,-0.540338,-0.804712
1629797551215,-0.230458,-0.540094,-0.803797
1629797551225,-0.22997,-0.5398499999999999,-0.8042239999999999
1629797551234,-0.230519,-0.539484,-0.805261
1629797551244,-0.229604,-0.539728,-0.804895
1629797551253,-0.229482,-0.538447,-0.804895
1629797551263,-0.22936,-0.538386,-0.804346
1629797551273,-0.229604,-0.538691,-0.804041
1629797551282,-0.228872,-0.539057,-0.80337
1629797551292,-0.228994,-0.539484,-0.802211
1629797551301,-0.229055,-0.539606,-0.802577
1629797551311,-0.22997,-0.539362,-0.803797
1629797551321,-0.229116,-0.541253,-0.8039189999999999
1629797551330,-0.229665,-0.540277,-0.804041
1629797551340,-0.230214,-0.5404599999999999,-0.805261
1629797551349,-0.22997,-0.540704,-0.804651
1629797551359,-0.230092,-0.541619,-0.803736
1629797551369,-0.229238,-0.541802,-0.803858
1629797551378,-0.22972599999999999,-0.541009,-0.802577
1629797551388,-0.229238,-0.5410699999999999,-0.802821
1629797551397,-0.228933,-0.541192,-0.803431
1629797551407,-0.229665,-0.540521,-0.8033089999999999
1629797551417,-0.230519,-0.540582,-0.8030039999999999
1629797551426,-0.22972599999999999,-0.540338,-0.8026989999999999
1629797551436,-0.229909,-0.5410699999999999,-0.8026989999999999
1629797551445,-0.23119,-0.542351,-0.80459
1629797551455,-0.231373,-0.5428999999999999,-0.805078
1629797551465,-0.232288,-0.5438149999999999,-0.804346
1629797551474,-0.232898,-0.544059,-0.805383
1629797551484,-0.230397,-0.545096,-0.8048339999999999
1629797551493,-0.23155599999999998,-0.544547,-0.805078
1629797551503,-0.230702,-0.545279,-0.805932
1629797551513,-0.229543,-0.544486,-0.8052
1629797551522,-0.230458,-0.5456449999999999,-0.804285
1629797551532,-0.230824,-0.546316,-0.803492
1629797551541,-0.231495,-0.545401,-0.8030039999999999
1629797551551,-0.230092,-0.544608,-0.802455
1629797551561,-0.23064099999999998,-0.544486,-0.80337
1629797551570,-0.229543,-0.544364,-0.803736
1629797551580,-0.230519,-0.544669,-0.8039189999999999
1629797551589,-0.231617,-0.544303,-0.8054439999999999
