timestamp,ax,ay,az
1629797652547,-0.405833,-0.7890349999999999,0.420473
1629797652557,-0.404308,-0.787083,0.418155
1629797652566,-0.40333199999999997,-0.788181,0.415837
1629797652576,-0.402905,-0.786534,0.411933
1629797652585,-0.402478,-0.786351,0.40809
1629797652595,-0.40394199999999997,-0.7865949999999999,0.402966
1629797652605,-0.404674,-0.787693,0.399001
1629797652614,-0.40516199999999997,-0.7911699999999999,0.397598
1629797652624,-0.40760199999999996,-0.793183,0.399001
1629797652633,-0.409554,-0.793976,0.398391
1629797652643,-0.411018,-0.794403,0.397049
1629797652653,-0.413031,-0.794403,0.39772
1629797652662,-0.413153,-0.793366,0.402905
1629797652672,-0.413275,-0.791292,0.407053
1629797652681,-0.413336,-0.786107,0.410774
1629797652691,-0.412848,-0.778726,0.4148
1629797652701,-0.413397,-0.772016,0.420473
1629797652710,-0.413336,-0.76616,0.42456
1629797652720,-0.412787,-0.7625,0.42797599999999997
1629797652729,-0.41199399999999997,-0.758718,0.430294
1629797652739,-0.410957,-0.754265,0.430355
1629797652749,-0.410164,-0.7524959999999999,0.43102599999999996
1629797652758,-0.408578,-0.751093,0.434137
1629797652768,-0.40638199999999997,-0.750361,0.437431
1629797652777,-0.405345,-0.748348,0.437736
1629797652787,-0.40424699999999997,-0.746457,0.434991
1629797652797,-0.403393,-0.746335,0.432734
1629797652806,-0.401441,-0.748104,0.43072099999999997
1629797652816,-0.400404,-0.7534109999999999,0.42828099999999997
1629797652825,-0.398879,-0.76006,0.427488
1629797652835,-0.399001,-0.766953,0.422364
1629797652845,-0.397781,-0.771589,0.416691
1629797528071,-0.33000999999999997,-0.6329359999999999,0.665327
1629797528081,-0.329827,-0.63318,0.664412
1629797528091,-0.329583,-0.6317159999999999,0.6645949999999999
1629797528100,-0.330193,-0.632204,0.6661199999999999
1629797528110,-0.329766,-0.63379,0.665998
1629797528119,-0.329461,-0.63379,0.666242
1629797528129,-0.329827,-0.632997,0.667157
1629797528139,-0.328912,-0.632692,0.6682549999999999
1629797528148,-0.329339,-0.632692,0.670451
1629797528158,-0.329217,-0.632204,0.669414
1629797528167,-0.328973,-0.631472,0.667584
1629797528177,-0.328851,-0.630374,0.666303
1629797528187,-0.328973,-0.630435,0.665388
1629797528196,-0.327753,-0.632082,0.665449
1629797528206,-0.328302,-0.632875,0.664656
1629797528215,-0.328424,-0.634827,0.665632
1629797528225,-0.328302,-0.636047,0.666059
1629797528235,-0.328241,-0.637084,0.665693
1629797528244,-0.329217,-0.6369009999999999,0.665144
1629797528254,-0.328912,-0.63745,0.665266
1629797528263,-0.329461,-0.637694,0.6642899999999999
1629797528273,-0.32909499999999997,-0.637267,0.663497
1629797528283,-0.329522,-0.6375109999999999,0.663253
1629797528292,-0.329339,-0.63806,0.664046
1629797528302,-0.329644,-0.63806,0.664107
1629797528311,-0.329034,-0.6375109999999999,0.665083
1629797528321,-0.329583,-0.637938,0.665632
1629797528331,-0.329644,-0.637755,0.665632
1629797528340,-0.33000999999999997,-0.636169,0.6642899999999999
1629797528350,-0.329888,-0.635559,0.664656
1629797528359,-0.33031499999999997,-0.635315,0.663558
1629797528369,-0.33061999999999997,-0.635742,0.663192
1629797528379,-0.329949,-0.636108,0.663192
1629797528388,-0.330132,-0.6359859999999999,0.662704
1629797528398,-0.330742,-0.636047,0.663497
1629797528407,-0.330376,-0.636047,0.663009
1629797528417,-0.330986,-0.636047,0.663253
1629797528427,-0.33153499999999997,-0.636169,0.663741
1629797528436,-0.33061999999999997,-0.635559,0.663497
1629797528446,-0.330742,-0.634583,0.6636799999999999
1629797528455,-0.330986,-0.6347659999999999,0.6636799999999999
1629797528465,-0.329827,-0.63379,0.662399
1629797528475,-0.330193,-0.634644,0.663131
1629797528484,-0.33031499999999997,-0.635254,0.6630699999999999
1629797528494,-0.330559,-0.635193,0.662094
1629797528503,-0.33092499999999997,-0.636962,0.661362
1629797528513,-0.329644,-0.636474,0.661362
1629797528523,-0.329644,-0.63745,0.662399
1629797528532,-0.330498,-0.637755,0.6609349999999999
1629797528542,-0.329827,-0.6381209999999999,0.6606299999999999
1629797528551,-0.330437,-0.6375109999999999,0.661789
1629797528561,-0.330681,-0.6372059999999999,0.6612399999999999
1629797528571,-0.329278,-0.6372059999999999,0.661118
1629797528580,-0.329888,-0.638182,0.661179
1629797528590,-0.329949,-0.638365,0.6600199999999999
1629797528599,-0.329583,-0.639463,0.659837
1629797528609,-0.328912,-0.639585,0.6597149999999999
1629797528619,-0.329034,-0.639707,0.659593
1629797528628,-0.329644,-0.640683,0.660081
1629797528638,-0.329766,-0.641598,0.659532
1629797528647,-0.329461,-0.64172,0.659166
1629797528657,-0.330376,-0.642879,0.659349
1629797528667,-0.330986,-0.643062,0.661484
1629797528676,-0.33183999999999997,-0.6423909999999999,0.660508
1629797528686,-0.331657,-0.64233,0.6609349999999999
1629797528695,-0.332328,-0.6408659999999999,0.661362
1629797528705,-0.332328,-0.6405,0.6615449999999999
1629797528715,-0.332267,-0.638365,0.660508
1629797528724,-0.332084,-0.6378159999999999,0.661057
1629797528734,-0.33214499999999997,-0.638609,0.6612399999999999
1629797528743,-0.331962,-0.637877,0.661667
1629797528753,-0.331413,-0.635925,0.661972
1629797528763,-0.332572,-0.634034,0.662094
1629797528772,-0.333121,-0.632997,0.663192
1629797528782,-0.333487,-0.63318,0.665327
1629797528791,-0.332938,-0.633485,0.666852
1629797528801,-0.332877,-0.63318,0.665632
1629797528811,-0.332877,-0.6338509999999999,0.662704
1629797528820,-0.332938,-0.635559,0.662094
1629797528830,-0.332877,-0.63745,0.6621549999999999
1629797528839,-0.333609,-0.638182,0.663314
1629797528849,-0.333121,-0.638243,0.662948
1629797528859,-0.332816,-0.637938,0.662277
1629797528868,-0.332877,-0.639219,0.6627649999999999
1629797528878,-0.332572,-0.638914,0.663314
1629797528887,-0.332694,-0.6384259999999999,0.662338
1629797528897,-0.332816,-0.637694,0.660752
1629797528907,-0.332206,-0.6369009999999999,0.660264
1629797528916,-0.331657,-0.635498,0.660691
1629797528926,-0.332694,-0.635132,0.661179
1629797528935,-0.33092499999999997,-0.63501,0.661728
1629797528945,-0.332084,-0.6356809999999999,0.6618499999999999
1629797528955,-0.332389,-0.6356809999999999,0.662399
1629797528964,-0.332572,-0.6359859999999999,0.662033
1629797528974,-0.33183999999999997,-0.6359859999999999,0.662094
1629797528983,-0.33214499999999997,-0.6347659999999999,0.662826
1629797528993,-0.332816,-0.6347659999999999,0.663314
1629797529003,-0.332694,-0.634339,0.6636799999999999
1629797529012,-0.332938,-0.634095,0.6627649999999999
1629797529022,-0.333914,-0.633119,0.663131
1629797529031,-0.333548,-0.63379,0.664046
1629797529041,-0.33275499999999997,-0.633119,0.664229
1629797529051,-0.331901,-0.632204,0.665571
1629797529060,-0.332389,-0.631167,0.668377
1629797529070,-0.332999,-0.630496,0.667767
1629797529079,-0.332633,-0.630435,0.666791
1629797529089,-0.332938,-0.629764,0.664351
1629797529099,-0.330986,-0.629337,0.663314
1629797529108,-0.331962,-0.629947,0.6639849999999999
1629797529118,-0.332633,-0.630984,0.665388
1629797529127,-0.332328,-0.63196,0.666181
1629797529137,-0.332938,-0.633302,0.667096
1629797529147,-0.333182,-0.634339,0.667157
1629797529156,-0.33275499999999997,-0.634705,0.666486
1629797529166,-0.333304,-0.6338509999999999,0.665998
1629797529175,-0.332938,-0.633485,0.664168
1629797529185,-0.33366999999999997,-0.632814,0.664351
1629797529195,-0.33336499999999997,-0.632997,0.664168
1629797529204,-0.332572,-0.631289,0.665388
1629797529214,-0.33305999999999997,-0.630984,0.665083
1629797529223,-0.332877,-0.630984,0.665693
1629797529233,-0.332816,-0.631289,0.666547
1629797529243,-0.333182,-0.6317159999999999,0.665449
1629797529252,-0.333121,-0.6317159999999999,0.665327
1629797529262,-0.333243,-0.630923,0.665876
1629797529271,-0.333182,-0.632082,0.664717
1629797529281,-0.332938,-0.633363,0.663802
1629797529291,-0.334036,-0.633485,0.663863
1629797529300,-0.33366999999999997,-0.633668,0.665449
1629797529310,-0.333792,-0.6344,0.664046
1629797529319,-0.333304,-0.634888,0.663802
1629797529329,-0.333121,-0.6341559999999999,0.664351
1629797529339,-0.333304,-0.634888,0.663741
1629797529348,-0.333792,-0.634034,0.663802
1629797529358,-0.333426,-0.6344,0.663253
1629797529367,-0.33397499999999997,-0.63379,0.662704
1629797529377,-0.332511,-0.633363,0.663558
1629797529387,-0.333426,-0.6344,0.6627649999999999
1629797529396,-0.333182,-0.6344,0.662338
1629797529406,-0.333487,-0.635742,0.662521
1629797529415,-0.333426,-0.635803,0.662643
1629797529425,-0.33214499999999997,-0.6359859999999999,0.662521
1629797529435,-0.332694,-0.6365959999999999,0.661667
1629797529444,-0.331779,-0.636962,0.6603249999999999
1629797529454,-0.331657,-0.635254,0.6600199999999999
1629797529463,-0.331962,-0.634949,0.6578849999999999
1629797529473,-0.33061999999999997,-0.634949,0.656848
1629797529483,-0.328363,-0.6344,0.655933
1629797529492,-0.327997,-0.6338509999999999,0.6557499999999999
1629797529502,-0.326594,-0.635498,0.655018
1629797529511,-0.326655,-0.635132,0.653554
1629797529521,-0.32696,-0.635437,0.650626
1629797529531,-0.327509,-0.635742,0.650504
1629797529540,-0.326655,-0.635864,0.6527
1629797529550,-0.327387,-0.634095,0.653249
1629797529559,-0.32757,-0.632448,0.653432
1629797529569,-0.327753,-0.630191,0.65331
1629797529579,-0.327936,-0.627141,0.653188
1629797529588,-0.328668,-0.624884,0.653371
1629797529598,-0.329522,-0.622505,0.652822
1629797529607,-0.329461,-0.620309,0.649894
1629797529617,-0.328302,-0.61915,0.645075
1629797529627,-0.327326,-0.6192719999999999,0.642025
1629797529636,-0.325008,-0.618906,0.640744
1629797529646,-0.322629,-0.61915,0.640683
1629797529655,-0.32025,-0.621224,0.639158
1629797529665,-0.316102,-0.628788,0.6347659999999999
1629797529675,-0.313906,-0.638975,0.635437
1629797529684,-0.314089,-0.642452,0.6353759999999999
1629797529694,-0.312747,-0.643672,0.628117
1629797529703,-0.312198,-0.646173,0.62159
1629797529713,-0.311405,-0.652029,0.6171369999999999
1629797529723,-0.30994099999999997,-0.657153,0.614026
1629797529732,-0.308233,-0.663802,0.611403
1629797529742,-0.307135,-0.670268,0.607072
1629797529751,-0.304024,-0.680638,0.601216
1629797529761,-0.303292,-0.6913739999999999,0.595299
1629797529771,-0.300059,-0.703757,0.587186
1629797529780,-0.29646,-0.720227,0.577121
1629797529790,-0.294996,-0.736209,0.56791
1629797529799,-0.294142,-0.748775,0.556503
1629797529809,-0.290726,-0.762683,0.546987
1629797529819,-0.29036,-0.776469,0.542961
1629797529828,-0.288774,-0.788364,0.539667
1629797529838,-0.28914,-0.796721,0.5374099999999999
1629797529847,-0.288164,-0.8036139999999999,0.536251
1629797529857,-0.28731,-0.811971,0.533872
1629797529867,-0.288652,-0.819169,0.530944
1629797529876,-0.28975,-0.8264279999999999,0.525881
1629797529886,-0.290604,-0.834419,0.521428
1629797529895,-0.290848,-0.839726,0.51606
1629797529905,-0.291275,-0.841556,0.511363
1629797529915,-0.29243399999999997,-0.842959,0.510021
1629797529924,-0.292861,-0.845582,0.509716
1629797529934,-0.294996,-0.845948,0.510204
1629797529943,-0.297192,-0.843569,0.512278
1629797529953,-0.299144,-0.838811,0.51423
1629797529963,-0.29792399999999997,-0.831125,0.510631
1629797529972,-0.29768,-0.819657,0.51545
1629797529982,-0.298656,-0.81435,0.5185
1629797529991,-0.29761899999999997,-0.807335,0.518195
1629797530001,-0.298412,-0.798368,0.516548
1629797530011,-0.298168,-0.793427,0.517768
1629797530020,-0.296765,-0.789401,0.521062
1629797530030,-0.29609399999999997,-0.784216,0.523685
1629797530039,-0.294813,-0.7804949999999999,0.526064
1629797530049,-0.295545,-0.775554,0.529846
1629797530059,-0.294508,-0.771589,0.529602
1629797530068,-0.294996,-0.766282,0.529968
1629797530078,-0.295728,-0.7616459999999999,0.532469
1629797530087,-0.294691,-0.758962,0.536556
1629797530097,-0.29822899999999997,-0.757803,0.542412
1629797530107,-0.302194,-0.755912,0.548695
1629797530116,-0.303231,-0.751032,0.552965
1629797530126,-0.304512,-0.744749,0.557906
1629797530135,-0.30933099999999997,-0.7357819999999999,0.558516
1629797530145,-0.30988,-0.723887,0.561261
1629797530155,-0.310673,-0.716689,0.563457
1629797530164,-0.31476,-0.715286,0.566202
1629797530174,-0.31829799999999997,-0.716994,0.568642
1629797530183,-0.317261,-0.717116,0.576267
1629797530193,-0.318725,-0.7137,0.588589
1629797530203,-0.319396,-0.705892,0.599447
1629797530212,-0.318725,-0.694363,0.606828
1629797530222,-0.323788,-0.6849689999999999,0.6134769999999999
1629797530231,-0.328302,-0.677588,0.618296
1629797530241,-0.33183999999999997,-0.668377,0.622566
1629797530251,-0.333548,-0.657397,0.634278
1629797530260,-0.338672,-0.651968,0.6417809999999999
1629797530270,-0.341966,-0.64782,0.647271
1629797530279,-0.34599199999999997,-0.6411709999999999,0.65148
1629797530289,-0.347822,-0.631655,0.6557499999999999
1629797530299,-0.351726,-0.6211019999999999,0.6578849999999999
1629797530308,-0.35563,-0.61793,0.659166
1629797530318,-0.357155,-0.6162219999999999,0.665266
1629797530327,-0.35868,-0.609878,0.670512
1629797530337,-0.361364,-0.597617,0.677954
1629797530347,-0.362706,-0.585722,0.683383
1629797530356,-0.365817,-0.575596,0.6874089999999999
1629797530366,-0.367342,-0.5673,0.69235
1629797530375,-0.36783,-0.554856,0.696681
1629797530385,-0.368867,-0.5419849999999999,0.698511
1629797530395,-0.370514,-0.531188,0.699731
1629797530404,-0.370453,-0.524173,0.702537
1629797530414,-0.3721,-0.519598,0.704489
1629797530423,-0.372405,-0.516975,0.7071729999999999
1629797530433,-0.373503,-0.516182,0.7090029999999999
1629797530443,-0.372893,-0.51423,0.709369
1629797530452,-0.371673,-0.512644,0.706075
1629797530462,-0.371002,-0.5152059999999999,0.702781
1629797530471,-0.36972099999999997,-0.519964,0.69967
1629797530481,-0.368135,-0.528687,0.697718
1629797530491,-0.36661,-0.536068,0.696864
1629797530500,-0.364353,-0.5404599999999999,0.695888
1629797530510,-0.361669,-0.5441199999999999,0.691252
1629797530519,-0.359412,-0.549366,0.682285
1629797530529,-0.358436,-0.5626639999999999,0.674782
1629797530539,-0.357155,-0.577182,0.670207
1629797530548,-0.354166,-0.5882229999999999,0.661057
1629797530558,-0.353251,-0.599752,0.652395
1629797530567,-0.351848,-0.614453,0.64782
1629797530577,-0.349957,-0.625677,0.643489
1629797530587,-0.346968,-0.63501,0.6338509999999999
1629797530596,-0.342698,-0.645319,0.62586
1629797530606,-0.334951,-0.648796,0.619211
1629797530615,-0.33092499999999997,-0.650382,0.61183
1629797530625,-0.33061999999999997,-0.661972,0.606645
1629797530635,-0.330803,-0.680943,0.601338
1629797530644,-0.328546,-0.702049,0.5931029999999999
1629797530654,-0.327204,-0.719739,0.583648
1629797530663,-0.325618,-0.733464,0.578951
1629797530673,-0.325069,-0.746945,0.576328
1629797530683,-0.327753,-0.756949,0.579378
1629797530692,-0.325191,-0.759694,0.585051
1629797530702,-0.33397499999999997,-0.764574,0.585234
1629797530711,-0.337696,-0.766892,0.5839529999999999
1629797530721,-0.337025,-0.763537,0.575352
1629797530731,-0.336903,-0.7585959999999999,0.5669339999999999
1629797530740,-0.336964,-0.7567659999999999,0.562542
1629797530750,-0.335317,-0.751947,0.55632
1629797530759,-0.334768,-0.745908,0.55388
1629797530769,-0.331657,-0.743285,0.5551
1629797530779,-0.329766,-0.747433,0.55205
1629797530788,-0.328424,-0.754448,0.551257
1629797530798,-0.328546,-0.763354,0.549061
1629797530807,-0.327936,-0.771406,0.5447299999999999
1629797530817,-0.326228,-0.777262,0.539911
1629797530827,-0.325618,-0.780678,0.533811
1629797530836,-0.323727,-0.779153,0.526552
1629797530846,-0.32256799999999997,-0.777994,0.526674
1629797530855,-0.324581,-0.7783599999999999,0.536678
1629797530865,-0.33031499999999997,-0.7804949999999999,0.549244
1629797530875,-0.332023,-0.778421,0.557723
1629797530884,-0.336415,-0.777384,0.556747
1629797530894,-0.341905,-0.779763,0.561078
1629797530903,-0.345199,-0.779031,0.5681539999999999
1629797530913,-0.34709,-0.775676,0.572851
1629797530923,-0.349652,-0.772199,0.57645
1629797530932,-0.352336,-0.768051,0.583648
1629797530942,-0.353251,-0.761463,0.582611
1629797530951,-0.356606,-0.7540209999999999,0.583526
1629797530961,-0.357948,-0.742858,0.586881
1629797530971,-0.358802,-0.7290719999999999,0.587064
1629797530980,-0.35800899999999997,-0.719373,0.587979
1629797530990,-0.356606,-0.708332,0.58926
1629797530999,-0.35746,-0.695522,0.590541
1629797531009,-0.353922,-0.680028,0.591822
1629797531019,-0.350689,-0.661972,0.59048
1629797531028,-0.349896,-0.643184,0.5937129999999999
1629797531038,-0.351116,-0.630252,0.594811
1629797531047,-0.351787,-0.621895,0.596214
1629797531057,-0.351177,-0.613843,0.599691
1629797531067,-0.35251899999999997,-0.604998,0.59902
1629797531076,-0.353251,-0.599386,0.60146
1629797531086,-0.355386,-0.595604,0.604876
1629797531095,-0.35831399999999997,-0.593896,0.609085
1629797531105,-0.358863,-0.593591,0.613355
1629797531115,-0.3599,-0.591639,0.615368
1629797531124,-0.360937,-0.591639,0.614941
1629797531134,-0.361486,-0.594994,0.6137819999999999
1629797531143,-0.359839,-0.597129,0.612989
1629797531153,-0.35892399999999997,-0.597861,0.6143919999999999
1629797531163,-0.358741,-0.603168,0.6137819999999999
1629797531172,-0.358985,-0.611525,0.6140869999999999
1629797531182,-0.360266,-0.623847,0.6159169999999999
1629797531191,-0.359717,-0.63562,0.612074
1629797531201,-0.358985,-0.64538,0.605547
1629797531211,-0.357643,-0.655262,0.599264
1629797531220,-0.355081,-0.668316,0.591944
1629797531230,-0.351665,-0.684115,0.582367
1629797531239,-0.350811,-0.695034,0.575047
1629797531249,-0.349652,-0.7047329999999999,0.5712039999999999
1629797531259,-0.348249,-0.714676,0.5663239999999999
1629797531268,-0.350018,-0.721264,0.558882
1629797531278,-0.349713,-0.742309,0.548146
1629797531287,-0.349347,-0.752557,0.541558
1629797531297,-0.348737,-0.760182,0.530151
1629797531307,-0.34831,-0.766404,0.520635
1629797531316,-0.347883,-0.77043,0.514962
1629797531326,-0.347456,-0.7765299999999999,0.51057
1629797531335,-0.34587,-0.783118,0.50813
1629797531345,-0.345138,-0.789767,0.503433
1629797531355,-0.345199,-0.79361,0.500078
1629797531364,-0.345626,-0.794769,0.49550299999999997
1629797531374,-0.346236,-0.791658,0.492209
1629797531383,-0.348981,-0.7884249999999999,0.489769
1629797531393,-0.34953,-0.785314,0.48470599999999997
1629797531403,-0.352031,-0.787632,0.48129
1629797531412,-0.35404399999999997,-0.790926,0.480375
1629797531422,-0.35678899999999997,-0.79483,0.481107
1629797531431,-0.360693,-0.79422,0.484279
1629797531441,-0.363194,-0.793183,0.487085
1629797531451,-0.363499,-0.791841,0.489525
1629797531460,-0.36417,-0.790621,0.493063
1629797531470,-0.36484099999999997,-0.787266,0.49324599999999996
1629797531479,-0.36636599999999997,-0.7832399999999999,0.49166
1629797531489,-0.371734,-0.783606,0.490013
1629797531499,-0.376797,-0.790316,0.493734
1629797531508,-0.38003,-0.796355,0.497821
1629797531518,-0.380701,-0.796965,0.5063
1629797531527,-0.38173799999999997,-0.792329,0.5149009999999999
1629797531537,-0.380579,-0.782264,0.517158
1629797531547,-0.380457,-0.772687,0.521428
1629797531556,-0.379237,-0.762378,0.521184
1629797531566,-0.379054,-0.750849,0.523014
1629797531575,-0.380945,-0.741943,0.528138
1629797531585,-0.38125,-0.735355,0.531859
1629797531595,-0.384239,-0.7281569999999999,0.537166
1629797531604,-0.386618,-0.72102,0.5401549999999999
1629797531614,-0.389363,-0.7169329999999999,0.543022
1629797531623,-0.39100999999999997,-0.7137,0.547841
1629797531633,-0.39314499999999997,-0.71248,0.553026
1629797531643,-0.393999,-0.7074779999999999,0.556015
1629797531652,-0.39772,-0.699182,0.556076
1629797531662,-0.40199,-0.6954,0.558577
1629797531671,-0.403271,-0.693875,0.565043
1629797531681,-0.404491,-0.6919839999999999,0.569191
1629797531691,-0.410042,-0.6889339999999999,0.5734
1629797531700,-0.413763,-0.689178,0.5734
1629797531710,-0.415837,-0.691557,0.573339
1629797531719,-0.416752,-0.691435,0.578158
1629797531729,-0.418033,-0.690215,0.586454
1629797531739,-0.41809399999999997,-0.681736,0.590297
1629797531748,-0.419131,-0.668194,0.5937129999999999
1629797531758,-0.420351,-0.658983,0.598776
1629797531767,-0.421998,-0.653188,0.600728
1629797531777,-0.424438,-0.648552,0.60329
1629797531787,-0.42431599999999997,-0.645014,0.60939
1629797531796,-0.423218,-0.641232,0.619455
1629797531806,-0.421083,-0.634644,0.626958
1629797531815,-0.417606,-0.629825,0.6369009999999999
1629797531825,-0.414007,-0.625799,0.6436109999999999
1629797531835,-0.411506,-0.615856,0.648674
1629797531844,-0.40992,-0.607499,0.651724
1629797531854,-0.406626,-0.60146,0.6560549999999999
1629797531863,-0.403576,-0.598715,0.662216
1629797531873,-0.400038,-0.597678,0.672464
1629797531883,-0.396683,-0.597678,0.678503
1629797531892,-0.393328,-0.595726,0.6816139999999999
1629797531902,-0.392779,-0.5915779999999999,0.685945
1629797531911,-0.389241,-0.5856,0.6831389999999999
1629797531921,-0.387777,-0.580537,0.682285
1629797531931,-0.38765499999999997,-0.575901,0.684542
1629797531940,-0.387228,-0.570228,0.6822239999999999
1629797531950,-0.388326,-0.56547,0.684298
1629797531959,-0.387289,-0.560895,0.687592
1629797531969,-0.387411,-0.557845,0.69418
1629797531979,-0.383934,-0.554856,0.699121
1629797531988,-0.380701,-0.547841,0.70211
1629797531998,-0.37759,-0.5386299999999999,0.709186
1629797532007,-0.375882,-0.530944,0.718214
1629797532017,-0.376492,-0.525637,0.719434
1629797532027,-0.377956,-0.521489,0.720837
1629797532036,-0.377224,-0.520452,0.721508
1629797532046,-0.374845,-0.5191709999999999,0.72285
1629797532055,-0.370697,-0.51789,0.722606
1629797532065,-0.370087,-0.51484,0.723094
1629797532075,-0.36941599999999997,-0.510326,0.727181
1629797532084,-0.364475,-0.50691,0.731329
1629797532094,-0.360083,-0.50447,0.737429
1629797532103,-0.35343399999999997,-0.500749,0.739869
1629797532113,-0.348737,-0.495442,0.742309
1629797532123,-0.345626,-0.488,0.749202
1629797532132,-0.34202699999999997,-0.48287599999999997,0.751642
1629797532142,-0.338245,-0.47817899999999997,0.74847
1629797532151,-0.334768,-0.47214,0.750361
1629797532161,-0.331047,-0.469822,0.75457
1629797532171,-0.329522,-0.469822,0.756095
1629797532180,-0.327265,-0.47177399999999997,0.760975
1629797532190,-0.32635,-0.477447,0.767075
1629797532199,-0.324032,-0.481473,0.768417
1629797532209,-0.319091,-0.486048,0.76738
1629797532219,-0.31415,-0.487268,0.764818
1629797532228,-0.309209,-0.489464,0.764269
1629797532238,-0.302804,-0.48745099999999997,0.761402
1629797532247,-0.299022,-0.489708,0.759084
1629797532257,-0.29548399999999997,-0.494954,0.7671359999999999
1629797532267,-0.292678,-0.5002,0.7753099999999999
1629797532276,-0.289445,-0.508008,0.7795799999999999
1629797532286,-0.286578,-0.515999,0.779214
1629797532295,-0.280905,-0.522709,0.778177
1629797532305,-0.277062,-0.529968,0.7746999999999999
1629797532315,-0.27144999999999997,-0.536861,0.772626
1629797532324,-0.267424,-0.541314,0.771528
1629797532334,-0.263215,-0.5422899999999999,0.772138
1629797532343,-0.262849,-0.543388,0.771955
1629797532353,-0.260104,-0.545706,0.769454
1629797532363,-0.25864,-0.550159,0.76677
1629797532372,-0.255834,-0.553331,0.7653059999999999
1629797532382,-0.252906,-0.555405,0.762134
1629797532391,-0.250649,-0.557479,0.761829
1629797532401,-0.249856,-0.562847,0.762378
1629797532411,-0.24827,-0.569618,0.765489
1629797532420,-0.241621,-0.573766,0.764818
1629797532430,-0.241377,-0.57584,0.760853
1629797532439,-0.246379,-0.5724239999999999,0.756583
1629797532449,-0.230397,-0.574254,0.755485
1629797532459,-0.22972599999999999,-0.572607,0.749385
1629797532468,-0.234484,-0.573705,0.743712
1629797532478,-0.23832699999999998,-0.569435,0.743041
1629797532487,-0.226066,-0.57096,0.74176
1629797532497,-0.22265,-0.573278,0.73993
1629797532507,-0.228506,-0.581269,0.74359
1629797532516,-0.22783499999999998,-0.584014,0.749446
1629797532526,-0.224968,-0.580842,0.749141
1629797532535,-0.21276799999999998,-0.585112,0.749263
1629797532545,-0.20496,-0.585417,0.748775
1629797532555,-0.20197099999999998,-0.588345,0.744017
1629797532564,-0.19983599999999999,-0.591761,0.736819
1629797532574,-0.198677,-0.59231,0.731756
1629797532583,-0.19983599999999999,-0.598898,0.733464
1629797532593,-0.198738,-0.611098,0.736148
1629797532603,-0.194346,-0.624213,0.732854
1629797532612,-0.189283,-0.625067,0.732183
1629797532622,-0.18318299999999998,-0.6180519999999999,0.737978
1629797532631,-0.17610699999999999,-0.61244,0.744566
1629797532641,-0.167384,-0.609268,0.748958
1629797532651,-0.163663,-0.606767,0.751459
1629797532660,-0.16165,-0.607072,0.753167
1629797532670,-0.15982,-0.61,0.746396
1629797532679,-0.159332,-0.614575,0.743346
1629797532689,-0.15945399999999998,-0.618723,0.74115
1629797532699,-0.157502,-0.618784,0.738039
1629797532708,-0.15494,-0.618906,0.734501
1629797532718,-0.153415,-0.621346,0.7324269999999999
1629797532727,-0.149816,-0.62464,0.7348669999999999
1629797532737,-0.14457,-0.628971,0.735843
1629797532747,-0.139751,-0.632814,0.734623
1629797532756,-0.135298,-0.637938,0.733464
1629797532766,-0.132736,-0.639219,0.728523
1629797532775,-0.130601,-0.636413,0.725107
1629797532785,-0.130601,-0.632692,0.724009
1629797532795,-0.127917,-0.6338509999999999,0.726083
1629797532804,-0.126209,-0.637145,0.728828
1629797532814,-0.12383,-0.638609,0.732488
1629797532823,-0.120658,-0.641659,0.735843
1629797532833,-0.115046,-0.63928,0.739259
1629797532843,-0.11468,-0.6378159999999999,0.741211
1629797532852,-0.112362,-0.63379,0.74054
1629797532862,-0.109556,-0.630679,0.738039
1629797532871,-0.108031,-0.630984,0.735965
1629797532881,-0.105225,-0.629886,0.736453
1629797532891,-0.103578,-0.626592,0.731756
1629797532900,-0.101992,-0.622444,0.726998
1629797532910,-0.101931,-0.620248,0.726693
1629797532919,-0.101931,-0.620004,0.7278519999999999
1629797532929,-0.101626,-0.620248,0.730414
1629797532939,-0.101931,-0.622078,0.730719
1629797532948,-0.099735,-0.625128,0.731268
1629797532958,-0.098576,-0.628361,0.734196
1629797532967,-0.095709,-0.633729,0.734501
1629797532977,-0.095221,-0.636962,0.734318
1629797532987,-0.092781,-0.6420859999999999,0.737246
1629797532996,-0.093452,-0.646661,0.739686
1629797533006,-0.092293,-0.65087,0.737429
1629797533015,-0.090524,-0.652151,0.736758
1629797533025,-0.090524,-0.650504,0.733525
1629797533035,-0.091683,-0.647637,0.729804
1629797533044,-0.092598,-0.646661,0.726754
1629797533054,-0.093574,-0.648613,0.725168
1629797533063,-0.093696,-0.651907,0.7275469999999999
1629797533073,-0.09272,-0.65514,0.729743
1629797533083,-0.092476,-0.6569699999999999,0.7357819999999999
1629797533092,-0.09528199999999999,-0.661728,0.734745
1629797533102,-0.090707,-0.6609349999999999,0.731878
1629797533111,-0.092415,-0.661606,0.734745
1629797533121,-0.093879,-0.664778,0.735599
1629797533131,-0.095038,-0.668926,0.735843
1629797533140,-0.096502,-0.674843,0.7370019999999999
1629797533150,-0.09881999999999999,-0.675453,0.7360869999999999
1629797533159,-0.100162,-0.675392,0.7302919999999999
1629797533169,-0.10174799999999999,-0.674111,0.721508
1629797533179,-0.10467599999999999,-0.671549,0.715347
1629797533188,-0.108824,-0.672281,0.717116
1629797533198,-0.10992199999999999,-0.673074,0.719739
1629797533207,-0.11193499999999999,-0.676551,0.721264
1629797533217,-0.112911,-0.678747,0.721447
1629797533227,-0.113704,-0.680211,0.720776
1629797533236,-0.114619,-0.6803939999999999,0.720471
1629797533246,-0.11608299999999999,-0.680211,0.720227
1629797533255,-0.11730299999999999,-0.679235,0.719678
1629797533265,-0.117486,-0.677527,0.7163229999999999
1629797533275,-0.11895,-0.676246,0.713334
1629797533284,-0.11931599999999999,-0.672891,0.711809
1629797533294,-0.121451,-0.669292,0.7077829999999999
1629797533303,-0.122366,-0.6658149999999999,0.70394
1629797533313,-0.12254899999999999,-0.663253,0.702598
1629797533323,-0.125355,-0.661789,0.70394
1629797533332,-0.128527,-0.659166,0.7053429999999999
1629797533342,-0.130418,-0.6575799999999999,0.701195
1629797533351,-0.133041,-0.6569699999999999,0.700158
1629797533361,-0.134871,-0.656116,0.70333
1629797533371,-0.136457,-0.657824,0.7050379999999999
1629797533380,-0.13633499999999998,-0.6597149999999999,0.706136
1629797533390,-0.137616,-0.660203,0.706746
1629797533399,-0.138592,-0.662948,0.70638
1629797533409,-0.139263,-0.664656,0.704001
1629797533419,-0.140544,-0.668438,0.703574
1629797533428,-0.14158099999999998,-0.670817,0.701988
1629797533438,-0.14097099999999999,-0.673562,0.701988
1629797533447,-0.142374,-0.674172,0.700219
1629797533457,-0.144265,-0.676368,0.698755
1629797533467,-0.145058,-0.677588,0.698694
1629797533476,-0.14713199999999999,-0.678564,0.697291
1629797533486,-0.149145,-0.67832,0.6935089999999999
1629797533495,-0.149938,-0.679113,0.6932039999999999
1629797533505,-0.151463,-0.681126,0.6919839999999999
1629797533515,-0.152561,-0.682956,0.689422
1629797533524,-0.15481799999999998,-0.683627,0.687165
1629797533534,-0.15677,-0.6846639999999999,0.6877139999999999
1629797533543,-0.158966,-0.685762,0.686921
1629797533553,-0.160918,-0.6852739999999999,0.687043
1629797533563,-0.161894,-0.684908,0.689361
1629797533572,-0.16348,-0.68564,0.6880189999999999
1629797533582,-0.163175,-0.6858839999999999,0.686311
1629797533591,-0.164212,-0.6846639999999999,0.6855789999999999
1629797533601,-0.164334,-0.682468,0.685335
1629797533611,-0.164578,-0.679601,0.682041
1629797533620,-0.164517,-0.680333,0.679906
1629797533630,-0.164578,-0.6840539999999999,0.675636
1629797533639,-0.16530999999999998,-0.6877139999999999,0.670634
1629797533649,-0.165798,-0.69479,0.663314
1629797533659,-0.165371,-0.702232,0.6594099999999999
1629797533668,-0.165249,-0.708942,0.655262
1629797533678,-0.164578,-0.713761,0.652395
1629797533687,-0.161162,-0.71736,0.64965
1629797533697,-0.156831,-0.720654,0.63989
1629797533707,-0.150365,-0.723338,0.633485
1629797533716,-0.14621699999999999,-0.726144,0.629093
1629797533726,-0.141703,-0.730536,0.628483
1629797533735,-0.137555,-0.7305969999999999,0.624884
1629797533745,-0.133895,-0.732488,0.618601
1629797533755,-0.132919,-0.740418,0.615856
1629797533764,-0.132126,-0.748592,0.6143919999999999
1629797533774,-0.133163,-0.754448,0.612501
1629797533783,-0.135176,-0.755302,0.6104269999999999
1629797533793,-0.137433,-0.74603,0.61122
1629797533803,-0.140178,-0.731329,0.612745
1629797533812,-0.142008,-0.719251,0.617991
1629797533822,-0.146705,-0.713761,0.627507
1629797533831,-0.150914,-0.7198,0.635132
1629797533841,-0.15451299999999998,-0.7299869999999999,0.640012
1629797533851,-0.15823399999999999,-0.74054,0.642635
1629797533860,-0.162138,-0.748958,0.642452
1629797533870,-0.165066,-0.7552409999999999,0.639707
1629797533879,-0.165737,-0.760853,0.634705
1629797533889,-0.167323,-0.76494,0.629337
1629797533899,-0.168543,-0.766587,0.62464
1629797533908,-0.167628,-0.767014,0.6198819999999999
1629797533918,-0.166408,-0.766282,0.616161
1629797533927,-0.16622499999999998,-0.7637809999999999,0.612501
1629797533937,-0.165127,-0.760243,0.609878
1629797533947,-0.163846,-0.756705,0.607926
1629797533956,-0.16408999999999999,-0.75396,0.606462
1629797533966,-0.164151,-0.752923,0.605486
1629797533975,-0.163053,-0.752313,0.606523
1629797533985,-0.163663,-0.752435,0.605181
1629797533995,-0.163358,-0.752984,0.604937
1629797534004,-0.164151,-0.753167,0.603534
1629797534014,-0.163846,-0.7524959999999999,0.603412
1629797534023,-0.162687,-0.752069,0.602436
1629797534033,-0.160308,-0.750788,0.602375
1629797534043,-0.158722,-0.752374,0.602131
1629797534052,-0.156404,-0.754448,0.601582
1629797534062,-0.15420799999999998,-0.756339,0.601216
1629797534071,-0.15298799999999999,-0.756705,0.600179
1629797534081,-0.15329299999999998,-0.756522,0.598959
1629797534091,-0.152439,-0.753228,0.599874
1629797534100,-0.150853,-0.749324,0.599935
1629797534110,-0.149511,-0.748043,0.600423
1629797534119,-0.149145,-0.748653,0.603229
1629797534129,-0.14865699999999998,-0.751764,0.603961
1629797534139,-0.147681,-0.751764,0.604998
1629797534148,-0.146034,-0.7540209999999999,0.605608
1629797534158,-0.146278,-0.757437,0.604449
1629797534167,-0.144753,-0.760914,0.604083
1629797534177,-0.14396,-0.7619509999999999,0.604876
1629797534187,-0.142618,-0.762134,0.605974
1629797534196,-0.139751,-0.762012,0.607194
1629797534206,-0.138043,-0.763964,0.607194
1629797534215,-0.135603,-0.763659,0.609024
1629797534225,-0.134444,-0.7634759999999999,0.608841
1629797534235,-0.134627,-0.762012,0.609268
1629797534244,-0.134322,-0.759389,0.60939
1629797534254,-0.135786,-0.756827,0.609756
1629797534263,-0.136823,-0.7552409999999999,0.6119519999999999
1629797534273,-0.13663999999999998,-0.752679,0.6131719999999999
1629797534283,-0.136457,-0.7503,0.6140869999999999
1629797534292,-0.136823,-0.749629,0.615063
1629797534302,-0.135176,-0.747128,0.615368
1629797534311,-0.135054,-0.745054,0.616344
1629797534321,-0.133956,-0.743895,0.6168319999999999
1629797534331,-0.132919,-0.7442,0.6168319999999999
1629797534340,-0.132492,-0.745359,0.615063
1629797534350,-0.130296,-0.7442,0.615063
1629797534359,-0.130235,-0.744871,0.6150019999999999
1629797534369,-0.129808,-0.745969,0.6150019999999999
1629797534379,-0.130418,-0.746152,0.613416
1629797534388,-0.12993,-0.746518,0.612684
1629797534398,-0.12925899999999999,-0.749263,0.6146969999999999
1629797534407,-0.128771,-0.750727,0.61488
1629797534417,-0.127917,-0.752313,0.615429
1629797534427,-0.127307,-0.7534109999999999,0.614331
1629797534436,-0.12749,-0.7521909999999999,0.6125619999999999
1629797534446,-0.127124,-0.751764,0.613416
1629797534455,-0.126209,-0.749995,0.613294
1629797534465,-0.125294,-0.749568,0.613599
1629797534475,-0.123464,-0.7512759999999999,0.6122569999999999
1629797534484,-0.122061,-0.7524959999999999,0.609756
1629797534494,-0.121756,-0.755119,0.60817
1629797534503,-0.122061,-0.756339,0.60756
1629797534513,-0.12193899999999999,-0.758779,0.608658
1629797534523,-0.123281,-0.759755,0.609024
1629797534532,-0.123403,-0.761463,0.609329
1629797534542,-0.123037,-0.761768,0.6095119999999999
1629797534551,-0.123403,-0.761158,0.6082919999999999
1629797534561,-0.124379,-0.760487,0.6085969999999999
1629797534571,-0.12456199999999999,-0.760548,0.607072
1629797534580,-0.124989,-0.760975,0.605547
1629797534590,-0.12444,-0.761707,0.605303
1629797534599,-0.125538,-0.7595109999999999,0.606462
1629797534609,-0.12566,-0.758413,0.606889
1629797534619,-0.125111,-0.756034,0.606889
1629797534628,-0.12566,-0.755302,0.607926
1629797534638,-0.124806,-0.75335,0.609085
1629797534647,-0.12505,-0.7506659999999999,0.607438
1629797534657,-0.125294,-0.74908,0.607438
1629797534667,-0.126514,-0.74908,0.607438
1629797534676,-0.128588,-0.749812,0.6089019999999999
1629797534686,-0.12925899999999999,-0.752252,0.609939
1629797534695,-0.128466,-0.755363,0.610976
1629797534705,-0.12925899999999999,-0.757498,0.610793
1629797534715,-0.129198,-0.759267,0.610854
1629797534724,-0.12871,-0.759328,0.610549
1629797534734,-0.127185,-0.7598159999999999,0.609939
1629797534743,-0.126697,-0.759084,0.609573
1629797534753,-0.126575,-0.757925,0.609695
1629797534763,-0.124684,-0.7564609999999999,0.610488
1629797534772,-0.124684,-0.756339,0.6095119999999999
1629797534782,-0.124745,-0.756583,0.60939
1629797534791,-0.124928,-0.757864,0.60939
1629797534801,-0.125294,-0.759328,0.609085
1629797534811,-0.125294,-0.759084,0.61
1629797534820,-0.12444,-0.7616459999999999,0.609024
1629797534830,-0.123891,-0.7625,0.607438
1629797534839,-0.122671,-0.764452,0.606767
1629797534849,-0.122366,-0.764818,0.60573
1629797534859,-0.121268,-0.765184,0.604266
1629797534868,-0.120414,-0.764635,0.603412
1629797534878,-0.11931599999999999,-0.76311,0.601948
1629797534887,-0.118767,-0.7625609999999999,0.602375
1629797534897,-0.11895,-0.760548,0.605791
1629797534907,-0.118523,-0.759755,0.606157
1629797534916,-0.117852,-0.759328,0.605242
1629797534926,-0.118584,-0.758169,0.605913
1629797534935,-0.118035,-0.758657,0.604449
1629797534945,-0.117547,-0.757742,0.603473
1629797534955,-0.11712,-0.757254,0.605181
1629797534964,-0.117608,-0.755363,0.608109
1629797534974,-0.116571,-0.751825,0.6104269999999999
1629797534983,-0.11529,-0.748714,0.609146
1629797534993,-0.11577799999999999,-0.747982,0.610183
1629797535003,-0.116022,-0.750849,0.609695
1629797535012,-0.116205,-0.755363,0.608841
1629797535022,-0.116571,-0.758108,0.608963
1629797535031,-0.116815,-0.759755,0.610183
1629797535041,-0.115717,-0.7616459999999999,0.610549
1629797535051,-0.11468,-0.7625,0.610549
1629797535060,-0.115229,-0.761463,0.609756
1629797535070,-0.114985,-0.7613409999999999,0.609085
1629797535079,-0.113826,-0.7640859999999999,0.607438
1629797535089,-0.113643,-0.765367,0.604876
1629797535099,-0.114802,-0.765855,0.605852
1629797535108,-0.114497,-0.766343,0.604266
1629797535118,-0.11345999999999999,-0.766282,0.603778
1629797535127,-0.115046,-0.766038,0.604083
1629797535137,-0.11529,-0.765062,0.604754
1629797535147,-0.11529,-0.764818,0.604449
1629797535156,-0.11577799999999999,-0.764513,0.604144
1629797535166,-0.115656,-0.76433,0.605181
1629797535175,-0.115046,-0.762988,0.604632
1629797535185,-0.11529,-0.761707,0.604876
1629797535195,-0.115595,-0.75884,0.605791
1629797535204,-0.11651,-0.7564609999999999,0.607316
1629797535214,-0.118218,-0.756705,0.609329
1629797535223,-0.118035,-0.757254,0.611586
1629797535233,-0.118828,-0.757498,0.615185
1629797535243,-0.118767,-0.753838,0.621285
1629797535252,-0.117181,-0.748592,0.626531
1629797535262,-0.11486299999999999,-0.749202,0.627812
1629797535271,-0.110959,-0.7524959999999999,0.624152
1629797535281,-0.108946,-0.7549359999999999,0.623176
1629797535291,-0.108092,-0.7555459999999999,0.616771
1629797535300,-0.107482,-0.7561559999999999,0.607926
1629797535310,-0.108031,-0.76006,0.605486
1629797535319,-0.10790899999999999,-0.763903,0.605059
1629797535329,-0.10797,-0.766709,0.60329
1629797535339,-0.10675,-0.76677,0.603046
1629797535348,-0.10668899999999999,-0.767502,0.6039
1629797535358,-0.105835,-0.76982,0.601704
1629797535367,-0.106567,-0.774151,0.601033
1629797535377,-0.1098,-0.781044,0.605242
1629797535387,-0.110959,-0.790499,0.606523
1629797535396,-0.110471,-0.795928,0.607377
1629797535406,-0.108763,-0.799161,0.61
1629797535415,-0.10736,-0.799161,0.615124
1629797535425,-0.10498099999999999,-0.795379,0.614148
1629797535435,-0.100101,-0.788669,0.610244
1629797535444,-0.096685,-0.782691,0.608658
1629797535454,-0.096258,-0.782508,0.609085
1629797535463,-0.09436699999999999,-0.784887,0.607377
1629797535473,-0.092476,-0.789584,0.609024
1629797535483,-0.093696,-0.796843,0.615185
1629797535492,-0.092232,-0.803492,0.6189669999999999
1629797535502,-0.090402,-0.81069,0.618174
1629797535511,-0.084851,-0.811666,0.611098
1629797535521,-0.084424,-0.808555,0.601155
1629797535531,-0.087047,-0.804468,0.595909
1629797535540,-0.089548,-0.800442,0.596702
1629797535550,-0.093452,-0.798002,0.603534
1629797535559,-0.099369,-0.794098,0.6128669999999999
1629797535569,-0.103517,-0.794342,0.620614
1629797535579,-0.107421,-0.796782,0.627873
1629797535588,-0.111386,-0.796111,0.630618
1629797535598,-0.11376499999999999,-0.792268,0.627934
1629797535607,-0.11870599999999999,-0.787022,0.624579
1629797535617,-0.125477,-0.774151,0.621224
1629797535627,-0.131333,-0.758718,0.617686
1629797535636,-0.139934,-0.744749,0.623054
1629797535646,-0.14774199999999998,-0.735904,0.6335459999999999
1629797535655,-0.154269,-0.729133,0.645563
1629797535665,-0.162138,-0.7117479999999999,0.6554449999999999
1629797535675,-0.168421,-0.698145,0.657214
1629797535684,-0.173728,-0.685945,0.659593
1629797535694,-0.181597,-0.668438,0.656604
1629797535703,-0.192699,-0.649406,0.65209
1629797535713,-0.203069,-0.635254,0.652639
1629797535723,-0.214537,-0.629886,0.652517
1629797535732,-0.225273,-0.634888,0.648796
1629797535742,-0.23558199999999999,-0.644343,0.645075
1629797535751,-0.245769,-0.655628,0.6390359999999999
1629797535761,-0.25193,-0.665083,0.628666
1629797535771,-0.256078,-0.67039,0.625372
1629797535780,-0.261019,-0.674294,0.628056
1629797535790,-0.263093,-0.676856,0.634888
1629797535799,-0.265655,-0.676612,0.6390359999999999
1629797535809,-0.26779,-0.674538,0.639463
1629797535819,-0.27114499999999997,-0.672464,0.643489
1629797535828,-0.272182,-0.6603249999999999,0.643672
1629797535838,-0.274988,-0.653371,0.650382
1629797535847,-0.27694,-0.653432,0.657519
1629797535857,-0.275781,-0.663253,0.661423
1629797535867,-0.276757,-0.67771,0.665144
1629797535876,-0.279014,-0.692716,0.6670349999999999
1629797535886,-0.278526,-0.70638,0.67039
1629797535895,-0.279685,-0.7154079999999999,0.672403
1629797535905,-0.278953,-0.718275,0.671732
1629797535915,-0.27816,-0.7178479999999999,0.670878
1629797535924,-0.277855,-0.71431,0.669353
1629797535934,-0.27755,-0.709186,0.669048
1629797535943,-0.278404,-0.702049,0.667767
1629797535953,-0.277733,-0.690398,0.664229
1629797535963,-0.278404,-0.678015,0.667462
1629797535972,-0.282186,-0.666303,0.672464
1629797535982,-0.28407699999999997,-0.658068,0.675697
1629797535991,-0.28914,-0.650138,0.67649
1629797536001,-0.295057,-0.640622,0.678808
1629797536011,-0.296277,-0.632265,0.683078
1629797536020,-0.300608,-0.623603,0.68503
1629797536030,-0.302865,-0.611708,0.684481
1629797536039,-0.306769,-0.59597,0.680882
1629797536049,-0.311649,-0.583038,0.678686
1629797536059,-0.315797,-0.572851,0.673562
1629797536068,-0.319396,-0.566446,0.6682549999999999
1629797536078,-0.320982,-0.563518,0.673135
1629797536087,-0.323544,-0.561932,0.684908
1629797536097,-0.32848499999999997,-0.561078,0.694302
1629797536107,-0.328302,-0.558821,0.704489
1629797536116,-0.329888,-0.552599,0.71126
1629797536126,-0.331779,-0.5450349999999999,0.716201
1629797536135,-0.33244999999999997,-0.538813,0.716262
1629797536145,-0.333731,-0.531066,0.71675
1629797536155,-0.337208,-0.523868,0.717482
1629797536164,-0.342454,-0.5179509999999999,0.720715
1629797536174,-0.347334,-0.513132,0.723216
1629797536183,-0.353983,-0.510021,0.724558
1629797536193,-0.35617899999999997,-0.506727,0.726998
1629797536203,-0.357033,-0.505507,0.728706
1629797536212,-0.359961,-0.50508,0.735355
1629797536222,-0.361913,-0.508984,0.742614
1629797536231,-0.363377,-0.512583,0.749568
1629797536241,-0.364597,-0.513498,0.75884
1629797536251,-0.364292,-0.5133759999999999,0.772382
1629797536260,-0.364902,-0.510448,0.784033
1629797536270,-0.361791,-0.506422,0.791597
1629797536279,-0.360327,-0.504531,0.79605
1629797536289,-0.35922899999999997,-0.502701,0.799588
1629797536299,-0.355752,-0.500017,0.799771
1629797536308,-0.35136,-0.49519799999999997,0.79971
1629797536318,-0.346785,-0.489952,0.8014789999999999
1629797536327,-0.343186,-0.485804,0.803126
1629797536337,-0.336049,-0.481595,0.803431
1629797536347,-0.329217,-0.47512899999999997,0.800747
1629797536356,-0.32256799999999997,-0.471347,0.798612
1629797536366,-0.318725,-0.468785,0.799222
1629797536375,-0.31415,-0.466589,0.801662
1629797536385,-0.31024599999999997,-0.465003,0.803797
1629797536395,-0.306647,-0.462746,0.805505
1629797536404,-0.303048,-0.459391,0.81069
1629797536414,-0.299815,-0.455731,0.815936
1629797536423,-0.298168,-0.452071,0.815631
1629797536433,-0.29700899999999997,-0.448411,0.815936
1629797536443,-0.296216,-0.446642,0.81679
1629797536452,-0.295362,-0.442616,0.816912
1629797536462,-0.294752,-0.437919,0.819474
1629797536471,-0.293288,-0.432368,0.819962
1629797536481,-0.292556,-0.428098,0.82228
1629797536491,-0.290848,-0.422791,0.8230729999999999
1629797536500,-0.286944,-0.414678,0.823195
1629797536510,-0.28407699999999997,-0.40485699999999997,0.82106
1629797536519,-0.28072199999999997,-0.398208,0.825025
1629797536529,-0.279258,-0.396927,0.830881
1629797536539,-0.278404,-0.397049,0.8340529999999999
1629797536548,-0.274134,-0.400404,0.836676
1629797536558,-0.270352,-0.401014,0.8407629999999999
1629797536567,-0.265716,-0.398452,0.840397
1629797536577,-0.26095799999999997,-0.393999,0.84119
1629797536587,-0.255834,-0.39100999999999997,0.846924
1629797536596,-0.25132,-0.386984,0.852658
1629797536606,-0.249307,-0.38308,0.857538
1629797536615,-0.24583,-0.380945,0.861015
1629797536625,-0.24265799999999998,-0.380701,0.861625
1629797536635,-0.239974,-0.384849,0.861076
1629797536644,-0.23649699999999999,-0.391376,0.854976
1629797536654,-0.235216,-0.397354,0.848998
1629797536663,-0.235399,-0.40333199999999997,0.843386
1629797536673,-0.234545,-0.409188,0.837042
1629797536683,-0.233325,-0.412665,0.8303929999999999
1629797536692,-0.23186099999999998,-0.414678,0.825147
1629797536702,-0.231312,-0.413946,0.821365
1629797536711,-0.228018,-0.412665,0.821792
1629797536721,-0.225578,-0.41236,0.8270379999999999
1629797536731,-0.225151,-0.414007,0.8319179999999999
1629797536740,-0.226188,-0.41321399999999997,0.833077
1629797536750,-0.226859,-0.416935,0.836615
1629797536759,-0.229848,-0.42456,0.842166
1629797536769,-0.229848,-0.431087,0.84363
1629797536779,-0.230458,-0.437675,0.843752
1629797536788,-0.22936,-0.444019,0.840946
1629797536798,-0.23003099999999999,-0.452742,0.839909
1629797536807,-0.232593,-0.46006199999999997,0.840885
1629797536817,-0.233752,-0.464454,0.8383229999999999
1629797536827,-0.234057,-0.46787,0.83448
1629797536836,-0.234179,-0.470066,0.833016
1629797536846,-0.234484,-0.47238399999999997,0.833504
1629797536855,-0.234911,-0.472567,0.834541
1629797536865,-0.234179,-0.470066,0.832772
1629797536875,-0.234484,-0.470249,0.8361879999999999
1629797536884,-0.235094,-0.471957,0.8377129999999999
1629797536894,-0.23369099999999998,-0.472933,0.839177
1629797536903,-0.231678,-0.471896,0.838994
1629797536913,-0.228872,-0.472628,0.83753
1629797536923,-0.227469,-0.47146899999999997,0.83692
1629797536932,-0.226859,-0.47092,0.838811
1629797536942,-0.226981,-0.469456,0.8398479999999999
1629797536951,-0.227591,-0.46787,0.841251
1629797536961,-0.228994,-0.465674,0.844362
1629797536971,-0.23003099999999999,-0.462258,0.84729
1629797536980,-0.230519,-0.458232,0.849608
1629797536990,-0.230702,-0.452803,0.850584
1629797536999,-0.232959,-0.446032,0.85095
1629797537009,-0.234118,-0.4392,0.853146
1629797537019,-0.23741199999999998,-0.434869,0.852658
1629797537028,-0.24046199999999998,-0.433527,0.8562569999999999
1629797537038,-0.24357299999999998,-0.430965,0.860771
1629797537047,-0.246684,-0.42584099999999997,0.865895
1629797537057,-0.248026,-0.419375,0.870165
1629797537067,-0.251198,-0.414861,0.870653
1629797537076,-0.252723,-0.412177,0.866017
1629797537086,-0.252357,-0.410896,0.861686
1629797537095,-0.251259,-0.41419,0.856623
1629797537105,-0.250039,-0.417972,0.854183
1629797537115,-0.249185,-0.421632,0.852536
1629797537124,-0.247233,-0.425719,0.8535119999999999
1629797537134,-0.246135,-0.428952,0.851255
1629797537143,-0.244976,-0.432856,0.847778
1629797537153,-0.24296299999999998,-0.43785799999999997,0.841434
1629797537163,-0.24156,-0.442799,0.835944
1629797537172,-0.239669,-0.450851,0.834419
1629797537182,-0.237168,-0.457866,0.834785
1629797537191,-0.23369099999999998,-0.463966,0.8325279999999999
1629797537201,-0.22972599999999999,-0.467443,0.827099
1629797537211,-0.226554,-0.469883,0.816912
1629797537220,-0.223626,-0.475007,0.807762
1629797537230,-0.220332,-0.481107,0.800808
1629797537239,-0.218685,-0.487634,0.796172
1629797537249,-0.217465,-0.494954,0.790499
1629797537259,-0.21655,-0.501908,0.785863
1629797537268,-0.21459799999999998,-0.50935,0.779641
1629797537278,-0.212646,-0.517463,0.771894
1629797537287,-0.211426,-0.525942,0.764513
1629797537297,-0.209413,-0.5361899999999999,0.7567659999999999
1629797537307,-0.20862,-0.548634,0.748897
1629797537316,-0.20874199999999998,-0.560407,0.741089
1629797537326,-0.210389,-0.5681539999999999,0.7309019999999999
1629797537335,-0.212402,-0.573949,0.719678
1629797537345,-0.213866,-0.58133,0.709552
1629797537355,-0.215025,-0.589199,0.702659
1629797537364,-0.216916,-0.598227,0.696925
1629797537374,-0.219417,-0.608414,0.691252
1629797537383,-0.219905,-0.6207969999999999,0.684908
1629797537393,-0.222101,-0.633912,0.677161
1629797537403,-0.22417499999999999,-0.647271,0.668133
1629797537412,-0.224846,-0.661484,0.6591049999999999
1629797537422,-0.225944,-0.674538,0.650504
1629797537431,-0.226432,-0.684603,0.643123
1629797537441,-0.227042,-0.693326,0.636962
1629797537451,-0.225822,-0.70333,0.630496
1629797537460,-0.22569999999999998,-0.712724,0.627324
1629797537470,-0.225151,-0.725595,0.621224
1629797537479,-0.222406,-0.747494,0.608536
1629797537489,-0.223931,-0.767319,0.599142
1629797537499,-0.225944,-0.780556,0.589504
1629797537508,-0.22722499999999998,-0.7896449999999999,0.579622
1629797537518,-0.227896,-0.795684,0.569923
1629797537527,-0.229848,-0.802272,0.56364
1629797537537,-0.231678,-0.807213,0.560468
1629797537547,-0.23247099999999998,-0.81008,0.556564
1629797537556,-0.232288,-0.81496,0.554002
1629797537566,-0.232959,-0.818742,0.553392
1629797537575,-0.233203,-0.821609,0.552172
1629797537585,-0.232593,-0.8239879999999999,0.55022
1629797537595,-0.232044,-0.826306,0.55022
1629797537604,-0.231312,-0.825574,0.550647
1629797537614,-0.232105,-0.822097,0.551928
1629797537623,-0.232532,-0.81557,0.55205
1629797537633,-0.232654,-0.811178,0.552172
1629797537643,-0.23277599999999998,-0.808677,0.55266
1629797537652,-0.23247099999999998,-0.8052,0.554368
1629797537662,-0.23064099999999998,-0.8008689999999999,0.556686
1629797537671,-0.228567,-0.798002,0.556564
1629797537681,-0.226188,-0.794586,0.559126
1629797537691,-0.223992,-0.790804,0.560712
1629797537700,-0.221857,-0.7887299999999999,0.561017
1629797537710,-0.218502,-0.788486,0.561383
1629797537719,-0.216184,-0.788791,0.561871
1629797537729,-0.215635,-0.7881199999999999,0.562176
1629797537739,-0.214842,-0.784948,0.563213
1629797537748,-0.21490299999999998,-0.780861,0.568703
1629797537758,-0.21533,-0.778543,0.573949
1629797537767,-0.21411,-0.772504,0.576877
1629797537777,-0.21289,-0.766343,0.578219
1629797537787,-0.211243,-0.760487,0.582428
1629797537796,-0.210633,-0.760487,0.587064
1629797537806,-0.209901,-0.760975,0.5891379999999999
1629797537815,-0.20874199999999998,-0.7610359999999999,0.591456
1629797537825,-0.20874199999999998,-0.760609,0.593164
1629797537835,-0.206546,-0.757864,0.591212
1629797537844,-0.20679,-0.752252,0.592371
1629797537854,-0.20660699999999999,-0.744139,0.597739
1629797537863,-0.20569199999999999,-0.7381,0.606889
1629797537873,-0.205082,-0.731634,0.616039
1629797537883,-0.204045,-0.724863,0.623054
1629797537892,-0.201117,-0.71797,0.630069
1629797537902,-0.198982,-0.713456,0.634827
1629797537911,-0.198128,-0.709369,0.637572
1629797537921,-0.197152,-0.704001,0.63806
1629797537931,-0.197152,-0.696071,0.638304
1629797537940,-0.198616,-0.6867989999999999,0.640378
1629797537950,-0.200934,-0.677405,0.6405609999999999
1629797537959,-0.202154,-0.667889,0.640317
1629797537969,-0.203557,-0.659654,0.6430009999999999
1629797537979,-0.205082,-0.650077,0.647454
1629797537988,-0.204228,-0.642635,0.6554449999999999
1629797537998,-0.205387,-0.6369009999999999,0.6636799999999999
1629797538007,-0.20721699999999998,-0.63074,0.668072
1629797538017,-0.209901,-0.623908,0.671061
1629797538027,-0.213866,-0.620675,0.673196
1629797538036,-0.21801399999999999,-0.61671,0.674782
1629797538046,-0.221796,-0.615734,0.6800889999999999
1629797538055,-0.225761,-0.61427,0.6832
1629797538065,-0.229482,-0.611586,0.6832
1629797538075,-0.235521,-0.607804,0.67222
1629797538084,-0.242109,-0.606706,0.6612399999999999
1629797538094,-0.248453,-0.608414,0.654713
1629797538103,-0.254126,-0.611891,0.655689
1629797538113,-0.26187299999999997,-0.614026,0.652822
1629797538123,-0.27053499999999997,-0.617198,0.646844
1629797538132,-0.279136,-0.619394,0.641415
1629797538142,-0.288408,-0.618845,0.635132
1629797538151,-0.298839,-0.616771,0.627446
1629797538161,-0.308538,-0.61732,0.621468
1629797538171,-0.323849,-0.623786,0.6156119999999999
1629797538180,-0.335683,-0.634339,0.605791
1629797538190,-0.347151,-0.650931,0.5952379999999999
1629797538199,-0.35685,-0.667157,0.58255
1629797538209,-0.367708,-0.681736,0.571631
1629797538219,-0.377834,-0.695888,0.5672389999999999
1629797538228,-0.387838,-0.7065629999999999,0.568276
1629797538238,-0.396012,-0.712114,0.571753
1629797538247,-0.406443,-0.715164,0.577304
1629797538257,-0.417728,-0.7163229999999999,0.582245
1629797538267,-0.42889099999999997,-0.715774,0.577243
1629797538276,-0.439932,-0.717177,0.5663239999999999
1629797538286,-0.450668,-0.72041,0.555771
1629797538295,-0.460611,-0.724558,0.547658
1629797538305,-0.466406,-0.727913,0.539972
1629797538315,-0.47092,-0.72956,0.539179
1629797538324,-0.475068,-0.732,0.542534
1629797538334,-0.47726399999999997,-0.736026,0.544242
1629797538343,-0.478728,-0.740906,0.543083
1629797538353,-0.478301,-0.745115,0.538569
1629797538363,-0.47763,-0.749202,0.536556
1629797538372,-0.476593,-0.74847,0.537837
1629797538382,-0.475373,-0.745054,0.539484
1629797538391,-0.473543,-0.742004,0.540643
1629797538401,-0.470676,-0.740113,0.544669
1629797538411,-0.465369,-0.737185,0.545584
1629797538420,-0.45872,-0.735233,0.547048
1629797538430,-0.451827,-0.735355,0.549366
1629797538439,-0.444751,-0.733769,0.54961
1629797538449,-0.436516,-0.730353,0.545462
1629797538459,-0.429989,-0.725229,0.540887
1629797538468,-0.424194,-0.719434,0.53497
1629797538478,-0.419375,-0.71309,0.534726
1629797538487,-0.41534899999999997,-0.707051,0.537044
1629797538497,-0.412238,-0.702781,0.540216
1629797538507,-0.410957,-0.7038179999999999,0.539057
1629797538516,-0.412543,-0.7135779999999999,0.532774
1629797538526,-0.410774,-0.725656,0.526857
1629797538535,-0.406809,-0.739076,0.524783
1629797538545,-0.40211199999999997,-0.749385,0.523197
1629797538555,-0.40089199999999997,-0.758108,0.518622
1629797538564,-0.399123,-0.763293,0.515572
1629797538574,-0.397781,-0.761402,0.517402
1629797538583,-0.397171,-0.7546309999999999,0.521245
1629797538593,-0.397354,-0.746396,0.5213059999999999
1629797538603,-0.396073,-0.739625,0.525088
1629797538612,-0.395402,-0.732793,0.527162
1629797538622,-0.394731,-0.727669,0.526735
1629797538631,-0.39375499999999997,-0.72102,0.529602
1629797538641,-0.391254,-0.712419,0.532042
1629797538651,-0.389668,-0.7056479999999999,0.532835
1629797538660,-0.385886,-0.701805,0.538264
1629797538670,-0.382592,-0.694607,0.548329
1629797538679,-0.379664,-0.68198,0.558821
1629797538689,-0.37655299999999997,-0.666974,0.567483
1629797538699,-0.371917,-0.653432,0.578768
1629797538708,-0.36722,-0.6414759999999999,0.589382
1629797538718,-0.36173,-0.63196,0.601521
1629797538727,-0.35807,-0.62647,0.613416
1629797538737,-0.35502,-0.620248,0.625372
1629797538747,-0.35190899999999997,-0.613721,0.6350709999999999
1629797538756,-0.350506,-0.609939,0.6399509999999999
1629797538766,-0.34690699999999997,-0.605974,0.6457459999999999
1629797538775,-0.346846,-0.602802,0.647332
1629797538785,-0.345565,-0.60085,0.647759
1629797538795,-0.34416199999999997,-0.602192,0.645929
1629797538804,-0.344406,-0.605974,0.644648
1629797538814,-0.345809,-0.610488,0.64355
1629797538823,-0.34831,-0.614941,0.639524
1629797538833,-0.350384,-0.622749,0.639463
1629797538843,-0.353556,-0.631411,0.64233
1629797538852,-0.358985,-0.6359859999999999,0.643123
1629797538862,-0.363377,-0.64111,0.642025
1629797538871,-0.369904,-0.645258,0.6423909999999999
1629797538881,-0.374662,-0.64904,0.640988
1629797538891,-0.377529,-0.653066,0.6420859999999999
1629797538900,-0.38021299999999997,-0.6560549999999999,0.6426959999999999
1629797538910,-0.383324,-0.6594099999999999,0.642269
1629797538919,-0.384056,-0.663436,0.6420859999999999
1629797538929,-0.385703,-0.665998,0.6417809999999999
1629797538939,-0.386252,-0.6667299999999999,0.637328
1629797538948,-0.385276,-0.666486,0.633485
1629797538958,-0.38387299999999996,-0.6658149999999999,0.627934
1629797538967,-0.380884,-0.6661199999999999,0.62586
1629797538977,-0.376004,-0.664107,0.622261
1629797538987,-0.371795,-0.6624599999999999,0.622688
1629797538996,-0.36850099999999997,-0.661606,0.626653
1629797539006,-0.365268,-0.658922,0.628361
1629797539015,-0.360937,-0.657641,0.629764
1629797539025,-0.357155,-0.654591,0.631289
1629797539035,-0.356728,-0.65087,0.629886
1629797539044,-0.35465399999999997,-0.650565,0.626653
1629797539054,-0.35502,-0.649467,0.622444
1629797539063,-0.352336,-0.650992,0.6198819999999999
1629797539073,-0.352458,-0.651541,0.618845
1629797539083,-0.352092,-0.6527,0.615429
1629797539092,-0.35014,-0.657824,0.61549
1629797539102,-0.349774,-0.665388,0.618601
1629797539111,-0.347822,-0.675697,0.6207969999999999
1629797539121,-0.346541,-0.6837489999999999,0.620614
1629797539131,-0.344528,-0.6880189999999999,0.619333
1629797539140,-0.34233199999999997,-0.690398,0.616161
1629797539150,-0.340685,-0.6913739999999999,0.613599
1629797539159,-0.33916,-0.693692,0.613538
1629797539169,-0.33488999999999997,-0.692045,0.613965
1629797539179,-0.33214499999999997,-0.688995,0.6140869999999999
1629797539188,-0.330071,-0.68442,0.615734
1629797539198,-0.329766,-0.6794789999999999,0.618113
1629797539207,-0.327387,-0.671732,0.624518
1629797539217,-0.325252,-0.660508,0.634949
1629797539227,-0.322019,-0.647088,0.648247
1629797539236,-0.31921299999999997,-0.627568,0.6655099999999999
1629797539246,-0.321287,-0.61061,0.676978
1629797539255,-0.322934,-0.599874,0.672586
1629797539265,-0.32574,-0.592371,0.664534
1629797539275,-0.32939999999999997,-0.5917,0.657153
1629797539284,-0.332572,-0.594994,0.650809
1629797539294,-0.33733,-0.603412,0.64538
1629797539303,-0.340441,-0.615185,0.640683
1629797539313,-0.33977,-0.635315,0.633973
1629797539323,-0.342454,-0.655628,0.620126
1629797539332,-0.34263699999999997,-0.677222,0.6092069999999999
1629797539342,-0.339465,-0.698206,0.599386
1629797539351,-0.333243,-0.718946,0.593347
1629797539361,-0.326716,-0.734928,0.589626
1629797539371,-0.32086,-0.746518,0.5876129999999999
1629797539380,-0.315309,-0.754082,0.589016
1629797539390,-0.310307,-0.756034,0.588467
1629797539399,-0.30744,-0.756339,0.588772
1629797539409,-0.306098,-0.75884,0.582001
1629797539419,-0.303963,-0.761097,0.573034
1629797539428,-0.301157,-0.764757,0.568276
1629797539438,-0.296643,-0.770186,0.565165
1629797539447,-0.290543,-0.780861,0.5602239999999999
1629797539457,-0.284748,-0.7890349999999999,0.558638
1629797539467,-0.278282,-0.791353,0.557357
1629797539476,-0.272182,-0.794342,0.55388
1629797539486,-0.26718,-0.798124,0.552294
1629797539495,-0.264252,-0.8017839999999999,0.548756
1629797539505,-0.258762,-0.802577,0.548756
1629797539515,-0.259189,-0.799466,0.544303
1629797539524,-0.25864,-0.798673,0.535763
1629797539534,-0.262239,-0.803187,0.527772
1629797539543,-0.262788,-0.8106289999999999,0.518622
1629797539553,-0.260165,-0.81252,0.52521
1629797539563,-0.255651,-0.802638,0.544242
1629797539572,-0.252723,-0.788181,0.5669339999999999
1629797539582,-0.253638,-0.769332,0.590114
1629797539591,-0.25498,-0.744261,0.6092069999999999
1629797539601,-0.257542,-0.718519,0.621163
1629797539611,-0.260104,-0.695278,0.631594
1629797539620,-0.26291,-0.677039,0.644892
1629797539630,-0.264313,-0.659227,0.658434
1629797539639,-0.268644,-0.6396459999999999,0.663314
1629797539649,-0.269559,-0.622688,0.669658
1629797539659,-0.27022999999999997,-0.607438,0.685945
1629797539668,-0.272731,-0.5924929999999999,0.70272
1629797539678,-0.27388999999999997,-0.576084,0.715347
1629797539687,-0.275415,-0.564616,0.724436
1629797539697,-0.277611,-0.557662,0.731634
1629797539707,-0.279868,-0.553514,0.735294
1629797539716,-0.282674,-0.552599,0.7363919999999999
1629797539726,-0.284931,-0.550586,0.74298
1629797539735,-0.28560199999999997,-0.547292,0.747128
1629797539745,-0.286639,-0.543632,0.749812
1629797539755,-0.290177,-0.541497,0.749263
1629797539764,-0.294142,-0.540948,0.741516
1629797539774,-0.29670399999999997,-0.5477799999999999,0.7318169999999999
1629797539783,-0.30134,-0.558089,0.723399
1629797539793,-0.304573,-0.569313,0.718702
1629797539803,-0.309514,-0.578036,0.715652
1629797539812,-0.314882,-0.580293,0.712114
1629797539822,-0.321104,-0.582123,0.711016
1629797539831,-0.326899,-0.580842,0.7090029999999999
1629797539841,-0.330864,-0.578097,0.7080879999999999
1629797539851,-0.334829,-0.577182,0.707905
1629797539860,-0.34080699999999997,-0.577182,0.706319
1629797539870,-0.34538199999999997,-0.579561,0.703635
1629797539879,-0.348676,-0.584197,0.696742
1629797539889,-0.35319,-0.588406,0.690825
1629797539899,-0.357582,-0.595482,0.6855789999999999
1629797539908,-0.361486,-0.601582,0.6810039999999999
1629797539918,-0.365939,-0.607011,0.676063
1629797539927,-0.36911099999999997,-0.608658,0.670329
1629797539937,-0.371124,-0.608963,0.664839
1629797539947,-0.372527,-0.607865,0.6630699999999999
1629797539956,-0.375455,-0.6076819999999999,0.660752
1629797539966,-0.378139,-0.607621,0.6566649999999999
1629797539975,-0.381677,-0.607499,0.651358
1629797539985,-0.38369,-0.608475,0.646234
1629797539995,-0.385093,-0.610244,0.641354
1629797540004,-0.38795999999999997,-0.61305,0.63806
1629797540014,-0.390644,-0.617625,0.6347659999999999
1629797540023,-0.393694,-0.623298,0.632143
1629797540033,-0.395402,-0.630435,0.627934
1629797540043,-0.398574,-0.636352,0.621346
1629797540052,-0.399428,-0.642574,0.618235
1629797540062,-0.401929,-0.64965,0.618174
1629797540071,-0.402356,-0.653981,0.618845
1629797540081,-0.40302699999999997,-0.655872,0.61915
1629797540091,-0.40382,-0.654713,0.621712
1629797540100,-0.40455199999999997,-0.652456,0.623176
1629797540110,-0.404003,-0.648674,0.62342
1629797540119,-0.40443,-0.645563,0.623542
1629797540129,-0.403393,-0.644892,0.624396
1629797540139,-0.402173,-0.64599,0.625677
1629797540148,-0.401014,-0.646722,0.625982
1629797540158,-0.400099,-0.649406,0.623664
1629797540167,-0.39772,-0.6554449999999999,0.619455
1629797540177,-0.393572,-0.663436,0.615246
1629797540187,-0.389668,-0.671427,0.610549
1629797540196,-0.383995,-0.679418,0.60634
1629797540206,-0.381067,-0.6858839999999999,0.603717
1629797540215,-0.377956,-0.690093,0.602009
1629797540225,-0.375821,-0.692655,0.600728
1629797540235,-0.373625,-0.6938139999999999,0.600728
1629797540244,-0.373137,-0.693326,0.60268
1629797540254,-0.37332,-0.691435,0.604571
1629797540263,-0.374845,-0.6880189999999999,0.607194
1629797540273,-0.375455,-0.683566,0.611098
1629797540283,-0.375882,-0.679662,0.615124
1629797540292,-0.375455,-0.67466,0.618418
1629797540302,-0.373991,-0.670024,0.620736
1629797540311,-0.3721,-0.666242,0.622078
1629797540321,-0.369843,-0.663497,0.6214069999999999
1629797540331,-0.367098,-0.659837,0.62098
1629797540340,-0.364109,-0.659227,0.621956
1629797540350,-0.360998,-0.659227,0.623786
1629797540359,-0.35868,-0.657946,0.624762
1629797540369,-0.355081,-0.6584949999999999,0.625677
1629797540379,-0.351726,-0.658556,0.627202
1629797540388,-0.349469,-0.657458,0.626836
1629797540398,-0.346541,-0.656299,0.627019
1629797540407,-0.34416199999999997,-0.654957,0.626348
1629797540417,-0.342393,-0.652395,0.625067
1629797540427,-0.341783,-0.64965,0.625738
1629797540436,-0.341844,-0.64843,0.626409
1629797540446,-0.34221,-0.648613,0.624152
1629797540455,-0.343796,-0.64965,0.623359
1629797540465,-0.345138,-0.652883,0.622444
1629797540475,-0.34690699999999997,-0.653127,0.625311
1629797540484,-0.349652,-0.654103,0.6329359999999999
1629797540494,-0.352275,-0.650321,0.637877
1629797540503,-0.355935,-0.644709,0.641537
1629797540513,-0.35892399999999997,-0.637572,0.64782
1629797540523,-0.361242,-0.629886,0.655933
1629797540532,-0.362584,-0.622566,0.664534
1629797540542,-0.364292,-0.613904,0.671915
1629797540551,-0.365329,-0.606279,0.6800889999999999
1629797540561,-0.366244,-0.600789,0.687165
1629797540571,-0.368867,-0.596946,0.693326
1629797540580,-0.370392,-0.5955429999999999,0.694363
1629797540590,-0.371612,-0.595299,0.692411
1629797540599,-0.374967,-0.592859,0.69052
1629797540609,-0.37868799999999997,-0.59231,0.692411
1629797540619,-0.383202,-0.587674,0.69662
1629797540628,-0.386984,-0.58316,0.697718
1629797540638,-0.39314499999999997,-0.576877,0.699548
1629797540647,-0.399062,-0.56913,0.700219
1629797540657,-0.401868,-0.564738,0.707539
1629797540667,-0.40211199999999997,-0.5632739999999999,0.715286
1629797540676,-0.401258,-0.560346,0.717665
1629797540686,-0.399916,-0.554673,0.720288
1629797540695,-0.399245,-0.545279,0.719312
1629797540705,-0.397232,-0.536373,0.719678
1629797540715,-0.393084,-0.530944,0.722423
1629797540724,-0.387716,-0.527772,0.727669
1629797540734,-0.38112799999999997,-0.527772,0.729804
1629797540743,-0.37515,-0.529663,0.72529
1629797540753,-0.36844,-0.530334,0.7160179999999999
1629797540763,-0.363682,-0.529114,0.704672
1629797540772,-0.358802,-0.529785,0.694973
1629797540782,-0.356057,-0.530395,0.686616
1629797540791,-0.353373,-0.533323,0.678686
1629797540801,-0.35190899999999997,-0.537044,0.672952
1629797540811,-0.349469,-0.5398499999999999,0.6694749999999999
1629797540820,-0.349164,-0.542046,0.665937
1629797540830,-0.351482,-0.542534,0.6658149999999999
1629797540839,-0.355813,-0.543937,0.668987
1629797540849,-0.361181,-0.5441199999999999,0.678076
1629797540859,-0.36728099999999997,-0.5428999999999999,0.6877139999999999
1629797540868,-0.375516,-0.540216,0.69357
1629797540878,-0.383751,-0.536617,0.695827
1629797540887,-0.392047,-0.530456,0.701622
1629797540897,-0.40504,-0.524844,0.715652
1629797540907,-0.41961899999999996,-0.516304,0.726327
1629797540916,-0.433344,-0.509594,0.733708
1629797540926,-0.445117,-0.503433,0.734013
1629797540935,-0.457134,-0.497821,0.734196
1629797540945,-0.467016,-0.498004,0.73627
1629797540955,-0.47641,-0.498065,0.732183
1629797540964,-0.48592599999999997,-0.500261,0.723704
1629797540974,-0.49458799999999997,-0.502274,0.719495
1629797540983,-0.49916299999999997,-0.505202,0.718397
1629797540993,-0.503311,-0.503494,0.714737
1629797541003,-0.509106,-0.500139,0.711626
1629797541012,-0.5142909999999999,-0.497272,0.716994
1629797541022,-0.518622,-0.493978,0.726022
1629797541031,-0.520147,-0.49050099999999996,0.730109
1629797541041,-0.520757,-0.486902,0.7385269999999999
1629797541051,-0.519537,-0.482327,0.755424
1629797541060,-0.515267,-0.477203,0.771406
1629797541070,-0.509228,-0.469151,0.779336
1629797541079,-0.501481,-0.457256,0.7856799999999999
1629797541089,-0.49519799999999997,-0.442616,0.787266
1629797541099,-0.490989,-0.42706099999999997,0.785741
1629797541108,-0.48501099999999997,-0.41290899999999997,0.783789
1629797541118,-0.480192,-0.405101,0.781349
1629797541127,-0.472018,-0.400404,0.7804949999999999
1629797541137,-0.463966,-0.396744,0.783972
1629797541147,-0.455731,-0.392291,0.788791
1629797541156,-0.446032,-0.388692,0.797575
1629797541166,-0.436394,-0.382531,0.8121539999999999
1629797541175,-0.42614599999999997,-0.377041,0.827465
1629797541185,-0.417911,-0.36966,0.8374079999999999
1629797541195,-0.41107899999999997,-0.361791,0.838201
1629797541204,-0.404613,-0.35648399999999997,0.8392379999999999
1629797541214,-0.399794,-0.355386,0.841617
1629797541223,-0.397598,-0.354898,0.847778
1629797541233,-0.39405999999999997,-0.355813,0.853451
1629797541243,-0.39222999999999997,-0.360083,0.8608319999999999
1629797541252,-0.39375499999999997,-0.36636599999999997,0.867908
1629797541262,-0.401929,-0.374418,0.868396
1629797541271,-0.40687,-0.38234799999999997,0.863394
1629797541281,-0.405223,-0.386496,0.862296
1629797541291,-0.399245,-0.390888,0.861198
1629797541300,-0.390278,-0.38826499999999997,0.856745
1629797541310,-0.381189,-0.377956,0.840214
1629797541319,-0.371978,-0.36423099999999997,0.818681
1629797541329,-0.360754,-0.349286,0.803675
1629797541339,-0.348432,-0.337269,0.79849
1629797541348,-0.331352,-0.328729,0.7990389999999999
1629797541358,-0.31293,-0.321592,0.7984289999999999
1629797541367,-0.293715,-0.317139,0.799283
1629797541377,-0.272792,-0.313967,0.8078839999999999
1629797541387,-0.253089,-0.310612,0.822097
1629797541396,-0.234179,-0.308355,0.838201
1629797541406,-0.2135,-0.30719599999999997,0.854976
1629797541415,-0.191662,-0.305854,0.869494
1629797541425,-0.170983,-0.304085,0.8790709999999999
1629797541435,-0.150731,-0.299754,0.883402
1629797541444,-0.13572499999999998,-0.299388,0.886025
1629797541454,-0.125416,-0.301706,0.890234
1629797541463,-0.11608299999999999,-0.30536599999999997,0.89182
1629797541473,-0.111508,-0.310673,0.892308
1629797541483,-0.105957,-0.31659,0.889929
1629797541492,-0.099796,-0.321836,0.888648
1629797541502,-0.096563,-0.331047,0.891942
1629797541511,-0.092842,-0.338367,0.89243
1629797541521,-0.088694,-0.344589,0.892491
1629797541531,-0.084912,-0.351421,0.8939549999999999
1629797541540,-0.081069,-0.358436,0.894016
1629797541550,-0.075884,-0.363682,0.8960899999999999
1629797541559,-0.072895,-0.36789099999999997,0.897432
1629797541569,-0.06893,-0.36667099999999997,0.899506
1629797541579,-0.066978,-0.361791,0.901641
1629797541588,-0.065819,-0.356606,0.903166
1629797541598,-0.064599,-0.35221399999999997,0.905728
1629797541607,-0.062098,-0.347395,0.906948
1629797541617,-0.061061,-0.346236,0.9098149999999999
1629797541627,-0.06161,-0.348554,0.909266
1629797541636,-0.061549,-0.353678,0.906643
1629797541646,-0.06161,-0.357521,0.902556
1629797541655,-0.063501,-0.362828,0.899811
1629797541665,-0.06417199999999999,-0.368623,0.898286
1629797541675,-0.064355,-0.374967,0.894992
1629797541684,-0.064904,-0.38051799999999997,0.891576
1629797541694,-0.064111,-0.385764,0.88938
1629797541703,-0.063562,-0.388753,0.88938
1629797541713,-0.059657999999999996,-0.38734999999999997,0.8891359999999999
1629797541723,-0.057645,-0.383751,0.891088
1629797541732,-0.056729999999999996,-0.380274,0.8979199999999999
1629797541742,-0.055449,-0.37716299999999997,0.907924
1629797541751,-0.057462,-0.375272,0.913719
1629797541761,-0.059902,-0.374174,0.913414
1629797541771,-0.061975999999999996,-0.373991,0.910486
1629797541780,-0.063135,-0.37576,0.903837
1629797541790,-0.063318,-0.377407,0.8991399999999999
1629797541799,-0.065026,-0.37942,0.895297
1629797541809,-0.066734,-0.381189,0.892186
1629797541819,-0.068259,-0.381311,0.89304
1629797541828,-0.070211,-0.38247,0.894199
1629797541838,-0.071675,-0.382714,0.895419
1629797541847,-0.072651,-0.38369,0.895968
1629797541857,-0.071431,-0.384666,0.897981
1629797541867,-0.07076,-0.38326299999999996,0.899933
1629797541876,-0.069662,-0.38173799999999997,0.899872
1629797541886,-0.071004,-0.378627,0.897127
1629797541895,-0.071797,-0.377285,0.897249
1629797541905,-0.07076,-0.379786,0.900543
1629797541915,-0.07124799999999999,-0.386801,0.904447
1629797541924,-0.071004,-0.396012,0.905057
1629797541934,-0.071858,-0.405345,0.903593
1629797541943,-0.070699,-0.412726,0.903532
1629797541953,-0.071187,-0.41961899999999996,0.9040199999999999
1629797541963,-0.072285,-0.42212,0.901702
1629797541972,-0.073383,-0.419985,0.898042
1629797541982,-0.074786,-0.416142,0.892735
1629797541991,-0.074786,-0.41114,0.890173
1629797542001,-0.073322,-0.408273,0.890844
1629797542011,-0.071431,-0.40687,0.895114
1629797542020,-0.069723,-0.40668699999999997,0.903532
1629797542030,-0.068808,-0.406931,0.911096
1629797542039,-0.067893,-0.40455199999999997,0.9128649999999999
1629797542049,-0.069296,-0.40199,0.912499
1629797542059,-0.069723,-0.401075,0.9095099999999999
1629797542068,-0.073017,-0.40150199999999997,0.905606
1629797542078,-0.074298,-0.400099,0.900909
1629797542087,-0.076311,-0.40089199999999997,0.896639
1629797542097,-0.076982,-0.402478,0.895297
1629797542107,-0.077348,-0.405284,0.895907
1629797542116,-0.07625,-0.407968,0.897432
1629797542126,-0.074542,-0.41053,0.8973099999999999
1629797542135,-0.072407,-0.410591,0.8966999999999999
1629797542145,-0.07076,-0.411262,0.89243
1629797542155,-0.067527,-0.408639,0.888038
1629797542164,-0.064965,-0.406748,0.8833409999999999
1629797542174,-0.06405,-0.40504,0.8790709999999999
1629797542183,-0.06417199999999999,-0.401136,0.874252
1629797542193,-0.06508699999999999,-0.399306,0.870958
1629797542203,-0.066612,-0.398086,0.86803
1629797542212,-0.068198,-0.39772,0.866505
1629797542222,-0.07033299999999999,-0.399001,0.867359
1629797542231,-0.072468,-0.400953,0.866871
1629797542241,-0.0732,-0.40150199999999997,0.868274
1629797542251,-0.071919,-0.401929,0.872788
1629797542260,-0.069845,-0.404003,0.877607
1629797542270,-0.06770999999999999,-0.40394199999999997,0.8781559999999999
1629797542279,-0.066185,-0.404186,0.873825
1629797542289,-0.066368,-0.405406,0.866566
1629797542299,-0.06709999999999999,-0.41236,0.858941
1629797542308,-0.067344,-0.420412,0.8559519999999999
1629797542318,-0.06740499999999999,-0.428708,0.854183
1629797542327,-0.067588,-0.435906,0.851133
1629797542337,-0.067954,-0.440481,0.853329
1629797542347,-0.067039,-0.444873,0.856928
1629797542356,-0.067588,-0.452071,0.856379
1629797542366,-0.069845,-0.454633,0.8516819999999999
1629797542375,-0.077226,-0.457256,0.848876
1629797542385,-0.081435,-0.463356,0.844057
1629797542395,-0.0854,-0.471652,0.838872
1629797542404,-0.08601,-0.482937,0.836005
1629797542414,-0.08649799999999999,-0.49458799999999997,0.833016
1629797542423,-0.087535,-0.50569,0.8300879999999999
1629797542433,-0.088877,-0.519354,0.822524
1629797542443,-0.089792,-0.527955,0.8121539999999999
1629797542452,-0.095343,-0.531981,0.80459
1629797542462,-0.098942,-0.542046,0.798612
1629797542471,-0.100162,-0.553209,0.795684
1629797542481,-0.100772,-0.564738,0.792756
1629797542491,-0.102724,-0.572546,0.7899499999999999
1629797542500,-0.10284599999999999,-0.580842,0.785619
1629797542510,-0.10345599999999999,-0.587247,0.7814099999999999
1629797542519,-0.105164,-0.591334,0.778604
1629797542529,-0.106201,-0.5921879999999999,0.774639
1629797542539,-0.10638399999999999,-0.596214,0.770491
1629797542548,-0.106262,-0.600362,0.7665259999999999
1629797542558,-0.106933,-0.603778,0.7625609999999999
1629797542567,-0.108702,-0.608475,0.758718
1629797542577,-0.108702,-0.61732,0.754387
1629797542587,-0.110349,-0.626043,0.750849
1629797542596,-0.111508,-0.631777,0.748104
1629797542606,-0.11193499999999999,-0.6350709999999999,0.747555
1629797542615,-0.112789,-0.638304,0.748104
1629797542625,-0.114375,-0.641354,0.749324
1629797542635,-0.11516799999999999,-0.643428,0.748958
1629797542644,-0.117242,-0.644465,0.74542
1629797542654,-0.120048,-0.648308,0.741333
1629797542663,-0.122488,-0.652273,0.739625
1629797542673,-0.124806,-0.655384,0.735111
1629797542683,-0.128222,-0.659471,0.7278519999999999
1629797542692,-0.131943,-0.663497,0.720044
1629797542702,-0.13572499999999998,-0.6673399999999999,0.714737
1629797542711,-0.1403,-0.6700849999999999,0.714066
1629797542721,-0.144326,-0.670878,0.712236
1629797542731,-0.146766,-0.674172,0.710955
1629797542740,-0.148779,-0.677527,0.709796
1629797542750,-0.150548,-0.680272,0.711382
1629797542759,-0.1525,-0.683322,0.7111379999999999
1629797542769,-0.15207299999999999,-0.687592,0.708759
1629797542779,-0.153781,-0.6913739999999999,0.707539
1629797542788,-0.154452,-0.693021,0.70699
1629797542798,-0.155062,-0.693265,0.70455
1629797542807,-0.156404,-0.692167,0.701195
1629797542817,-0.156343,-0.691923,0.698389
1629797542827,-0.15616,-0.6932039999999999,0.694668
1629797542836,-0.157136,-0.694668,0.692838
1629797542846,-0.157014,-0.695583,0.6904589999999999
1629797542855,-0.15616,-0.696803,0.687226
1629797542865,-0.153659,-0.698328,0.6858839999999999
1629797542875,-0.15189,-0.699365,0.683871
1629797542884,-0.149694,-0.698938,0.6791739999999999
1629797542894,-0.14865699999999998,-0.698267,0.670451
1629797542903,-0.148718,-0.695217,0.660813
1629797542913,-0.149023,-0.692838,0.652517
1629797542923,-0.150853,-0.693387,0.645258
1629797542932,-0.149511,-0.694912,0.642025
1629797542942,-0.146888,-0.69723,0.646478
1629797542951,-0.14249599999999998,-0.700158,0.651297
1629797542961,-0.136152,-0.702598,0.659776
1629797542971,-0.133102,-0.702232,0.6691699999999999
1629797542980,-0.131028,-0.699243,0.668682
1629797542990,-0.129747,-0.693936,0.661911
1629797542999,-0.130662,-0.689788,0.657397
1629797543009,-0.13176,-0.6864939999999999,0.6581899999999999
1629797543019,-0.132614,-0.686555,0.661118
1629797543028,-0.133468,-0.690093,0.660203
1629797543038,-0.133407,-0.695095,0.654408
1629797543047,-0.132736,-0.699365,0.648308
1629797543057,-0.132431,-0.702659,0.641049
1629797543067,-0.13176,-0.705526,0.637328
1629797543076,-0.132553,-0.706319,0.633668
1629797543086,-0.133956,-0.704794,0.630618
1629797543095,-0.135908,-0.701866,0.628727
1629797543105,-0.139446,-0.698572,0.626409
1629797543115,-0.14127599999999998,-0.697718,0.622383
1629797543124,-0.143899,-0.697291,0.620309
1629797543134,-0.145546,-0.700097,0.618784
1629797543143,-0.149938,-0.70394,0.61854
1629797543153,-0.153842,-0.7053429999999999,0.6156119999999999
1629797543163,-0.157441,-0.708332,0.614575
1629797543172,-0.160918,-0.713151,0.616954
1629797543182,-0.162748,-0.718275,0.617015
1629797543191,-0.16500499999999999,-0.722057,0.6161
1629797543201,-0.167628,-0.723094,0.61244
1629797543211,-0.165859,-0.72651,0.603534
1629797543220,-0.165249,-0.735111,0.597129
1629797543230,-0.165737,-0.74298,0.59109
1629797543239,-0.16713999999999998,-0.749629,0.582672
1629797543249,-0.169641,-0.758352,0.570655
1629797543259,-0.171898,-0.772687,0.557601
1629797543268,-0.175741,-0.787083,0.548573
1629797543278,-0.178364,-0.7991,0.5450349999999999
1629797543287,-0.182146,-0.804895,0.543754
1629797543297,-0.185562,-0.8100189999999999,0.542107
1629797543307,-0.188002,-0.812947,0.543449
1629797543316,-0.192821,-0.817705,0.541802
1629797543326,-0.197152,-0.82289,0.539728
1629797543335,-0.200995,-0.82594,0.534787
1629797543345,-0.203435,-0.829966,0.529236
1629797543355,-0.206424,-0.83265,0.526308
1629797543364,-0.208925,-0.834236,0.52033
1629797543374,-0.211914,-0.834114,0.514474
1629797543383,-0.214537,-0.8355779999999999,0.510448
1629797543393,-0.215696,-0.833809,0.507215
1629797543403,-0.218746,-0.832284,0.50569
1629797543412,-0.221857,-0.830454,0.503311
1629797543422,-0.222589,-0.828807,0.500566
1629797543431,-0.224602,-0.82716,0.500688
1629797543441,-0.226554,-0.825269,0.506788
1629797543451,-0.22942099999999999,-0.824476,0.512705
1629797543460,-0.23119,-0.82594,0.512827
1629797543470,-0.232593,-0.828624,0.508191
1629797543479,-0.233508,-0.831735,0.501664
1629797543489,-0.235277,-0.834297,0.49263599999999996
1629797543499,-0.23729,-0.835151,0.48348599999999997
1629797543508,-0.240645,-0.837469,0.47390899999999997
1629797543518,-0.24296299999999998,-0.838872,0.465735
1629797543527,-0.245769,-0.8389329999999999,0.461526
1629797543537,-0.248636,-0.83753,0.458476
1629797543547,-0.252418,-0.836981,0.454206
1629797543556,-0.254126,-0.836371,0.451827
1629797543566,-0.25699299999999997,-0.838079,0.450851
1629797543575,-0.25986,-0.840885,0.447313
1629797543585,-0.262605,-0.841861,0.441396
1629797543595,-0.264252,-0.843874,0.4392
1629797543604,-0.26657,-0.844972,0.442616
1629797543614,-0.267241,-0.84546,0.443775
1629797543623,-0.26931499999999997,-0.844972,0.446337
1629797543633,-0.269437,-0.842898,0.446276
1629797543643,-0.26961999999999997,-0.843935,0.444629
1629797543652,-0.269559,-0.845521,0.442677
1629797543662,-0.270657,-0.844911,0.441335
1629797543671,-0.269803,-0.843935,0.43785799999999997
1629797543681,-0.269376,-0.84241,0.433893
1629797543691,-0.268644,-0.843203,0.432185
1629797543700,-0.268827,-0.843447,0.430172
1629797543710,-0.267058,-0.8464969999999999,0.429074
1629797543719,-0.265533,-0.848815,0.428525
1629797543729,-0.264496,-0.850279,0.428403
1629797543739,-0.261812,-0.852109,0.427122
1629797543748,-0.260836,-0.853695,0.42645099999999997
1629797543758,-0.260104,-0.854976,0.423767
1629797543767,-0.258152,-0.855891,0.421754
1629797543777,-0.257664,-0.85461,0.420961
1629797543787,-0.256871,-0.853756,0.420839
1629797543796,-0.255834,-0.852536,0.418948
1629797543806,-0.254614,-0.849974,0.418277
1629797543815,-0.253333,-0.8498519999999999,0.422303
1629797543825,-0.251442,-0.84851,0.427305
1629797543835,-0.249917,-0.8468019999999999,0.431148
1629797543844,-0.247721,-0.844118,0.432307
1629797543854,-0.247233,-0.841129,0.433466
1629797543863,-0.245464,-0.839421,0.434442
1629797543873,-0.245159,-0.837591,0.435235
1629797543883,-0.24339,-0.837652,0.434991
1629797543892,-0.24156,-0.8364929999999999,0.436211
1629797543902,-0.241499,-0.8337479999999999,0.43785799999999997
1629797543911,-0.240706,-0.833626,0.43859
1629797543921,-0.240218,-0.83265,0.439932
1629797543931,-0.240218,-0.830576,0.44090799999999997
1629797543940,-0.239608,-0.829051,0.441274
1629797543950,-0.238998,-0.829966,0.442677
1629797543959,-0.238876,-0.830332,0.445178
1629797543969,-0.238571,-0.832101,0.447252
1629797543979,-0.237534,-0.834114,0.449997
1629797543988,-0.23668,-0.836554,0.452742
1629797543998,-0.234911,-0.837469,0.454877
1629797544007,-0.234423,-0.83692,0.45811
1629797544017,-0.23369099999999998,-0.837286,0.460916
1629797544027,-0.232044,-0.835029,0.45945199999999997
1629797544036,-0.232837,-0.8334429999999999,0.45566999999999996
1629797544046,-0.233203,-0.830637,0.452681
1629797544055,-0.234789,-0.828197,0.452254
1629797544065,-0.23607,-0.824964,0.455548
1629797544075,-0.236619,-0.823439,0.458781
1629797544084,-0.236741,-0.8233779999999999,0.46341699999999997
1629797544094,-0.238449,-0.8245979999999999,0.467809
1629797544103,-0.239913,-0.824781,0.467443
1629797544113,-0.241682,-0.823256,0.46494199999999997
1629797544123,-0.242292,-0.822097,0.46402699999999997
1629797544132,-0.24387799999999998,-0.821792,0.462929
1629797544142,-0.245647,-0.822097,0.46463699999999997
1629797544151,-0.24759899999999999,-0.8224629999999999,0.46585699999999997
1629797544161,-0.24766,-0.823317,0.464576
1629797544171,-0.248758,-0.823866,0.464881
1629797544180,-0.248636,-0.826306,0.466101
1629797544190,-0.249612,-0.828197,0.46646699999999996
1629797544199,-0.24973399999999998,-0.832284,0.464759
1629797544209,-0.24888,-0.834175,0.46280699999999997
1629797544219,-0.248331,-0.8367979999999999,0.461099
1629797544228,-0.24766,-0.838811,0.460245
1629797544238,-0.247233,-0.840946,0.459635
1629797544247,-0.24448799999999998,-0.842654,0.460489
1629797544257,-0.243512,-0.843386,0.461465
1629797544267,-0.242231,-0.843081,0.46067199999999997
1629797544276,-0.238205,-0.842471,0.46189199999999997
1629797544286,-0.23399599999999998,-0.842837,0.463966
1629797544295,-0.229177,-0.844362,0.46433199999999997
1629797544305,-0.22478499999999998,-0.84241,0.46280699999999997
1629797544315,-0.220576,-0.841312,0.4636
1629797544324,-0.21612299999999998,-0.8398479999999999,0.465064
1629797544334,-0.21337799999999998,-0.837347,0.463844
1629797544343,-0.209108,-0.8367979999999999,0.465125
1629797544353,-0.20410599999999998,-0.8337479999999999,0.46738199999999996
1629797544363,-0.200385,-0.83204,0.47092
1629797544372,-0.195017,-0.832589,0.471957
1629797544382,-0.191601,-0.830759,0.470432
1629797544391,-0.190198,-0.829722,0.46860199999999996
1629797544401,-0.187636,-0.8294779999999999,0.464576
1629797544411,-0.186904,-0.82777,0.462929
1629797544420,-0.185989,-0.828075,0.463905
1629797544430,-0.18287799999999999,-0.828014,0.467443
1629797544439,-0.180926,-0.827892,0.471286
1629797544449,-0.179401,-0.829112,0.474336
1629797544459,-0.17812,-0.830576,0.474885
1629797544468,-0.177449,-0.832772,0.47543399999999997
1629797544478,-0.17580199999999999,-0.832467,0.474092
1629797544487,-0.175314,-0.832406,0.472567
1629797544497,-0.17629,-0.83326,0.47085899999999997
1629797544507,-0.174948,-0.8346629999999999,0.469517
1629797544516,-0.17641199999999999,-0.836127,0.46909
1629797544526,-0.1769,-0.835456,0.466833
1629797544535,-0.177266,-0.834114,0.465979
1629797544545,-0.177876,-0.8340529999999999,0.469517
1629797544555,-0.178486,-0.834724,0.47177399999999997
1629797544564,-0.17812,-0.834602,0.47299399999999997
1629797544574,-0.177754,-0.834114,0.47421399999999997
1629797544583,-0.178486,-0.8337479999999999,0.47458
1629797544593,-0.17824199999999998,-0.833992,0.473116
1629797544603,-0.177693,-0.834114,0.472933
1629797544612,-0.17854699999999998,-0.834419,0.47116399999999997
1629797544622,-0.178974,-0.835029,0.469639
1629797544631,-0.179096,-0.836066,0.469273
1629797544641,-0.178913,-0.837652,0.46726
1629797544651,-0.178791,-0.837835,0.466406
1629797544660,-0.180011,-0.839116,0.46604
1629797544670,-0.180438,-0.839177,0.467504
1629797544679,-0.180743,-0.840946,0.467016
1629797544689,-0.182451,-0.840885,0.466833
1629797544699,-0.18409799999999998,-0.841129,0.465796
1629797544708,-0.18483,-0.84119,0.466101
1629797544718,-0.186721,-0.840092,0.465674
1629797544727,-0.186355,-0.839299,0.465369
1629797544737,-0.18842899999999999,-0.83997,0.46604
1629797544747,-0.190137,-0.839177,0.46524699999999997
1629797544756,-0.191723,-0.8377129999999999,0.465308
1629797544766,-0.192821,-0.837896,0.46646699999999996
1629797544775,-0.194346,-0.836981,0.467504
1629797544785,-0.195993,-0.835761,0.467199
1629797544795,-0.196603,-0.835151,0.46707699999999996
1629797544804,-0.19886,-0.834602,0.46707699999999996
1629797544814,-0.200873,-0.833687,0.467748
1629797544823,-0.20197099999999998,-0.832955,0.467504
1629797544833,-0.203679,-0.832162,0.468358
1629797544843,-0.205448,-0.831552,0.46799199999999996
1629797544852,-0.207766,-0.8313079999999999,0.46890699999999996
1629797544862,-0.209718,-0.830942,0.468663
1629797544871,-0.21154799999999999,-0.831796,0.46848
1629797544881,-0.213012,-0.831491,0.469761
1629797544891,-0.213927,-0.830271,0.4697
1629797544900,-0.215574,-0.829356,0.469517
1629797544910,-0.217038,-0.828685,0.46829699999999996
1629797544919,-0.218502,-0.826916,0.468541
1629797544929,-0.219661,-0.826062,0.47031
1629797544939,-0.22143,-0.825147,0.469761
1629797544948,-0.222772,-0.824659,0.469822
1629797544958,-0.224602,-0.824049,0.470432
1629797544967,-0.226554,-0.82472,0.46848
1629797544977,-0.22813999999999998,-0.824415,0.46421
1629797544987,-0.22942099999999999,-0.823927,0.46219699999999997
1629797544996,-0.230519,-0.82472,0.462014
1629797545006,-0.231739,-0.8245979999999999,0.463478
1629797545015,-0.234728,-0.823622,0.464271
1629797545025,-0.23729,-0.822524,0.462624
1629797545035,-0.2379,-0.821731,0.461526
1629797545044,-0.240584,-0.820755,0.459025
1629797545054,-0.243024,-0.820206,0.457988
1629797545063,-0.24601299999999998,-0.81984,0.456402
1629797545073,-0.247477,-0.819779,0.454511
1629797545083,-0.251686,-0.81984,0.453108
1629797545092,-0.255041,-0.817827,0.450973
1629797545102,-0.256871,-0.818742,0.44987499999999997
1629797545111,-0.26095799999999997,-0.818925,0.446886
1629797545121,-0.26474,-0.82045,0.444873
1629797545131,-0.268217,-0.822402,0.443897
1629797545140,-0.271084,-0.824171,0.442372
1629797545150,-0.276269,-0.8252079999999999,0.442189
1629797545159,-0.279685,-0.825635,0.440725
1629797545169,-0.28316199999999997,-0.826367,0.440359
1629797545179,-0.286883,-0.828136,0.439871
1629797545188,-0.291153,-0.8297829999999999,0.437919
1629797545198,-0.294325,-0.830271,0.435479
1629797545207,-0.297375,-0.8316129999999999,0.435052
1629797545217,-0.300242,-0.832345,0.435479
1629797545227,-0.302682,-0.8303929999999999,0.43554
1629797545236,-0.305488,-0.830942,0.436394
1629797545246,-0.30719599999999997,-0.830271,0.436211
1629797545255,-0.309514,-0.828929,0.435357
1629797545265,-0.31232,-0.828197,0.433344
1629797545275,-0.313418,-0.826062,0.428952
1629797545284,-0.315614,-0.82533,0.427793
1629797545294,-0.317322,-0.825086,0.42736599999999997
1629797545303,-0.318054,-0.8245979999999999,0.426817
1629797545313,-0.319457,-0.823927,0.42761
1629797545323,-0.320555,-0.824049,0.428647
1629797545332,-0.321104,-0.821853,0.42950099999999997
1629797545342,-0.322141,-0.821243,0.430294
1629797545351,-0.323422,-0.819657,0.428647
1629797545361,-0.324459,-0.81862,0.428525
1629797545371,-0.325374,-0.8174,0.426695
1629797545380,-0.327082,-0.817522,0.425658
1629797545390,-0.328119,-0.817644,0.424987
1629797545399,-0.32817999999999997,-0.817522,0.42517
1629797545409,-0.330071,-0.817583,0.426268
1629797545419,-0.331474,-0.818071,0.426268
1629797545428,-0.332023,-0.817583,0.426634
1629797545438,-0.33244999999999997,-0.816912,0.427244
1629797545447,-0.333243,-0.816729,0.426817
1629797545457,-0.334158,-0.816668,0.42822
1629797545467,-0.334341,-0.816485,0.428647
1629797545476,-0.334402,-0.815387,0.427732
1629797545486,-0.335012,-0.814167,0.426939
1629797545495,-0.335073,-0.8145939999999999,0.426817
1629797545505,-0.335256,-0.813862,0.426024
1629797545515,-0.335683,-0.8139839999999999,0.426207
1629797545524,-0.335988,-0.814045,0.426878
1629797545534,-0.335378,-0.81313,0.426939
1629797545543,-0.335378,-0.813008,0.427244
1629797545553,-0.335683,-0.812825,0.425292
1629797545563,-0.335134,-0.813801,0.42523099999999997
1629797545572,-0.335622,-0.81557,0.42370599999999997
1629797545582,-0.335988,-0.814167,0.423645
1629797545591,-0.336049,-0.815021,0.422791
1629797545601,-0.337391,-0.815082,0.421205
1629797545611,-0.338428,-0.815692,0.420778
1629797545620,-0.338611,-0.816302,0.420839
1629797545630,-0.33916,-0.8174,0.41992399999999996
1629797545639,-0.339221,-0.818498,0.41931399999999996
1629797545649,-0.338184,-0.819291,0.41961899999999996
1629797545659,-0.33916,-0.821182,0.418155
1629797545668,-0.340258,-0.821121,0.415532
1629797545678,-0.340319,-0.821792,0.414495
1629797545687,-0.341234,-0.8227679999999999,0.4148
1629797545697,-0.341783,-0.824476,0.415105
1629797545707,-0.342454,-0.8239879999999999,0.415532
1629797545716,-0.342454,-0.823744,0.416081
1629797545726,-0.343003,-0.823439,0.416142
1629797545735,-0.343491,-0.823012,0.415715
1629797545745,-0.34355199999999997,-0.823256,0.415776
1629797545755,-0.343735,-0.821548,0.414678
1629797545764,-0.343369,-0.82106,0.414007
1629797545774,-0.343491,-0.820694,0.4148
1629797545783,-0.342698,-0.820633,0.414495
1629797545793,-0.34294199999999997,-0.820267,0.415776
1629797545803,-0.342393,-0.818498,0.416081
1629797545812,-0.341478,-0.818559,0.41870399999999997
1629797545822,-0.341844,-0.818925,0.421205
1629797545831,-0.341356,-0.819901,0.422852
1629797545841,-0.34019699999999997,-0.819413,0.422303
1629797545851,-0.338428,-0.819718,0.419436
1629797545860,-0.336293,-0.820023,0.419558
1629797545870,-0.333792,-0.820389,0.4209
1629797545879,-0.331718,-0.822036,0.42334
1629797545889,-0.328973,-0.821365,0.423157
1629797545899,-0.327082,-0.82045,0.423767
1629797545908,-0.324764,-0.82167,0.42395
1629797545918,-0.322202,-0.821121,0.423767
1629797545927,-0.31921299999999997,-0.821731,0.42340099999999997
1629797545937,-0.316956,-0.821853,0.422791
1629797545947,-0.314272,-0.821548,0.42431599999999997
1629797545956,-0.312381,-0.820694,0.42431599999999997
1629797545966,-0.30963599999999997,-0.820328,0.42614599999999997
1629797545975,-0.306525,-0.820023,0.426024
1629797545985,-0.303597,-0.820633,0.42584099999999997
1629797545995,-0.300608,-0.820328,0.426512
1629797546004,-0.298168,-0.820145,0.426939
1629797546014,-0.295423,-0.822829,0.426878
1629797546023,-0.293532,-0.821914,0.42828099999999997
1629797546033,-0.290177,-0.822402,0.428647
1629797546043,-0.285968,-0.823195,0.429318
1629797546052,-0.284321,-0.824476,0.43127
1629797546062,-0.282308,-0.8245979999999999,0.430599
1629797546071,-0.279929,-0.8252079999999999,0.431697
1629797546081,-0.278526,-0.824232,0.4331
1629797546091,-0.278038,-0.824842,0.434625
1629797546100,-0.277367,-0.82594,0.436089
1629797546110,-0.277001,-0.827282,0.439322
1629797546119,-0.276513,-0.828502,0.440969
1629797546129,-0.275598,-0.8279529999999999,0.440359
1629797546139,-0.274866,-0.826855,0.4392
1629797546148,-0.274317,-0.82655,0.438407
1629797546158,-0.273341,-0.826916,0.44029799999999997
1629797546167,-0.273646,-0.8264279999999999,0.441884
1629797546177,-0.273036,-0.826001,0.442372
1629797546187,-0.27297499999999997,-0.825696,0.442799
1629797546196,-0.27297499999999997,-0.825635,0.445422
1629797546206,-0.272548,-0.8245979999999999,0.445178
1629797546215,-0.272792,-0.823744,0.446398
1629797546225,-0.273158,-0.8230729999999999,0.447313
1629797546235,-0.272853,-0.822219,0.447618
1629797546244,-0.27327999999999997,-0.821426,0.44834999999999997
1629797546254,-0.273707,-0.822036,0.448167
1629797546263,-0.274439,-0.8221579999999999,0.449082
1629797546273,-0.273524,-0.822707,0.450241
1629797546283,-0.275171,-0.8221579999999999,0.451339
1629797546292,-0.275293,-0.820694,0.451888
1629797546302,-0.276086,-0.821426,0.453413
1629797546311,-0.275842,-0.820023,0.454023
1629797546321,-0.275842,-0.82045,0.453108
1629797546331,-0.274866,-0.820694,0.45322999999999997
1629797546340,-0.275232,-0.81984,0.451949
1629797546350,-0.275049,-0.819352,0.45200999999999997
1629797546359,-0.273829,-0.820572,0.45200999999999997
1629797546369,-0.274012,-0.819413,0.451888
1629797546379,-0.273646,-0.81984,0.452376
1629797546388,-0.27327999999999997,-0.820328,0.453047
1629797546398,-0.273646,-0.82106,0.453169
1629797546407,-0.273097,-0.821304,0.452681
1629797546417,-0.273341,-0.822402,0.452559
1629797546427,-0.271877,-0.8230729999999999,0.452559
1629797546436,-0.271694,-0.8224629999999999,0.45353499999999997
1629797546446,-0.270962,-0.822646,0.452254
1629797546455,-0.269986,-0.82228,0.451888
1629797546465,-0.270169,-0.823012,0.45139999999999997
1629797546475,-0.268339,-0.822585,0.450302
1629797546484,-0.26809499999999997,-0.822524,0.451156
1629797546494,-0.267912,-0.8245979999999999,0.450241
1629797546503,-0.26809499999999997,-0.8242929999999999,0.44895999999999997
1629797546513,-0.267729,-0.825269,0.448899
1629797546523,-0.267424,-0.825086,0.448533
1629797546532,-0.266448,-0.825696,0.447252
1629797546542,-0.266875,-0.825086,0.447191
1629797546551,-0.266753,-0.8252079999999999,0.446886
1629797546561,-0.26657,-0.8255129999999999,0.446703
1629797546571,-0.266509,-0.82533,0.447008
1629797546580,-0.267058,-0.826489,0.446093
1629797546590,-0.267241,-0.8267329999999999,0.445422
1629797546599,-0.26809499999999997,-0.8267329999999999,0.4453
1629797546609,-0.268156,-0.828014,0.444751
1629797546619,-0.269559,-0.8285629999999999,0.443287
1629797546628,-0.270596,-0.82838,0.441701
1629797546638,-0.271084,-0.82899,0.43968799999999997
1629797546647,-0.271694,-0.829234,0.438346
1629797546657,-0.271938,-0.8273429999999999,0.43785799999999997
1629797546667,-0.273463,-0.828136,0.437797
1629797546676,-0.275537,-0.828014,0.43737
1629797546686,-0.275659,-0.829356,0.438834
1629797546695,-0.277794,-0.829661,0.440237
1629797546705,-0.279258,-0.827282,0.44103
1629797546715,-0.280234,-0.8261229999999999,0.441274
1629797546724,-0.28121,-0.824232,0.443897
1629797546734,-0.282186,-0.823439,0.445361
1629797546743,-0.282308,-0.8221579999999999,0.444446
1629797546753,-0.284016,-0.82045,0.440786
1629797546763,-0.284504,-0.820633,0.437187
1629797546772,-0.284748,-0.821853,0.434442
1629797546782,-0.28548,-0.8230729999999999,0.43755299999999997
1629797546791,-0.286273,-0.823805,0.437675
1629797546801,-0.287798,-0.825269,0.438102
1629797546811,-0.288835,-0.82411,0.43798
1629797546820,-0.288835,-0.824659,0.437797
1629797546830,-0.28914,-0.825391,0.437187
1629797546839,-0.290909,-0.825086,0.435784
1629797546849,-0.291702,-0.824537,0.436272
1629797546859,-0.291702,-0.823805,0.435052
1629797546868,-0.292373,-0.824415,0.435235
1629797546878,-0.292983,-0.823744,0.434625
1629797546887,-0.293105,-0.824171,0.434442
1629797546897,-0.292861,-0.824171,0.433832
1629797546907,-0.294508,-0.824049,0.434076
1629797546916,-0.295362,-0.824415,0.434442
1629797546926,-0.29548399999999997,-0.824049,0.435296
1629797546935,-0.296521,-0.822402,0.43554
1629797546945,-0.296826,-0.821182,0.435845
1629797546955,-0.29700899999999997,-0.822097,0.436821
1629797546964,-0.297558,-0.822524,0.437309
1629797546974,-0.297436,-0.82228,0.437187
1629797546983,-0.297985,-0.823927,0.43663799999999997
1629797546993,-0.29792399999999997,-0.825391,0.437065
1629797547003,-0.297863,-0.824537,0.438285
1629797547012,-0.298168,-0.825025,0.44029799999999997
1629797547022,-0.299632,-0.825025,0.441701
1629797547031,-0.299083,-0.823744,0.441884
1629797547041,-0.298595,-0.8235,0.44151799999999997
1629797547051,-0.298656,-0.821853,0.440481
1629797547060,-0.298961,-0.822097,0.440115
1629797547070,-0.297985,-0.821426,0.44090799999999997
1629797547079,-0.298778,-0.820755,0.442067
1629797547089,-0.298351,-0.820633,0.442311
1629797547099,-0.297741,-0.820877,0.44286
1629797547108,-0.297558,-0.820389,0.44334799999999996
1629797547118,-0.297558,-0.819901,0.444812
1629797547127,-0.296826,-0.819962,0.44426299999999996
1629797547137,-0.297863,-0.81862,0.445239
1629797547147,-0.297192,-0.818254,0.445239
1629797547156,-0.296765,-0.818376,0.444812
1629797547166,-0.296582,-0.81801,0.443775
1629797547175,-0.295606,-0.818193,0.44408
1629797547185,-0.296033,-0.817888,0.446032
1629797547195,-0.296277,-0.817461,0.445178
1629797547204,-0.296887,-0.816912,0.445849
1629797547214,-0.295362,-0.817034,0.445422
1629797547223,-0.296277,-0.818254,0.444873
1629797547233,-0.296826,-0.817156,0.445849
1629797547243,-0.297192,-0.817766,0.446642
1629797547252,-0.296582,-0.818132,0.447069
1629797547262,-0.296521,-0.818864,0.446886
1629797547271,-0.29639899999999997,-0.820267,0.446337
1629797547281,-0.296277,-0.819474,0.445727
1629797547291,-0.29578899999999997,-0.818986,0.445422
1629797547300,-0.29585,-0.819718,0.445605
1629797547310,-0.295362,-0.818986,0.445422
1629797547319,-0.294386,-0.81984,0.444751
1629797547329,-0.294813,-0.820023,0.446032
1629797547339,-0.293898,-0.820572,0.4453
1629797547348,-0.292922,-0.820572,0.443775
1629797547358,-0.292556,-0.821426,0.44225
1629797547367,-0.292556,-0.822707,0.44273799999999996
1629797547377,-0.291824,-0.8236829999999999,0.441091
1629797547387,-0.291153,-0.824232,0.441396
1629797547396,-0.289994,-0.8235,0.441396
1629797547406,-0.289994,-0.822524,0.440786
1629797547415,-0.289933,-0.823134,0.440725
1629797547425,-0.289628,-0.8235,0.44121299999999997
1629797547435,-0.288164,-0.823439,0.440359
1629797547444,-0.287859,-0.821853,0.439932
1629797547454,-0.287005,-0.8227679999999999,0.43981
1629797547463,-0.287188,-0.822402,0.440115
1629797547473,-0.286578,-0.823317,0.439322
1629797547483,-0.287005,-0.822646,0.439017
1629797547492,-0.286944,-0.8236829999999999,0.437797
1629797547502,-0.286334,-0.8242929999999999,0.437126
1629797547511,-0.28560199999999997,-0.824476,0.437126
1629797547521,-0.285663,-0.823256,0.43785799999999997
1629797547531,-0.28609,-0.8239879999999999,0.437004
1629797547540,-0.285114,-0.823622,0.43602799999999997
1629797547550,-0.28560199999999997,-0.824476,0.436394
1629797547559,-0.285358,-0.825452,0.437797
1629797547569,-0.285968,-0.82594,0.43816299999999997
1629797547579,-0.285846,-0.8252079999999999,0.437736
1629797547588,-0.286761,-0.82594,0.436882
1629797547598,-0.286761,-0.826306,0.437919
1629797547607,-0.28590699999999997,-0.826367,0.437492
1629797547617,-0.285053,-0.8258179999999999,0.438224
1629797547627,-0.28560199999999997,-0.824232,0.437614
1629797547636,-0.28609,-0.823744,0.43724799999999997
1629797547646,-0.285968,-0.824415,0.43785799999999997
1629797547655,-0.286578,-0.823622,0.439322
1629797547665,-0.287188,-0.821853,0.438712
1629797547675,-0.287676,-0.820999,0.439322
1629797547684,-0.28731,-0.822036,0.442616
1629797547694,-0.288713,-0.82167,0.444202
1629797547703,-0.288469,-0.821182,0.44151799999999997
1629797547713,-0.289384,-0.822341,0.439444
1629797547723,-0.28792,-0.823012,0.437675
1629797547732,-0.287798,-0.825269,0.43877299999999997
1629797547742,-0.287798,-0.8261229999999999,0.440847
1629797547751,-0.287737,-0.825635,0.442006
1629797547761,-0.288286,-0.825879,0.44273799999999996
1629797547771,-0.289628,-0.825574,0.441152
1629797547780,-0.288774,-0.825147,0.439932
1629797547790,-0.289628,-0.825452,0.43938299999999997
1629797547799,-0.289201,-0.825696,0.43877299999999997
1629797547809,-0.289384,-0.825452,0.43907799999999997
1629797547819,-0.288774,-0.8245979999999999,0.439444
1629797547828,-0.289811,-0.8235,0.438651
1629797547838,-0.289445,-0.8224629999999999,0.44029799999999997
1629797547847,-0.289872,-0.821426,0.442311
1629797547857,-0.289384,-0.821731,0.442799
1629797547867,-0.290177,-0.82167,0.443409
1629797547876,-0.290421,-0.820938,0.444019
1629797547886,-0.29212899999999997,-0.819535,0.44408
1629797547895,-0.292312,-0.818864,0.44347
1629797547905,-0.292983,-0.817827,0.445361
1629797547915,-0.292556,-0.817705,0.446581
1629797547924,-0.293166,-0.817766,0.447496
1629797547934,-0.293898,-0.818437,0.44926499999999997
1629797547943,-0.293593,-0.818742,0.449387
1629797547953,-0.294142,-0.8174,0.448594
1629797547963,-0.29304399999999997,-0.815936,0.451034
1629797547972,-0.294081,-0.8155089999999999,0.454023
1629797547982,-0.29402,-0.814106,0.454084
1629797547991,-0.293776,-0.813252,0.453413
1629797548001,-0.293837,-0.81069,0.451766
1629797548011,-0.293837,-0.810202,0.45017999999999997
1629797548020,-0.2928,-0.810568,0.45017999999999997
1629797548030,-0.293471,-0.8112389999999999,0.452986
1629797548039,-0.29334899999999997,-0.812337,0.454389
1629797548049,-0.292678,-0.81313,0.454084
1629797548059,-0.293471,-0.813801,0.454267
1629797548068,-0.29365399999999997,-0.8124589999999999,0.454023
1629797548078,-0.29365399999999997,-0.81313,0.454023
1629797548087,-0.29365399999999997,-0.812581,0.453413
1629797548097,-0.293898,-0.8133739999999999,0.452803
1629797548107,-0.293715,-0.813496,0.453169
1629797548116,-0.29402,-0.813496,0.453474
1629797548126,-0.29426399999999997,-0.813191,0.454572
1629797548135,-0.294508,-0.813435,0.45444999999999997
1629797548145,-0.295545,-0.813252,0.454023
1629797548155,-0.29548399999999997,-0.8130689999999999,0.454389
1629797548164,-0.29517899999999997,-0.812886,0.454267
1629797548174,-0.295301,-0.811971,0.45505999999999996
1629797548183,-0.29548399999999997,-0.812398,0.453718
1629797548193,-0.29646,-0.81313,0.452864
1629797548203,-0.296582,-0.81374,0.45261999999999997
1629797548212,-0.29670399999999997,-0.814472,0.45322999999999997
1629797548222,-0.296887,-0.81435,0.452803
1629797548231,-0.29761899999999997,-0.814472,0.45322999999999997
1629797548241,-0.297497,-0.814045,0.452803
1629797548251,-0.297192,-0.813496,0.451949
1629797548260,-0.29707,-0.812947,0.451644
1629797548270,-0.29761899999999997,-0.813435,0.450912
1629797548279,-0.298107,-0.81313,0.450668
1629797548289,-0.297741,-0.813557,0.451461
1629797548299,-0.297192,-0.813191,0.450363
1629797548308,-0.297802,-0.813191,0.45109499999999997
1629797548318,-0.297131,-0.8130689999999999,0.45078999999999997
1629797548327,-0.297253,-0.813862,0.450729
1629797548337,-0.297558,-0.814777,0.449448
1629797548347,-0.29768,-0.815875,0.449021
1629797548356,-0.297558,-0.816668,0.44773999999999997
1629797548366,-0.297436,-0.81679,0.447984
1629797548375,-0.296887,-0.817766,0.447496
1629797548385,-0.296948,-0.818681,0.448106
1629797548395,-0.29646,-0.81862,0.447984
1629797548404,-0.29700899999999997,-0.818986,0.447679
1629797548414,-0.29639899999999997,-0.818742,0.446459
1629797548423,-0.296033,-0.818376,0.447496
1629797548433,-0.295667,-0.818986,0.447923
1629797548443,-0.29517899999999997,-0.818376,0.447923
1629797548452,-0.294691,-0.817644,0.446093
1629797548462,-0.293776,-0.816912,0.446581
1629797548471,-0.29395899999999997,-0.816851,0.445971
1629797548481,-0.29402,-0.816363,0.44456799999999996
1629797548491,-0.292251,-0.8164239999999999,0.445117
1629797548500,-0.293288,-0.816851,0.444812
1629797548510,-0.292251,-0.816729,0.445544
1629797548519,-0.291641,-0.817156,0.446093
1629797548529,-0.29158,-0.817339,0.44652
1629797548539,-0.292068,-0.8174,0.445361
1629797548548,-0.291153,-0.81679,0.4453
1629797548558,-0.29212899999999997,-0.817522,0.444934
1629797548567,-0.291702,-0.818376,0.445178
1629797548577,-0.292007,-0.817888,0.444629
1629797548587,-0.29097,-0.818193,0.444019
1629797548596,-0.290726,-0.818498,0.444324
1629797548606,-0.290543,-0.818193,0.44469
1629797548615,-0.291458,-0.816729,0.445361
1629797548625,-0.29243399999999997,-0.816607,0.445178
1629797548635,-0.29273899999999997,-0.816241,0.447557
1629797548644,-0.293288,-0.81679,0.449631
1629797548654,-0.293898,-0.817583,0.45017999999999997
1629797548663,-0.29341,-0.817034,0.447801
1629797548673,-0.294447,-0.816607,0.444812
1629797548683,-0.293288,-0.818315,0.445605
1629797548692,-0.2928,-0.819779,0.447069
1629797548702,-0.293105,-0.82045,0.448472
1629797548711,-0.293715,-0.820328,0.448777
1629797548721,-0.29341,-0.82045,0.447679
1629797548731,-0.293532,-0.820755,0.447923
1629797548740,-0.29365399999999997,-0.820999,0.446581
1629797548750,-0.293776,-0.820328,0.44591
1629797548759,-0.293105,-0.820999,0.445605
1629797548769,-0.29243399999999997,-0.819779,0.446154
1629797548779,-0.292312,-0.819169,0.446093
1629797548788,-0.29273899999999997,-0.818071,0.44652
1629797548798,-0.292617,-0.817888,0.447801
1629797548807,-0.292373,-0.8161189999999999,0.448411
1629797548817,-0.292495,-0.816729,0.450363
1629797548827,-0.292556,-0.81679,0.451034
1629797548836,-0.292617,-0.8158139999999999,0.452193
1629797548846,-0.292068,-0.814716,0.453291
1629797548855,-0.29243399999999997,-0.814411,0.454084
1629797548865,-0.292373,-0.81374,0.45383999999999997
1629797548875,-0.291824,-0.813252,0.45383999999999997
1629797548884,-0.291824,-0.81435,0.45383999999999997
1629797548894,-0.29158,-0.813923,0.454023
1629797548903,-0.291763,-0.812825,0.452742
1629797548913,-0.29212899999999997,-0.812276,0.453901
1629797548923,-0.290604,-0.810385,0.457805
1629797548932,-0.29219,-0.810995,0.45994
1629797548942,-0.291214,-0.809531,0.460123
1629797548951,-0.290482,-0.809287,0.45872
1629797548961,-0.290848,-0.808433,0.455792
1629797548971,-0.290238,-0.808006,0.454023
1629797548980,-0.290604,-0.8087989999999999,0.45353499999999997
1629797548990,-0.28975,-0.811056,0.454633
1629797548999,-0.288957,-0.812642,0.45566999999999996
1629797549009,-0.289201,-0.812947,0.45566999999999996
1629797549019,-0.290238,-0.8145939999999999,0.455548
1629797549028,-0.290726,-0.816546,0.455426
1629797549038,-0.290238,-0.816058,0.455609
1629797549047,-0.29097,-0.816241,0.454267
1629797549057,-0.291031,-0.816546,0.454267
1629797549067,-0.290482,-0.817034,0.45322999999999997
1629797549076,-0.290848,-0.817583,0.452193
1629797549086,-0.291519,-0.817461,0.453169
1629797549095,-0.291641,-0.817217,0.453047
1629797549105,-0.29158,-0.817095,0.453474
1629797549115,-0.292495,-0.816912,0.453352
1629797549124,-0.291641,-0.8161189999999999,0.453474
1629797549134,-0.292251,-0.815143,0.452986
1629797549143,-0.29212899999999997,-0.81557,0.452986
1629797549153,-0.292495,-0.814655,0.453413
1629797549163,-0.292068,-0.814472,0.453901
1629797549172,-0.29212899999999997,-0.81374,0.453596
1629797549182,-0.2928,-0.814106,0.45292499999999997
1629797549191,-0.293105,-0.814228,0.452071
1629797549201,-0.293105,-0.8145939999999999,0.451583
1629797549211,-0.292556,-0.8145939999999999,0.45200999999999997
1629797549220,-0.292556,-0.814655,0.452498
1629797549230,-0.293105,-0.813862,0.452437
1629797549239,-0.29273899999999997,-0.813862,0.452803
1629797549249,-0.292068,-0.813557,0.453047
1629797549259,-0.292556,-0.813008,0.452071
1629797549268,-0.29219,-0.8136789999999999,0.451766
1629797549278,-0.291641,-0.81374,0.45170499999999997
1629797549287,-0.291275,-0.8133739999999999,0.45109499999999997
1629797549297,-0.291702,-0.814228,0.449814
1629797549307,-0.291092,-0.814228,0.449753
1629797549316,-0.290909,-0.8142889999999999,0.44926499999999997
1629797549326,-0.29036,-0.8145939999999999,0.449326
1629797549335,-0.289445,-0.815753,0.448411
1629797549345,-0.290604,-0.815387,0.448106
1629797549355,-0.290055,-0.817095,0.448106
1629797549364,-0.289689,-0.816973,0.448228
1629797549374,-0.290421,-0.818437,0.447862
1629797549383,-0.28914,-0.820267,0.447862
1629797549393,-0.289933,-0.820694,0.44743499999999997
1629797549403,-0.28914,-0.820511,0.445788
1629797549412,-0.289201,-0.820755,0.445483
1629797549422,-0.289811,-0.82106,0.4453
1629797549431,-0.28914,-0.822402,0.444812
1629797549441,-0.289506,-0.821609,0.445056
1629797549451,-0.28914,-0.821609,0.444507
1629797549460,-0.290238,-0.821914,0.445727
1629797549470,-0.290421,-0.822036,0.446581
1629797549479,-0.291031,-0.82289,0.446032
1629797549489,-0.291763,-0.822036,0.44743499999999997
1629797549499,-0.291702,-0.82167,0.44743499999999997
1629797549508,-0.291214,-0.821304,0.448472
1629797549518,-0.291031,-0.819413,0.447801
1629797549527,-0.291031,-0.81923,0.447496
1629797549537,-0.291336,-0.818864,0.44773999999999997
1629797549547,-0.290848,-0.818315,0.44773999999999997
1629797549556,-0.291641,-0.818681,0.449082
1629797549566,-0.291946,-0.817461,0.449021
1629797549575,-0.291763,-0.8164239999999999,0.448533
1629797549585,-0.29158,-0.814472,0.45017999999999997
1629797549595,-0.292007,-0.814655,0.452437
1629797549604,-0.292373,-0.8139839999999999,0.452742
1629797549614,-0.29158,-0.813618,0.453718
1629797549623,-0.291275,-0.8121539999999999,0.45139999999999997
1629797549633,-0.291031,-0.812581,0.448716
1629797549643,-0.290543,-0.812703,0.448167
1629797549652,-0.290238,-0.814167,0.450424
1629797549662,-0.290299,-0.81435,0.450607
1629797549671,-0.29036,-0.81618,0.450912
1629797549681,-0.29036,-0.816912,0.450729
1629797549691,-0.290604,-0.817888,0.45078999999999997
1629797549700,-0.290421,-0.817705,0.449997
1629797549710,-0.290909,-0.819535,0.449204
1629797549719,-0.291885,-0.819291,0.44865499999999997
1629797549729,-0.29212899999999997,-0.819413,0.447496
1629797549739,-0.29219,-0.818742,0.447984
1629797549748,-0.292068,-0.819352,0.44834999999999997
1629797549758,-0.291336,-0.81923,0.44865499999999997
1629797549767,-0.291763,-0.818437,0.44926499999999997
1629797549777,-0.291702,-0.818803,0.449204
1629797549787,-0.291824,-0.818315,0.449143
1629797549796,-0.292312,-0.817766,0.449204
1629797549806,-0.291824,-0.816729,0.449509
1629797549815,-0.29243399999999997,-0.816729,0.449021
1629797549825,-0.292251,-0.816485,0.449326
1629797549835,-0.292312,-0.816912,0.450058
1629797549844,-0.2928,-0.81618,0.44956999999999997
1629797549854,-0.292312,-0.816546,0.448777
1629797549863,-0.29243399999999997,-0.817339,0.448228
1629797549873,-0.292678,-0.817705,0.449326
1629797549883,-0.292373,-0.816485,0.45170499999999997
1629797549892,-0.293288,-0.817583,0.453474
1629797549902,-0.29365399999999997,-0.817583,0.453596
1629797549911,-0.292495,-0.815875,0.452132
1629797549921,-0.293715,-0.8155089999999999,0.45139999999999997
1629797549931,-0.293105,-0.8145939999999999,0.449692
1629797549940,-0.292312,-0.815387,0.449692
1629797549950,-0.292678,-0.8155089999999999,0.45017999999999997
1629797549959,-0.29243399999999997,-0.815021,0.450424
1629797549969,-0.293105,-0.8148989999999999,0.449997
1629797549979,-0.29273899999999997,-0.816546,0.450973
1629797549988,-0.293288,-0.816668,0.451034
1629797549998,-0.293471,-0.816058,0.450729
1629797550007,-0.294142,-0.816363,0.450607
1629797550017,-0.293715,-0.817034,0.450363
1629797550027,-0.29341,-0.816302,0.449997
1629797550036,-0.293166,-0.816729,0.448472
1629797550046,-0.29456899999999997,-0.816668,0.44956999999999997
1629797550055,-0.293593,-0.816363,0.450058
1629797550065,-0.293776,-0.816302,0.450546
1629797550075,-0.294081,-0.815143,0.44926499999999997
1629797550084,-0.293715,-0.816058,0.450546
1629797550094,-0.293227,-0.815692,0.449936
1629797550103,-0.2928,-0.815753,0.44987499999999997
1629797550113,-0.293166,-0.81679,0.449448
1629797550123,-0.29304399999999997,-0.816241,0.450058
1629797550132,-0.29273899999999997,-0.816485,0.449082
1629797550142,-0.293471,-0.817156,0.448838
1629797550151,-0.29304399999999997,-0.817217,0.448106
1629797550161,-0.293593,-0.817156,0.447923
1629797550171,-0.29304399999999997,-0.816546,0.44834999999999997
1629797550180,-0.294325,-0.817034,0.448777
1629797550190,-0.29456899999999997,-0.816851,0.448899
1629797550199,-0.294203,-0.817583,0.448533
1629797550209,-0.29395899999999997,-0.818132,0.449204
1629797550219,-0.29341,-0.818193,0.44865499999999997
1629797550228,-0.293776,-0.818864,0.448411
1629797550238,-0.294203,-0.818803,0.44743499999999997
1629797550247,-0.293593,-0.818498,0.447374
1629797550257,-0.293166,-0.817888,0.447374
1629797550267,-0.293166,-0.817644,0.447923
1629797550276,-0.29304399999999997,-0.817278,0.447923
1629797550286,-0.29334899999999997,-0.817156,0.44743499999999997
1629797550295,-0.293166,-0.817522,0.447496
1629797550305,-0.293166,-0.816729,0.447801
1629797550315,-0.292922,-0.817888,0.447191
1629797550324,-0.292922,-0.816668,0.448106
1629797550334,-0.293288,-0.817644,0.447374
1629797550343,-0.292068,-0.817766,0.44712999999999997
1629797550353,-0.291946,-0.817827,0.447374
1629797550363,-0.291824,-0.818742,0.446642
1629797550372,-0.291214,-0.819169,0.447191
1629797550382,-0.291763,-0.819352,0.44743499999999997
1629797550391,-0.291519,-0.81923,0.447557
1629797550401,-0.291702,-0.81984,0.44773999999999997
1629797550411,-0.291641,-0.819901,0.447069
1629797550420,-0.292068,-0.819413,0.446642
1629797550430,-0.291153,-0.818437,0.446215
1629797550439,-0.291336,-0.818193,0.445971
1629797550449,-0.29219,-0.818559,0.44591
1629797550459,-0.29158,-0.818376,0.446398
1629797550468,-0.291031,-0.818742,0.446947
1629797550478,-0.291092,-0.819413,0.44712999999999997
1629797550487,-0.291824,-0.819047,0.447069
1629797550497,-0.292007,-0.818376,0.447191
1629797550507,-0.292373,-0.818803,0.44652
1629797550516,-0.29273899999999997,-0.818498,0.447618
1629797550526,-0.29334899999999997,-0.819291,0.447618
1629797550535,-0.292007,-0.818742,0.447496
1629797550545,-0.293227,-0.818864,0.447496
1629797550555,-0.293166,-0.81923,0.446703
1629797550564,-0.29304399999999997,-0.819596,0.449387
1629797550574,-0.292983,-0.818925,0.448838
1629797550583,-0.293288,-0.8174,0.448472
1629797550593,-0.292983,-0.8161189999999999,0.45048499999999997
1629797550603,-0.292495,-0.81618,0.452559
1629797550612,-0.292495,-0.8152039999999999,0.453901
1629797550622,-0.291946,-0.814533,0.453108
1629797550631,-0.291702,-0.8133739999999999,0.451339
1629797550641,-0.291397,-0.8130689999999999,0.448289
1629797550651,-0.290787,-0.8136789999999999,0.448228
1629797550660,-0.290543,-0.815082,0.44926499999999997
1629797550670,-0.290726,-0.815631,0.451949
1629797550679,-0.291702,-0.815692,0.45078999999999997
1629797550689,-0.291092,-0.8161189999999999,0.451827
1629797550699,-0.291458,-0.817278,0.45170499999999997
1629797550708,-0.291458,-0.817156,0.450607
1629797550718,-0.291885,-0.816607,0.44987499999999997
1629797550727,-0.29243399999999997,-0.817583,0.44865499999999997
1629797550737,-0.291763,-0.817949,0.448716
1629797550747,-0.292678,-0.817339,0.448228
1629797550756,-0.292251,-0.817888,0.448777
1629797550766,-0.291946,-0.816851,0.448777
1629797550775,-0.292251,-0.816241,0.449326
1629797550785,-0.292617,-0.8158139999999999,0.450607
1629797550795,-0.293288,-0.8152039999999999,0.450668
1629797550804,-0.293593,-0.81435,0.451339
1629797550814,-0.29402,-0.8130689999999999,0.450912
1629797550823,-0.294081,-0.8130689999999999,0.450973
1629797550833,-0.294386,-0.813191,0.452132
1629797550843,-0.294386,-0.812825,0.451583
1629797550852,-0.294752,-0.81374,0.45261999999999997
1629797550862,-0.294691,-0.81435,0.451888
1629797550871,-0.294996,-0.81496,0.45139999999999997
1629797550881,-0.295911,-0.816058,0.451461
1629797550891,-0.29517899999999997,-0.816302,0.453108
1629797550900,-0.296155,-0.815875,0.456341
1629797550910,-0.29639899999999997,-0.8145939999999999,0.456951
1629797550919,-0.295545,-0.814472,0.455548
1629797550929,-0.29548399999999997,-0.8152039999999999,0.454572
1629797550939,-0.294813,-0.814716,0.45261999999999997
1629797550948,-0.29456899999999997,-0.813313,0.451949
1629797550958,-0.29402,-0.813618,0.45292499999999997
1629797550967,-0.293837,-0.814838,0.453108
1629797550977,-0.293166,-0.815448,0.452864
1629797550987,-0.29304399999999997,-0.816058,0.452376
1629797550996,-0.293288,-0.816485,0.452132
1629797551006,-0.293471,-0.816302,0.450851
1629797551015,-0.293288,-0.815753,0.449509
1629797551025,-0.293471,-0.816668,0.450058
1629797551035,-0.293715,-0.817278,0.451644
1629797551044,-0.294203,-0.81679,0.451461
1629797551054,-0.294508,-0.815936,0.450912
1629797551063,-0.29463,-0.815326,0.451827
1629797551073,-0.29487399999999997,-0.815753,0.451766
1629797551083,-0.294508,-0.815326,0.453596
1629797551092,-0.29524,-0.8142889999999999,0.453169
1629797551102,-0.295423,-0.813252,0.452498
1629797551111,-0.29517899999999997,-0.812825,0.45261999999999997
1629797551121,-0.294508,-0.813313,0.452376
1629797551131,-0.295057,-0.813252,0.453108
1629797551140,-0.29585,-0.8127639999999999,0.452437
1629797551150,-0.295423,-0.812642,0.452132
1629797551159,-0.296033,-0.812642,0.45170499999999997
1629797551169,-0.29609399999999997,-0.81191,0.451644
1629797551179,-0.294813,-0.813008,0.452193
1629797551188,-0.296155,-0.812947,0.45170499999999997
1629797551198,-0.295118,-0.8124589999999999,0.452498
1629797551207,-0.295301,-0.81313,0.451766
1629797551217,-0.29548399999999997,-0.813435,0.451827
1629797551227,-0.29585,-0.812642,0.451888
1629797551236,-0.29517899999999997,-0.81313,0.45170499999999997
1629797551246,-0.29585,-0.8136789999999999,0.451034
1629797551255,-0.29609399999999997,-0.8139839999999999,0.451522
1629797551265,-0.295911,-0.812886,0.451522
1629797551275,-0.29548399999999997,-0.812703,0.451278
1629797551284,-0.29578899999999997,-0.812886,0.45261999999999997
1629797551294,-0.295972,-0.813191,0.45261999999999997
1629797551303,-0.295728,-0.81313,0.45170499999999997
1629797551313,-0.294996,-0.814106,0.450668
1629797551323,-0.294996,-0.81435,0.450119
1629797551332,-0.29463,-0.814655,0.450302
1629797551342,-0.293898,-0.8142889999999999,0.45017999999999997
1629797551351,-0.294691,-0.813496,0.450851
1629797551361,-0.294386,-0.813923,0.450058
1629797551371,-0.29463,-0.8142889999999999,0.449509
1629797551380,-0.294813,-0.8158139999999999,0.450546
1629797551390,-0.29463,-0.816485,0.449692
1629797551399,-0.29487399999999997,-0.816668,0.44987499999999997
1629797551409,-0.294386,-0.815265,0.450607
1629797551419,-0.293837,-0.8164239999999999,0.449082
1629797551428,-0.293776,-0.816973,0.448838
1629797551438,-0.293776,-0.817766,0.447862
1629797551447,-0.294752,-0.81679,0.447984
1629797551457,-0.294386,-0.818132,0.448716
1629797551467,-0.293715,-0.818498,0.44956999999999997
1629797551476,-0.293715,-0.817583,0.448899
1629797551486,-0.29395899999999997,-0.817278,0.448106
1629797551495,-0.293837,-0.81801,0.44926499999999997
1629797551505,-0.29395899999999997,-0.817827,0.449326
1629797551515,-0.294752,-0.818193,0.449326
1629797551524,-0.295423,-0.8174,0.449631
1629797551534,-0.294752,-0.817156,0.44956999999999997
1629797551543,-0.295362,-0.817705,0.449814
1629797551553,-0.294691,-0.817217,0.448106
1629797551563,-0.295118,-0.817156,0.449082
1629797551572,-0.29524,-0.817217,0.449509
1629797551582,-0.294508,-0.816241,0.450302
1629797551591,-0.294203,-0.8148989999999999,0.45017999999999997
1629797551601,-0.295301,-0.8139839999999999,0.449082
1629797551611,-0.294996,-0.812337,0.450302
1629797551620,-0.295545,-0.810568,0.45139999999999997
1629797551630,-0.29524,-0.811178,0.452437
1629797551639,-0.29517899999999997,-0.811666,0.453779
1629797551649,-0.29548399999999997,-0.812093,0.45414499999999997
1629797551659,-0.296643,-0.8133739999999999,0.451949
1629797551668,-0.294996,-0.814777,0.448838
1629797551678,-0.29487399999999997,-0.816058,0.44743499999999997
1629797551687,-0.294203,-0.817339,0.44926499999999997
1629797551697,-0.29365399999999997,-0.818132,0.450302
1629797551707,-0.293898,-0.818376,0.449326
1629797551716,-0.29402,-0.817705,0.447496
1629797551726,-0.293288,-0.81801,0.447557
1629797551735,-0.292983,-0.817217,0.445361
1629797551745,-0.293471,-0.817583,0.44408
1629797551755,-0.294081,-0.818254,0.444019
1629797551764,-0.293593,-0.817705,0.445117
1629797551774,-0.293105,-0.817339,0.445788
1629797551783,-0.293898,-0.817156,0.445361
1629797551793,-0.29334899999999997,-0.81679,0.44652
1629797551803,-0.29426399999999997,-0.817156,0.447252
1629797551812,-0.293837,-0.816668,0.447191
1629797551822,-0.295057,-0.817766,0.446276
1629797551831,-0.294386,-0.818132,0.446398
1629797551841,-0.29402,-0.817095,0.446337
1629797551851,-0.294325,-0.817827,0.447191
1629797551860,-0.295545,-0.817949,0.446764
1629797551870,-0.295362,-0.818254,0.447252
1629797551879,-0.29524,-0.818132,0.447374
1629797551889,-0.294996,-0.818864,0.447008
1629797551899,-0.29456899999999997,-0.819596,0.445239
1629797551908,-0.295545,-0.819352,0.445849
1629797551918,-0.29463,-0.818803,0.449143
1629797551927,-0.294691,-0.818193,0.450973
1629797551937,-0.294996,-0.817827,0.451583
1629797551947,-0.294203,-0.816363,0.449448
1629797551956,-0.293776,-0.814472,0.446398
1629797551966,-0.29365399999999997,-0.81435,0.445849
1629797551975,-0.29365399999999997,-0.814716,0.446154
1629797551985,-0.294447,-0.81557,0.447496
1629797551995,-0.293471,-0.816546,0.449204
1629797552004,-0.29402,-0.817766,0.450607
1629797552014,-0.29365399999999997,-0.817949,0.450241
1629797552023,-0.29426399999999997,-0.818254,0.449631
1629797552033,-0.293288,-0.818193,0.449631
1629797552043,-0.293288,-0.818193,0.449204
1629797552052,-0.293471,-0.816607,0.448594
1629797552062,-0.293837,-0.817339,0.448533
1629797552071,-0.293166,-0.817522,0.448472
1629797552081,-0.293776,-0.817949,0.448533
1629797552091,-0.29341,-0.817095,0.449021
1629797552100,-0.29395899999999997,-0.818132,0.44956999999999997
1629797552110,-0.29341,-0.817278,0.449448
1629797552119,-0.293532,-0.817461,0.450607
1629797552129,-0.293837,-0.817095,0.451217
1629797552139,-0.293898,-0.816607,0.45139999999999997
1629797552148,-0.29395899999999997,-0.81618,0.449997
1629797552158,-0.293837,-0.81618,0.451156
