timestamp,ax,ay,az
1631204255179,0.06954,0.9703269999999999,0.21862399999999999
1631204255188,0.06893,0.970754,0.219722
1631204255198,0.068381,0.968375,0.219173
1631204255208,0.066612,0.966728,0.217526
1631204255217,0.066612,0.9663619999999999,0.21777
1631204255227,0.066124,0.965874,0.217953
1631204255236,0.066795,0.964532,0.218441
1631204255246,0.064843,0.9638,0.216916
1631204255256,0.066917,0.963007,0.21520799999999998
1631204255265,0.067527,0.962946,0.2135
1631204255275,0.066734,0.962702,0.21154799999999999
1631204255284,0.066978,0.963007,0.211975
1631204255294,0.066612,0.962092,0.213927
1631204255304,0.063989,0.96197,0.214354
1631204255313,0.062647,0.9612379999999999,0.217648
1631204255323,0.061426999999999995,0.961055,0.22082
1631204255332,0.059841,0.961055,0.223626
1631204255342,0.058377,0.959774,0.227896
1631204255352,0.057462,0.958981,0.231312
1631204255361,0.057828,0.95831,0.23125099999999998
1631204255371,0.058987,0.959347,0.232349
1631204255380,0.060573,0.959896,0.23247099999999998
1631204255390,0.062159,0.960506,0.23058
1631204255400,0.063867,0.9618479999999999,0.230397
1631204255409,0.06417199999999999,0.962214,0.229238
1631204255419,0.063745,0.960079,0.230275
1631204255428,0.063928,0.960384,0.229238
1631204255438,0.064721,0.961909,0.228567
1631204255448,0.065148,0.962641,0.230458
1631204255457,0.064294,0.962275,0.23058
1631204255467,0.06344,0.961787,0.227408
1631204255476,0.065026,0.959835,0.224846
1631204135237,-0.081069,0.885293,0.44225
1631204135246,-0.080886,0.8845,0.441579
1631204135256,-0.079666,0.885232,0.44212799999999997
1631204135265,-0.080581,0.885354,0.44090799999999997
1631204135275,-0.081435,0.885537,0.442311
1631204135285,-0.080825,0.885232,0.442372
1631204135294,-0.08064199999999999,0.884805,0.442921
1631204135304,-0.081496,0.885964,0.442921
1631204135313,-0.081435,0.88511,0.443165
1631204135323,-0.081618,0.883829,0.44225
1631204135333,-0.08265499999999999,0.882487,0.442555
1631204135342,-0.083936,0.883829,0.442372
1631204135352,-0.083204,0.8848659999999999,0.444141
1631204135361,-0.084241,0.88633,0.4453
1631204135371,-0.082228,0.886818,0.447191
1631204135381,-0.081496,0.886818,0.44834999999999997
1631204135390,-0.08174,0.8863909999999999,0.447008
1631204135400,-0.081618,0.88633,0.445239
1631204135409,-0.081557,0.884195,0.442677
1631204135419,-0.082228,0.8830359999999999,0.44042
1631204135429,-0.080764,0.88206,0.43981
1631204135438,-0.0793,0.882487,0.43981
1631204135448,-0.079544,0.883768,0.441274
1631204135457,-0.07869,0.883097,0.441579
1631204135467,-0.078934,0.8836459999999999,0.44273799999999996
1631204135477,-0.078385,0.884622,0.442982
1631204135486,-0.077714,0.884622,0.44121299999999997
1631204135496,-0.078324,0.884317,0.44029799999999997
1631204135505,-0.078324,0.884683,0.439871
1631204135515,-0.078629,0.885537,0.43981
1631204135525,-0.078446,0.885354,0.439749
1631204135534,-0.078507,0.8854759999999999,0.439871
1631204135544,-0.078751,0.886269,0.440237
1631204135553,-0.077836,0.887062,0.439871
1631204135563,-0.07808,0.88633,0.440359
1631204135573,-0.078263,0.887062,0.440725
1631204135582,-0.079178,0.8873059999999999,0.44029799999999997
1631204135592,-0.078141,0.88755,0.439871
1631204135601,-0.079971,0.885598,0.43981
1631204135611,-0.07991,0.885964,0.440237
1631204135621,-0.081008,0.886757,0.440725
1631204135630,-0.081496,0.8863909999999999,0.44042
1631204135640,-0.080581,0.886452,0.442006
1631204135649,-0.079605,0.8863909999999999,0.44426299999999996
1631204135659,-0.080581,0.886025,0.445788
1631204135669,-0.081069,0.884927,0.445178
1631204135678,-0.080947,0.88511,0.44365299999999996
1631204135688,-0.080581,0.884744,0.441762
1631204135697,-0.081252,0.884927,0.440664
1631204135707,-0.080093,0.884805,0.440237
1631204135717,-0.08003199999999999,0.8857809999999999,0.440725
1631204135726,-0.080459,0.886208,0.442982
1631204135736,-0.080581,0.886269,0.443775
1631204135745,-0.079544,0.88694,0.443592
1631204135755,-0.079666,0.886879,0.443775
1631204135765,-0.08033699999999999,0.886452,0.443714
1631204135774,-0.079544,0.887428,0.443165
1631204135784,-0.07869,0.8873059999999999,0.442555
1631204135793,-0.078507,0.8870009999999999,0.442372
1631204135803,-0.077775,0.886452,0.440237
1631204135813,-0.078202,0.885598,0.43981
1631204135822,-0.07710399999999999,0.884439,0.44164
1631204135832,-0.077287,0.883219,0.441701
1631204135841,-0.07649399999999999,0.8839509999999999,0.442555
1631204135851,-0.076982,0.8836459999999999,0.442982
1631204135861,-0.07686,0.883219,0.443775
1631204135870,-0.076677,0.8839509999999999,0.443531
1631204135880,-0.076677,0.8845,0.443592
1631204135889,-0.076311,0.884012,0.442982
1631204135899,-0.07679899999999999,0.88328,0.442799
1631204135909,-0.075762,0.883219,0.441884
1631204135918,-0.07564,0.8830359999999999,0.442189
1631204135928,-0.07625,0.883768,0.44151799999999997
1631204135937,-0.076555,0.884378,0.441274
1631204135947,-0.075823,0.8842559999999999,0.440176
1631204135957,-0.07618899999999999,0.884744,0.440359
1631204135966,-0.076616,0.885598,0.440176
1631204135976,-0.07686,0.886208,0.44182299999999997
1631204135985,-0.077348,0.8860859999999999,0.440847
1631204135995,-0.077348,0.8863909999999999,0.441274
1631204136005,-0.07686,0.8873059999999999,0.441274
1631204136014,-0.076982,0.886513,0.441884
1631204136024,-0.07740899999999999,0.886757,0.44090799999999997
1631204136033,-0.078324,0.886574,0.441701
1631204136043,-0.078202,0.8870009999999999,0.441762
1631204136053,-0.07869,0.886818,0.44225
1631204136062,-0.079666,0.8860859999999999,0.44225
1631204136072,-0.078751,0.886208,0.442372
1631204136081,-0.078568,0.885537,0.442982
1631204136091,-0.079788,0.88572,0.442799
1631204136101,-0.079483,0.886208,0.443409
1631204136110,-0.078629,0.8866959999999999,0.44225
1631204136120,-0.07869,0.88633,0.44182299999999997
1631204136129,-0.078995,0.8854759999999999,0.440847
1631204136139,-0.077531,0.885415,0.440115
1631204136149,-0.078629,0.886635,0.44164
1631204136158,-0.077165,0.88572,0.440237
1631204136168,-0.077531,0.886208,0.438834
1631204136177,-0.077287,0.886025,0.440176
1631204136187,-0.077653,0.886757,0.438712
1631204136197,-0.078202,0.886757,0.43968799999999997
1631204136206,-0.078324,0.887428,0.440542
1631204136216,-0.078141,0.886757,0.441396
1631204136225,-0.078446,0.886147,0.442372
1631204136235,-0.078873,0.885415,0.441701
1631204136245,-0.079971,0.885415,0.441884
1631204136254,-0.07911699999999999,0.8860859999999999,0.442494
1631204136264,-0.079361,0.8842559999999999,0.442494
1631204136273,-0.080459,0.8824259999999999,0.441579
1631204136283,-0.081557,0.88267,0.440786
1631204136293,-0.081557,0.884622,0.441762
1631204136302,-0.080703,0.886269,0.44334799999999996
1631204136312,-0.078751,0.886818,0.444324
1631204136321,-0.078141,0.8873059999999999,0.445422
1631204136331,-0.078934,0.887794,0.445605
1631204136341,-0.079483,0.887428,0.443226
1631204136350,-0.079178,0.885659,0.44029799999999997
1631204136360,-0.078568,0.885049,0.437675
1631204136369,-0.079239,0.884744,0.436516
1631204136379,-0.078019,0.8854759999999999,0.43676
1631204136389,-0.07710399999999999,0.886025,0.437675
1631204136398,-0.076738,0.885964,0.438285
1631204136408,-0.077226,0.8866959999999999,0.43938299999999997
1631204136417,-0.076006,0.88633,0.44090799999999997
1631204136427,-0.076677,0.886208,0.43968799999999997
1631204136437,-0.075457,0.887123,0.438041
1631204136446,-0.076677,0.886269,0.43633299999999997
1631204136456,-0.076677,0.886147,0.435662
1631204136465,-0.077348,0.887184,0.435784
1631204136475,-0.077348,0.888465,0.436394
1631204136485,-0.077592,0.889014,0.43724799999999997
1631204136494,-0.07710399999999999,0.889868,0.438407
1631204136504,-0.077226,0.889075,0.437797
1631204136513,-0.077592,0.88816,0.43938299999999997
1631204136523,-0.076372,0.887855,0.4392
1631204136533,-0.077592,0.887123,0.43938299999999997
1631204136542,-0.07747,0.884988,0.438346
1631204136552,-0.078751,0.885354,0.437126
1631204136561,-0.078873,0.88572,0.43615
1631204136571,-0.078202,0.8845,0.43541799999999997
1631204136581,-0.077531,0.885293,0.43694299999999997
1631204136590,-0.078446,0.88633,0.440786
1631204136600,-0.07869,0.887428,0.442494
1631204136609,-0.07942199999999999,0.887977,0.443104
1631204136619,-0.079483,0.887062,0.44225
1631204136629,-0.079544,0.8870009999999999,0.441396
1631204136638,-0.0793,0.887855,0.440237
1631204136648,-0.079483,0.887672,0.439627
1631204136657,-0.078751,0.887794,0.439749
1631204136667,-0.078629,0.888099,0.440237
1631204136677,-0.077836,0.8885259999999999,0.440542
1631204136686,-0.078141,0.888648,0.441152
1631204136696,-0.078446,0.888892,0.44225
1631204136705,-0.077714,0.889197,0.44334799999999996
1631204136715,-0.078141,0.887672,0.443226
1631204136725,-0.079239,0.885903,0.442982
1631204136734,-0.077775,0.885659,0.443165
1631204136744,-0.078934,0.884378,0.44395799999999996
1631204136753,-0.078202,0.884744,0.444507
1631204136763,-0.078385,0.884012,0.445422
1631204136773,-0.077226,0.8830359999999999,0.446337
1631204136782,-0.07710399999999999,0.882914,0.446886
1631204136792,-0.07625,0.88206,0.447923
1631204136801,-0.07625,0.881389,0.448533
1631204136811,-0.07625,0.88145,0.44804499999999997
1631204136821,-0.075762,0.880962,0.447374
1631204136830,-0.074847,0.8805959999999999,0.44712999999999997
1631204136840,-0.074298,0.881267,0.446276
1631204136849,-0.073688,0.88084,0.445788
1631204136859,-0.073383,0.88084,0.44469
1631204136869,-0.073688,0.8815109999999999,0.4453
1631204136878,-0.073444,0.88206,0.4453
1631204136888,-0.074054,0.882853,0.445971
1631204136897,-0.072834,0.883097,0.446886
1631204136907,-0.073749,0.882304,0.446154
1631204136917,-0.074786,0.8830359999999999,0.444873
1631204136926,-0.074969,0.883402,0.445117
1631204136936,-0.074725,0.883585,0.44456799999999996
1631204136945,-0.074298,0.882975,0.444446
1631204136955,-0.074298,0.8845,0.443592
1631204136965,-0.074969,0.884927,0.443775
1631204136974,-0.074725,0.8845,0.443592
1631204136984,-0.075945,0.8851709999999999,0.444141
1631204136993,-0.07618899999999999,0.8854759999999999,0.444019
1631204137003,-0.076128,0.8842559999999999,0.444446
1631204137013,-0.077653,0.883768,0.444934
1631204137022,-0.078507,0.884195,0.445178
1631204137032,-0.078385,0.883524,0.446642
1631204137041,-0.077897,0.8830359999999999,0.446947
1631204137051,-0.078324,0.88267,0.44773999999999997
1631204137061,-0.07869,0.883097,0.447496
1631204137070,-0.078324,0.882792,0.447008
1631204137080,-0.078446,0.883585,0.447252
1631204137089,-0.078995,0.883524,0.446459
1631204137099,-0.078446,0.884378,0.44591
1631204137109,-0.07747,0.884012,0.445544
1631204137118,-0.078568,0.8845,0.445178
1631204137128,-0.07869,0.884439,0.445605
1631204137137,-0.078934,0.885537,0.445727
1631204137147,-0.078873,0.88633,0.446581
1631204137157,-0.079178,0.885232,0.44682499999999997
1631204137166,-0.078141,0.884378,0.446154
1631204137176,-0.07869,0.882792,0.443226
1631204137185,-0.077958,0.883524,0.442494
1631204137195,-0.078324,0.8830359999999999,0.441335
1631204137205,-0.079483,0.88206,0.441335
1631204137214,-0.080459,0.884683,0.44103
1631204137224,-0.079849,0.886574,0.442189
1631204137233,-0.078568,0.8885259999999999,0.443592
1631204137243,-0.077531,0.88816,0.444202
1631204137253,-0.078751,0.887672,0.443104
1631204137262,-0.078812,0.8882209999999999,0.44151799999999997
1631204137272,-0.078629,0.886513,0.43859
1631204137281,-0.07747,0.884927,0.437309
1631204137291,-0.077836,0.884622,0.43633299999999997
1631204137301,-0.07808,0.885537,0.437431
1631204137310,-0.077287,0.88511,0.438529
1631204137320,-0.077653,0.885598,0.437919
1631204137329,-0.077043,0.8860859999999999,0.43846799999999997
1631204137339,-0.077165,0.8857809999999999,0.436272
1631204137349,-0.077043,0.886574,0.43602799999999997
1631204137358,-0.077043,0.886574,0.43615
1631204137368,-0.077714,0.887123,0.435052
1631204137377,-0.078568,0.8882209999999999,0.434808
1631204137387,-0.078141,0.8888309999999999,0.434503
1631204137397,-0.077897,0.889075,0.435845
1631204137406,-0.079056,0.890234,0.437065
1631204137416,-0.079056,0.88999,0.438285
1631204137425,-0.078324,0.890417,0.438041
1631204137435,-0.07942199999999999,0.889502,0.438956
1631204137445,-0.078812,0.8879159999999999,0.438956
1631204137454,-0.080276,0.885537,0.437736
1631204137464,-0.079849,0.885964,0.437187
1631204137473,-0.079849,0.88694,0.435967
1631204137483,-0.079483,0.8860859999999999,0.43602799999999997
1631204137493,-0.078019,0.887794,0.438102
1631204137502,-0.078385,0.8885259999999999,0.43981
1631204137512,-0.078202,0.889258,0.43846799999999997
1631204137521,-0.077958,0.888404,0.438651
1631204137531,-0.07808,0.888099,0.43694299999999997
1631204137541,-0.077653,0.888404,0.43694299999999997
1631204137550,-0.07747,0.889319,0.43694299999999997
1631204137560,-0.076372,0.8891359999999999,0.43663799999999997
1631204137569,-0.077287,0.889563,0.435235
1631204137579,-0.075213,0.889868,0.43493
1631204137589,-0.075945,0.890234,0.435967
1631204137598,-0.076555,0.890844,0.43737
1631204137608,-0.075762,0.890295,0.43785799999999997
1631204137617,-0.076738,0.889685,0.43907799999999997
1631204137627,-0.076067,0.889197,0.43907799999999997
1631204137637,-0.077226,0.887977,0.439444
1631204137646,-0.077165,0.8876109999999999,0.440054
1631204137656,-0.07649399999999999,0.8866959999999999,0.43981
1631204137665,-0.07503,0.887123,0.438895
1631204137675,-0.075396,0.886513,0.439017
1631204137685,-0.074664,0.886269,0.43859
1631204137694,-0.07442,0.88633,0.43999299999999997
1631204137704,-0.07356599999999999,0.88633,0.439932
1631204137713,-0.07417599999999999,0.885842,0.43981
1631204137723,-0.074237,0.885415,0.440115
1631204137733,-0.074969,0.884988,0.439871
1631204137742,-0.075152,0.885293,0.440237
1631204137752,-0.07625,0.885049,0.439749
1631204137761,-0.075091,0.885537,0.439139
1631204137771,-0.075945,0.884378,0.439322
1631204137781,-0.076372,0.88511,0.43981
1631204137790,-0.075518,0.885659,0.43938299999999997
1631204137800,-0.07649399999999999,0.8854759999999999,0.438712
1631204137809,-0.076616,0.885598,0.43859
1631204137819,-0.076677,0.886025,0.437614
1631204137829,-0.07686,0.887184,0.437126
1631204137838,-0.077287,0.886635,0.436211
1631204137848,-0.07747,0.887245,0.437004
1631204137857,-0.077897,0.886879,0.437126
1631204137867,-0.078446,0.887428,0.437675
1631204137877,-0.079971,0.887794,0.43816299999999997
1631204137886,-0.079666,0.88816,0.438346
1631204137896,-0.079666,0.8885259999999999,0.438224
1631204137905,-0.07972699999999999,0.887672,0.43968799999999997
1631204137915,-0.078751,0.887184,0.44029799999999997
1631204137925,-0.078202,0.887428,0.440054
1631204137934,-0.078873,0.887855,0.4392
1631204137944,-0.078629,0.888099,0.438529
1631204137953,-0.078141,0.888587,0.438102
1631204137963,-0.077531,0.887428,0.436577
1631204137973,-0.07679899999999999,0.888038,0.43602799999999997
1631204137982,-0.07649399999999999,0.887794,0.436272
1631204137992,-0.077226,0.8882209999999999,0.435601
1631204138001,-0.076677,0.888282,0.43633299999999997
1631204138011,-0.07649399999999999,0.8894409999999999,0.43554
1631204138021,-0.07625,0.8894409999999999,0.434991
1631204138030,-0.077043,0.889197,0.435235
1631204138040,-0.077775,0.889746,0.434503
1631204138049,-0.07747,0.8906,0.433466
1631204138059,-0.07649399999999999,0.8906,0.432978
1631204138069,-0.076982,0.891393,0.432917
1631204138078,-0.078446,0.891454,0.433161
1631204138088,-0.078019,0.891332,0.432612
1631204138097,-0.078568,0.891088,0.432856
1631204138107,-0.079239,0.889319,0.433039
1631204138117,-0.080581,0.8870009999999999,0.43249
1631204138126,-0.081557,0.887184,0.432734
1631204138136,-0.082167,0.888343,0.434991
1631204138145,-0.081923,0.887672,0.437187
1631204138155,-0.081191,0.888648,0.439932
1631204138165,-0.080276,0.889319,0.441091
1631204138174,-0.081679,0.88999,0.44029799999999997
1631204138184,-0.081618,0.889014,0.438285
1631204138193,-0.08064199999999999,0.887062,0.435235
1631204138203,-0.07972699999999999,0.8863909999999999,0.433588
1631204138213,-0.07991,0.8873059999999999,0.43255099999999996
1631204138222,-0.077653,0.887733,0.43224599999999996
1631204138232,-0.077836,0.888465,0.433954
1631204138241,-0.07740899999999999,0.888892,0.434015
1631204138251,-0.07625,0.889258,0.433954
1631204138261,-0.07618899999999999,0.889014,0.433039
1631204138270,-0.07686,0.889197,0.43188
1631204138280,-0.075152,0.8891359999999999,0.43133099999999996
1631204138289,-0.074786,0.8885259999999999,0.43005
1631204138299,-0.076311,0.891088,0.429257
1631204138309,-0.075396,0.890966,0.42822
1631204138318,-0.075335,0.892064,0.42822
1631204138328,-0.076006,0.891759,0.429379
1631204138337,-0.076128,0.89304,0.428647
1631204138347,-0.07679899999999999,0.89304,0.428403
1631204138357,-0.07710399999999999,0.893223,0.429318
1631204138366,-0.07710399999999999,0.8942599999999999,0.429928
1631204138376,-0.077531,0.893589,0.429379
1631204138385,-0.0793,0.892247,0.42883
1631204138395,-0.079056,0.892491,0.428769
1631204138405,-0.07942199999999999,0.892064,0.429684
1631204138414,-0.0793,0.890905,0.42980599999999997
1631204138424,-0.078629,0.890844,0.431514
1631204138433,-0.078812,0.890905,0.434381
1631204138443,-0.080093,0.891698,0.435845
1631204138453,-0.080459,0.889929,0.436211
1631204138462,-0.080398,0.890295,0.434503
1631204138472,-0.079971,0.890417,0.433161
1631204138481,-0.079361,0.890295,0.432185
1631204138491,-0.078507,0.890417,0.430965
1631204138501,-0.078568,0.890295,0.431575
1631204138510,-0.078446,0.891515,0.432063
1631204138520,-0.078263,0.891881,0.432124
1631204138529,-0.076433,0.89182,0.433588
1631204138539,-0.077592,0.891332,0.432856
1631204138549,-0.07686,0.890966,0.433039
1631204138558,-0.07649399999999999,0.890417,0.433161
1631204138568,-0.07740899999999999,0.891698,0.433344
1631204138577,-0.07679899999999999,0.891393,0.432673
1631204138587,-0.076921,0.8906,0.432856
1631204138597,-0.07564,0.889563,0.431514
1631204138606,-0.076128,0.889746,0.43163599999999996
1631204138616,-0.074786,0.889685,0.43133099999999996
1631204138625,-0.073688,0.889197,0.43127
1631204138635,-0.07442,0.889624,0.432612
1631204138645,-0.07381,0.889746,0.4331
1631204138654,-0.071858,0.890112,0.4331
1631204138664,-0.073444,0.889746,0.434076
1631204138673,-0.073078,0.889868,0.433649
1631204138683,-0.072651,0.88877,0.4331
1631204138693,-0.072407,0.88877,0.43224599999999996
1631204138702,-0.072468,0.887245,0.431697
1631204138712,-0.071858,0.8882209999999999,0.430599
1631204138721,-0.072224,0.888099,0.430477
1631204138731,-0.072895,0.889014,0.431148
1631204138741,-0.07155299999999999,0.889075,0.431514
1631204138750,-0.072163,0.889502,0.431758
1631204138760,-0.073444,0.890722,0.43194099999999996
1631204138769,-0.073444,0.891149,0.431514
1631204138779,-0.073139,0.891759,0.430904
1631204138789,-0.073505,0.892247,0.431514
1631204138798,-0.074054,0.892674,0.431087
1631204138808,-0.074664,0.892064,0.43127
1631204138817,-0.07564,0.893223,0.430599
1631204138827,-0.075091,0.893162,0.429684
1631204138837,-0.075396,0.8942599999999999,0.429562
1631204138846,-0.075274,0.893284,0.430294
1631204138856,-0.075335,0.892247,0.431514
1631204138865,-0.076006,0.892064,0.430904
1631204138875,-0.075884,0.892064,0.430294
1631204138885,-0.076982,0.89182,0.43066
1631204138894,-0.076128,0.8906,0.430233
1631204138904,-0.075762,0.890783,0.43133099999999996
1631204138913,-0.075762,0.890478,0.432795
1631204138923,-0.075518,0.891759,0.432978
1631204138933,-0.075396,0.891637,0.43249
1631204138942,-0.074786,0.890295,0.43133099999999996
1631204138952,-0.073932,0.890966,0.429928
1631204138961,-0.073322,0.891149,0.427915
1631204138971,-0.073383,0.89182,0.427915
1631204138981,-0.074054,0.892796,0.42767099999999997
1631204138990,-0.07356599999999999,0.891576,0.42797599999999997
1631204139000,-0.073688,0.891881,0.428037
1631204139009,-0.07442,0.892735,0.427244
1631204139019,-0.074603,0.894321,0.427
1631204139029,-0.07442,0.892369,0.42944
1631204139038,-0.074603,0.890295,0.427732
1631204139048,-0.07679899999999999,0.891332,0.427488
1631204139057,-0.075579,0.892796,0.426939
1631204139067,-0.076067,0.892857,0.428342
1631204139077,-0.074847,0.894931,0.429867
1631204139086,-0.074969,0.894992,0.431697
1631204139096,-0.074237,0.8945649999999999,0.430599
1631204139105,-0.075152,0.894016,0.429562
1631204139115,-0.075884,0.892552,0.426573
1631204139125,-0.07503,0.89121,0.424682
1631204139134,-0.075274,0.890478,0.424499
1631204139144,-0.074908,0.891088,0.424438
1631204139153,-0.073932,0.890417,0.427183
1631204139163,-0.074298,0.891332,0.42858599999999997
1631204139173,-0.07503,0.890966,0.43005
1631204139182,-0.074542,0.891576,0.42883
1631204139192,-0.073078,0.892308,0.427427
1631204139201,-0.072224,0.890844,0.426817
1631204139211,-0.072224,0.891393,0.42492599999999997
1631204139221,-0.073139,0.892735,0.424072
1631204139230,-0.072956,0.893406,0.42401099999999997
1631204139240,-0.073444,0.8942599999999999,0.423828
1631204139249,-0.072895,0.894687,0.42523099999999997
1631204139259,-0.072712,0.895663,0.425902
1631204139269,-0.07442,0.895236,0.427
1631204139278,-0.075213,0.8960899999999999,0.426573
1631204139288,-0.07448099999999999,0.894504,0.42639
1631204139297,-0.074542,0.895053,0.427122
1631204139307,-0.076372,0.893406,0.42645099999999997
1631204139317,-0.07649399999999999,0.891759,0.42614599999999997
1631204139326,-0.07649399999999999,0.891759,0.42736599999999997
1631204139336,-0.077165,0.891576,0.42639
1631204139345,-0.076311,0.890844,0.42675599999999997
1631204139355,-0.075701,0.891454,0.428342
1631204139365,-0.076555,0.891637,0.428708
1631204139374,-0.07649399999999999,0.892125,0.429745
1631204139384,-0.075945,0.893589,0.428403
1631204139393,-0.076372,0.892857,0.426573
1631204139403,-0.076616,0.893894,0.426207
1631204139413,-0.076555,0.893223,0.42584099999999997
1631204139422,-0.076372,0.8939549999999999,0.425414
1631204139432,-0.07625,0.8942599999999999,0.426634
1631204139441,-0.076433,0.8936499999999999,0.42797599999999997
1631204139451,-0.076067,0.895053,0.428403
1631204139461,-0.076433,0.893894,0.428464
1631204139470,-0.076433,0.893894,0.429074
1631204139480,-0.076616,0.893772,0.430233
1631204139489,-0.07710399999999999,0.892674,0.429928
1631204139499,-0.07710399999999999,0.892125,0.42919599999999997
1631204139509,-0.075701,0.891881,0.429562
1631204139518,-0.075396,0.892613,0.428708
1631204139528,-0.075884,0.892552,0.42980599999999997
1631204139537,-0.075213,0.891271,0.430538
1631204139547,-0.074298,0.890966,0.430599
1631204139557,-0.073993,0.891088,0.430538
1631204139566,-0.073505,0.891088,0.431087
1631204139576,-0.073139,0.889929,0.429867
1631204139585,-0.071614,0.889746,0.429745
1631204139595,-0.072102,0.889929,0.428708
1631204139605,-0.07094299999999999,0.889319,0.427122
1631204139614,-0.071736,0.890478,0.427488
1631204139624,-0.070516,0.890905,0.425658
1631204139633,-0.070211,0.891332,0.426268
1631204139643,-0.070516,0.891576,0.425475
1631204139653,-0.070699,0.892186,0.426024
1631204139662,-0.071187,0.892613,0.426634
1631204139672,-0.072346,0.89243,0.42675599999999997
1631204139681,-0.071736,0.89304,0.426329
1631204139691,-0.072712,0.893467,0.427305
1631204139701,-0.073139,0.894321,0.426939
1631204139710,-0.072712,0.8936499999999999,0.426268
1631204139720,-0.072651,0.893467,0.42645099999999997
1631204139729,-0.073993,0.893833,0.426878
1631204139739,-0.074542,0.894321,0.42736599999999997
1631204139749,-0.074725,0.892979,0.427122
1631204139758,-0.074847,0.892613,0.427488
1631204139768,-0.074786,0.892918,0.42761
1631204139777,-0.07448099999999999,0.893345,0.427854
1631204139787,-0.074664,0.89304,0.429257
1631204139797,-0.075701,0.893284,0.430294
1631204139806,-0.075091,0.893284,0.430965
1631204139816,-0.074298,0.891759,0.43127
1631204139825,-0.07417599999999999,0.89182,0.43005
1631204139835,-0.072895,0.892186,0.428525
1631204139845,-0.073017,0.89243,0.427854
1631204139854,-0.073322,0.892064,0.427427
1631204139864,-0.073383,0.892125,0.426878
1631204139873,-0.073078,0.891698,0.426634
1631204139883,-0.072041,0.893711,0.427
1631204139893,-0.072529,0.8936499999999999,0.428037
1631204139902,-0.072956,0.894077,0.428037
1631204139912,-0.072834,0.893589,0.428525
1631204139921,-0.071492,0.893223,0.42797599999999997
1631204139931,-0.072529,0.8942599999999999,0.42675599999999997
1631204139941,-0.071858,0.892125,0.42675599999999997
1631204139950,-0.073017,0.890295,0.425963
1631204139960,-0.074542,0.889197,0.42578
1631204139969,-0.07442,0.892003,0.426817
1631204139979,-0.074725,0.893406,0.428525
1631204139989,-0.073505,0.894138,0.43041599999999997
1631204139998,-0.072224,0.894382,0.430904
1631204140008,-0.072773,0.894138,0.432063
1631204140017,-0.07381,0.893589,0.428769
1631204140027,-0.07356599999999999,0.891698,0.427122
1631204140037,-0.074664,0.890234,0.42614599999999997
1631204140046,-0.074054,0.890844,0.42523099999999997
1631204140056,-0.073139,0.891759,0.42639
1631204140065,-0.074054,0.891088,0.42822
1631204140075,-0.073688,0.892003,0.43005
1631204140085,-0.073017,0.892613,0.430294
1631204140094,-0.071675,0.892064,0.430477
1631204140104,-0.072895,0.892613,0.429318
1631204140113,-0.071614,0.891332,0.42761
1631204140123,-0.072285,0.892003,0.425902
1631204140133,-0.07137,0.89182,0.42523099999999997
1631204140142,-0.072285,0.893162,0.425475
1631204140152,-0.072102,0.8939549999999999,0.42584099999999997
1631204140161,-0.072102,0.895053,0.42639
1631204140171,-0.073078,0.894626,0.427122
1631204140181,-0.07381,0.894504,0.42883
1631204140190,-0.074664,0.894077,0.429684
1631204140200,-0.074115,0.8939549999999999,0.430172
1631204140209,-0.07564,0.892308,0.428037
1631204140219,-0.076433,0.8906,0.42706099999999997
1631204140229,-0.076433,0.890966,0.426878
1631204140238,-0.076677,0.891271,0.425414
1631204140248,-0.076372,0.891454,0.426817
1631204140257,-0.075518,0.891576,0.428708
1631204140267,-0.074786,0.89243,0.43011099999999997
1631204140277,-0.075518,0.892735,0.42919599999999997
1631204140286,-0.076433,0.892186,0.428098
1631204140296,-0.076067,0.891881,0.427427
1631204140305,-0.075396,0.891698,0.427
1631204140315,-0.07564,0.891942,0.426939
1631204140325,-0.075762,0.891698,0.426878
1631204140334,-0.075579,0.893406,0.427915
1631204140344,-0.07448099999999999,0.893284,0.42944
1631204140353,-0.075579,0.892918,0.43005
1631204140363,-0.075579,0.892918,0.430294
1631204140373,-0.074786,0.8936499999999999,0.430172
1631204140382,-0.074054,0.893528,0.430294
1631204140392,-0.072773,0.894809,0.429745
1631204140401,-0.073322,0.8954799999999999,0.42944
1631204140411,-0.072102,0.8957849999999999,0.428952
1631204140421,-0.07124799999999999,0.894016,0.429379
1631204140430,-0.070516,0.892979,0.428952
1631204140440,-0.069845,0.892247,0.429013
1631204140449,-0.07002799999999999,0.890966,0.428403
1631204140459,-0.069174,0.889868,0.42736599999999997
1631204140469,-0.068564,0.889197,0.42584099999999997
1631204140478,-0.067954,0.890234,0.42456
1631204140488,-0.067832,0.891027,0.425109
1631204140497,-0.067466,0.890905,0.42584099999999997
1631204140507,-0.06770999999999999,0.892125,0.426207
1631204140517,-0.068381,0.89304,0.426512
1631204140526,-0.06831999999999999,0.892796,0.42639
1631204140536,-0.068991,0.893528,0.42584099999999997
1631204140545,-0.069418,0.893284,0.426939
1631204140555,-0.069662,0.89304,0.425475
1631204140565,-0.070272,0.89304,0.426268
1631204140574,-0.070699,0.892918,0.42645099999999997
1631204140584,-0.071065,0.89243,0.426268
1631204140593,-0.071858,0.892613,0.425353
1631204140603,-0.071919,0.892613,0.424743
1631204140613,-0.073078,0.893223,0.42578
1631204140622,-0.073078,0.893711,0.426817
1631204140632,-0.072895,0.893528,0.42675599999999997
1631204140641,-0.075152,0.892857,0.428464
1631204140651,-0.074908,0.893223,0.429135
1631204140661,-0.074603,0.891942,0.430538
1631204140670,-0.075274,0.892369,0.430843
1631204140680,-0.07503,0.891332,0.430843
1631204140689,-0.074908,0.890173,0.429867
1631204140699,-0.074298,0.8885259999999999,0.42761
1631204140709,-0.073932,0.8888309999999999,0.426634
1631204140718,-0.074237,0.890356,0.426268
1631204140728,-0.074054,0.890844,0.42639
1631204140737,-0.072834,0.893101,0.42614599999999997
1631204140747,-0.073932,0.8939549999999999,0.426512
1631204140757,-0.07381,0.8960899999999999,0.425353
1631204140766,-0.073932,0.896761,0.42431599999999997
1631204140776,-0.074542,0.896822,0.423462
1631204140785,-0.07442,0.897676,0.423584
1631204140795,-0.074054,0.897554,0.422242
1631204140805,-0.07381,0.897066,0.422181
1631204140814,-0.07381,0.897127,0.421754
1631204140824,-0.074542,0.896517,0.420595
1631204140833,-0.074725,0.894626,0.421388
1631204140843,-0.07625,0.894321,0.42212
1631204140853,-0.077653,0.893406,0.421998
1631204140862,-0.078263,0.894626,0.423767
1631204140872,-0.078385,0.894199,0.425963
1631204140881,-0.078324,0.894138,0.428037
1631204140891,-0.079056,0.894931,0.430233
1631204140901,-0.079178,0.893406,0.43005
1631204140910,-0.080764,0.893833,0.42858599999999997
1631204140920,-0.079361,0.892491,0.42645099999999997
1631204140929,-0.079178,0.890966,0.425414
1631204140939,-0.078751,0.891637,0.424438
1631204140949,-0.077897,0.89243,0.423767
1631204140958,-0.078141,0.8936499999999999,0.42456
1631204140968,-0.07747,0.894016,0.42370599999999997
1631204140977,-0.076616,0.8945649999999999,0.424682
1631204140987,-0.076738,0.894138,0.42462099999999997
1631204140997,-0.077165,0.893894,0.423462
1631204141006,-0.077714,0.892918,0.421754
1631204141016,-0.077958,0.892979,0.421754
1631204141025,-0.07808,0.893101,0.422303
1631204141035,-0.078873,0.892491,0.422364
1631204141045,-0.078324,0.8936499999999999,0.421022
1631204141054,-0.079666,0.894626,0.422303
1631204141064,-0.079361,0.894992,0.423889
1631204141073,-0.07972699999999999,0.894748,0.423584
1631204141083,-0.08033699999999999,0.895907,0.42370599999999997
1631204141093,-0.07869,0.896029,0.424438
1631204141102,-0.080459,0.8948699999999999,0.424865
1631204141112,-0.081069,0.893284,0.424682
1631204141121,-0.081984,0.893406,0.424499
1631204141131,-0.081618,0.89304,0.424377
1631204141141,-0.081069,0.892003,0.425475
1631204141150,-0.081069,0.893101,0.42706099999999997
1631204141160,-0.081923,0.894016,0.42944
1631204141169,-0.081191,0.894504,0.42980599999999997
1631204141179,-0.08064199999999999,0.893467,0.429135
1631204141189,-0.081191,0.8936499999999999,0.428769
1631204141198,-0.08033699999999999,0.893589,0.427488
1631204141208,-0.08052,0.892552,0.426512
1631204141217,-0.078324,0.893284,0.427427
1631204141227,-0.07911699999999999,0.893162,0.427854
1631204141237,-0.077531,0.892979,0.42980599999999997
1631204141246,-0.077226,0.892308,0.430843
1631204141256,-0.076311,0.891515,0.43133099999999996
1631204141265,-0.076616,0.891942,0.429989
1631204141275,-0.07649399999999999,0.890966,0.42828099999999997
1631204141285,-0.075457,0.890905,0.427793
1631204141294,-0.074786,0.892369,0.42736599999999997
1631204141304,-0.075396,0.892125,0.427549
1631204141313,-0.07503,0.891454,0.426512
1631204141323,-0.07442,0.892491,0.428342
1631204141333,-0.074237,0.892674,0.428464
1631204141342,-0.074725,0.893162,0.42919599999999997
1631204141352,-0.075274,0.892979,0.429684
1631204141361,-0.075945,0.891454,0.430294
1631204141371,-0.075091,0.890539,0.42980599999999997
1631204141381,-0.075701,0.890966,0.42944
1631204141390,-0.07503,0.891027,0.428708
1631204141400,-0.076128,0.890905,0.428098
1631204141409,-0.075091,0.890722,0.428342
1631204141419,-0.075823,0.890844,0.428769
1631204141429,-0.07564,0.890966,0.42889099999999997
1631204141438,-0.075396,0.891332,0.42950099999999997
1631204141448,-0.075518,0.890844,0.430538
1631204141457,-0.075762,0.890112,0.431087
1631204141467,-0.075762,0.889014,0.43194099999999996
1631204141477,-0.075762,0.890112,0.430843
1631204141486,-0.07625,0.889197,0.431758
1631204141496,-0.075884,0.88877,0.431209
1631204141505,-0.075762,0.888404,0.429928
1631204141515,-0.075701,0.888343,0.430294
1631204141525,-0.075884,0.88938,0.430843
1631204141534,-0.075823,0.889075,0.429562
1631204141544,-0.075945,0.889258,0.430599
1631204141553,-0.075274,0.890844,0.430843
1631204141563,-0.07564,0.891515,0.43005
1631204141573,-0.076128,0.891698,0.429623
1631204141582,-0.076006,0.892613,0.429013
1631204141592,-0.075884,0.893284,0.42797599999999997
1631204141601,-0.075518,0.892674,0.42675599999999997
1631204141611,-0.075457,0.8936499999999999,0.425658
1631204141621,-0.07564,0.892918,0.426024
1631204141630,-0.075701,0.893223,0.42639
1631204141640,-0.075518,0.893772,0.425597
1631204141649,-0.075823,0.893101,0.424682
1631204141659,-0.075945,0.893162,0.425109
1631204141669,-0.076677,0.89243,0.424743
1631204141678,-0.077897,0.89243,0.42553599999999997
1631204141688,-0.079178,0.893772,0.428098
1631204141697,-0.079666,0.892735,0.428037
1631204141707,-0.081008,0.891271,0.429074
1631204141717,-0.08003199999999999,0.892308,0.429623
1631204141726,-0.081069,0.892735,0.429989
1631204141736,-0.081496,0.890417,0.430172
1631204141745,-0.081984,0.8885259999999999,0.429745
1631204141755,-0.083326,0.889258,0.429074
1631204141765,-0.083814,0.891637,0.42919599999999997
1631204141774,-0.082411,0.892186,0.429684
1631204141784,-0.082289,0.893467,0.432002
1631204141793,-0.08113,0.894138,0.43249
1631204141803,-0.081801,0.895053,0.432917
1631204141813,-0.082289,0.8948699999999999,0.431453
1631204141822,-0.081862,0.8936499999999999,0.43005
1631204141832,-0.083143,0.891027,0.42761
1631204141841,-0.082472,0.890905,0.426817
1631204141851,-0.082472,0.88938,0.425963
1631204141861,-0.08295999999999999,0.889502,0.427
1631204141870,-0.08265499999999999,0.889868,0.42883
1631204141880,-0.081801,0.889075,0.429318
1631204141889,-0.082472,0.88938,0.430172
1631204141899,-0.082472,0.889319,0.430355
1631204141909,-0.08204499999999999,0.8891359999999999,0.427732
1631204141918,-0.08174,0.8894409999999999,0.426512
1631204141928,-0.082167,0.890295,0.42584099999999997
1631204141937,-0.08174,0.891637,0.425292
1631204141947,-0.080947,0.892125,0.425719
1631204141957,-0.081557,0.892674,0.427
1631204141966,-0.081923,0.894321,0.426878
1631204141976,-0.080947,0.894504,0.428342
1631204141985,-0.080825,0.894809,0.42919599999999997
1631204141995,-0.08052,0.894443,0.429318
1631204142005,-0.081069,0.893223,0.429684
1631204142014,-0.082899,0.891271,0.429318
1631204142024,-0.08295999999999999,0.88999,0.42822
1631204142033,-0.082533,0.889258,0.42797599999999997
1631204142043,-0.08326499999999999,0.888404,0.42797599999999997
1631204142053,-0.081923,0.889563,0.429135
1631204142062,-0.08234999999999999,0.890234,0.431514
1631204142072,-0.08234999999999999,0.890661,0.4331
1631204142081,-0.082838,0.891271,0.433344
1631204142091,-0.083326,0.890173,0.432673
1631204142101,-0.083753,0.890783,0.432368
1631204142110,-0.083814,0.890234,0.43072099999999997
1631204142120,-0.083875,0.891149,0.42919599999999997
1631204142129,-0.083509,0.890417,0.426878
1631204142139,-0.083814,0.892003,0.427427
1631204142149,-0.083082,0.892796,0.42761
1631204142158,-0.082228,0.8939549999999999,0.42950099999999997
1631204142168,-0.08234999999999999,0.894626,0.43072099999999997
1631204142177,-0.082106,0.894199,0.431758
1631204142187,-0.082594,0.893284,0.4331
1631204142197,-0.083936,0.892613,0.433161
1631204142206,-0.082472,0.890112,0.433649
1631204142216,-0.083509,0.88938,0.433466
1631204142225,-0.082472,0.887062,0.433405
1631204142235,-0.082777,0.885964,0.432978
1631204142245,-0.083082,0.885537,0.43249
1631204142254,-0.082594,0.884927,0.4331
1631204142264,-0.083448,0.8845,0.434076
1631204142273,-0.082289,0.884683,0.434686
1631204142283,-0.082533,0.8848659999999999,0.434564
1631204142293,-0.082777,0.8863909999999999,0.434076
1631204142302,-0.082167,0.887245,0.434198
1631204142312,-0.082228,0.887855,0.433466
1631204142321,-0.082228,0.888648,0.433405
1631204142331,-0.082228,0.888953,0.43194099999999996
1631204142341,-0.082106,0.889807,0.429989
1631204142350,-0.081496,0.890478,0.428769
1631204142360,-0.081984,0.889868,0.42767099999999997
1631204142369,-0.082289,0.890966,0.425902
1631204142379,-0.082716,0.891393,0.427
1631204142389,-0.082472,0.891881,0.427549
1631204142398,-0.083204,0.891881,0.427
1631204142408,-0.083448,0.892613,0.42761
1631204142417,-0.084485,0.89182,0.428647
1631204142427,-0.086071,0.891576,0.429257
1631204142437,-0.086254,0.891088,0.42980599999999997
1631204142446,-0.08662,0.891027,0.430355
1631204142456,-0.087352,0.890234,0.429928
1631204142465,-0.08820599999999999,0.890417,0.430782
1631204142475,-0.08851099999999999,0.88999,0.431453
1631204142485,-0.08851099999999999,0.890356,0.431453
1631204142494,-0.088633,0.890356,0.43066
1631204142504,-0.087779,0.891271,0.430599
1631204142513,-0.087962,0.89121,0.429379
1631204142523,-0.087779,0.891271,0.42828099999999997
1631204142533,-0.088633,0.892308,0.42761
1631204142542,-0.08851099999999999,0.891759,0.427183
1631204142552,-0.08851099999999999,0.891942,0.428037
1631204142561,-0.08906,0.892491,0.428525
1631204142571,-0.090402,0.892308,0.42919599999999997
1631204142581,-0.090585,0.892247,0.42980599999999997
1631204142590,-0.091378,0.892674,0.43005
1631204142600,-0.091561,0.891942,0.43102599999999996
1631204142609,-0.092232,0.890417,0.43102599999999996
1631204142619,-0.09143899999999999,0.890173,0.430233
1631204142629,-0.091378,0.889502,0.428952
1631204142638,-0.0915,0.887672,0.429074
1631204142648,-0.093086,0.8879159999999999,0.42883
1631204142657,-0.093391,0.890173,0.428952
1631204142667,-0.09333,0.891576,0.42944
1631204142677,-0.092171,0.891881,0.432185
1631204142686,-0.09143899999999999,0.891759,0.433832
1631204142696,-0.091256,0.891759,0.433222
1631204142705,-0.0915,0.891088,0.430904
1631204142715,-0.090707,0.890051,0.427915
1631204142725,-0.090951,0.890112,0.425902
1631204142734,-0.08967,0.890112,0.426085
1631204142744,-0.08912099999999999,0.889929,0.42639
1631204142753,-0.088938,0.890356,0.427549
1631204142763,-0.08662,0.892918,0.433466
1631204142773,-0.086132,0.895602,0.433039
1631204142782,-0.088633,0.891088,0.42736599999999997
1631204142792,-0.087291,0.889746,0.425902
1631204142801,-0.086986,0.889624,0.426939
1631204142811,-0.087291,0.8879159999999999,0.42578
1631204142821,-0.087291,0.888038,0.425109
1631204142830,-0.08680299999999999,0.889197,0.425963
1631204142840,-0.087596,0.890295,0.428159
1631204142849,-0.08784,0.889929,0.42883
1631204142859,-0.087962,0.890234,0.43072099999999997
1631204142869,-0.087596,0.890783,0.432002
1631204142878,-0.087291,0.891393,0.43194099999999996
1631204142888,-0.087596,0.891271,0.430599
1631204142897,-0.088633,0.891332,0.42889099999999997
1631204142907,-0.089975,0.890234,0.427427
1631204142917,-0.089365,0.891332,0.426878
1631204142926,-0.089487,0.891393,0.42401099999999997
1631204142936,-0.089792,0.892125,0.42431599999999997
1631204142945,-0.087596,0.893101,0.426268
1631204142955,-0.08973099999999999,0.894748,0.429074
1631204142965,-0.088389,0.893833,0.429745
1631204142974,-0.089365,0.8936499999999999,0.431148
1631204142984,-0.089182,0.892308,0.430843
1631204142993,-0.090158,0.89121,0.431209
1631204143003,-0.088694,0.890356,0.43133099999999996
1631204143013,-0.090646,0.88938,0.433832
1631204143022,-0.090768,0.88755,0.433405
1631204143032,-0.090768,0.887794,0.434381
1631204143041,-0.09028,0.88694,0.435845
1631204143051,-0.089548,0.887062,0.435601
1631204143061,-0.089243,0.886635,0.435967
1631204143070,-0.088755,0.886635,0.43572299999999997
1631204143080,-0.08790099999999999,0.886818,0.435174
1631204143089,-0.088023,0.886818,0.435357
1631204143099,-0.088999,0.888038,0.433893
1631204143109,-0.088267,0.8885259999999999,0.434564
1631204143118,-0.087291,0.888892,0.435479
1631204143128,-0.086315,0.887977,0.434198
1631204143137,-0.086071,0.887977,0.434015
1631204143147,-0.08662,0.888282,0.432856
1631204143157,-0.086132,0.888953,0.431514
1631204143166,-0.083936,0.888282,0.429928
1631204143176,-0.084668,0.887489,0.430294
1631204143185,-0.083814,0.888587,0.42944
1631204143195,-0.084302,0.88938,0.429684
1631204143205,-0.083997,0.889197,0.429318
1631204143214,-0.084851,0.88816,0.429562
1631204143224,-0.084546,0.888465,0.429135
1631204143233,-0.084302,0.887733,0.430294
1631204143243,-0.085217,0.888099,0.43011099999999997
1631204143253,-0.0854,0.888282,0.43011099999999997
1631204143262,-0.085156,0.889075,0.42950099999999997
1631204143272,-0.08558299999999999,0.888892,0.429928
1631204143281,-0.08649799999999999,0.889624,0.430477
1631204143291,-0.086376,0.89121,0.429379
1631204143301,-0.087108,0.891149,0.429867
1631204143310,-0.08790099999999999,0.892003,0.430233
1631204143320,-0.08784,0.892857,0.429928
1631204143329,-0.087779,0.892979,0.430233
1631204143339,-0.08820599999999999,0.892796,0.429867
1631204143349,-0.088877,0.892552,0.42950099999999997
1631204143358,-0.088999,0.892613,0.42980599999999997
1631204143368,-0.089792,0.891698,0.43005
1631204143377,-0.08973099999999999,0.890722,0.429013
1631204143387,-0.089548,0.890539,0.42980599999999997
1631204143397,-0.089609,0.890295,0.42919599999999997
1631204143406,-0.089609,0.889014,0.427793
1631204143416,-0.08881599999999999,0.889624,0.428342
1631204143425,-0.088389,0.889929,0.428342
1631204143435,-0.089304,0.889868,0.427427
1631204143445,-0.089792,0.889746,0.427793
1631204143454,-0.090829,0.890356,0.428037
1631204143464,-0.089182,0.891942,0.428159
1631204143473,-0.087962,0.892491,0.427854
1631204143483,-0.08790099999999999,0.891454,0.42736599999999997
1631204143493,-0.089365,0.892003,0.426207
1631204143502,-0.089182,0.892735,0.426512
1631204143512,-0.088999,0.890173,0.425292
1631204143521,-0.090036,0.889502,0.42523099999999997
1631204143531,-0.090463,0.89182,0.427427
1631204143541,-0.089792,0.892674,0.42980599999999997
1631204143550,-0.089182,0.892674,0.430538
1631204143560,-0.087962,0.892674,0.43133099999999996
1631204143569,-0.087352,0.892796,0.432124
1631204143579,-0.08851099999999999,0.892735,0.42980599999999997
1631204143589,-0.087596,0.89121,0.42584099999999997
1631204143598,-0.087474,0.889746,0.42273
1631204143608,-0.08601,0.889868,0.421205
1631204143617,-0.08588799999999999,0.889685,0.421388
1631204143627,-0.086559,0.890356,0.422669
1631204143637,-0.085644,0.891881,0.42309599999999997
1631204143646,-0.08588799999999999,0.892552,0.425292
1631204143656,-0.08601,0.893345,0.42584099999999997
1631204143665,-0.085034,0.893345,0.424987
1631204143675,-0.085522,0.893223,0.424072
1631204143685,-0.08662,0.893284,0.42212
1631204143694,-0.086437,0.893467,0.42029
1631204143704,-0.085827,0.895114,0.42029
1631204143713,-0.08680299999999999,0.895602,0.420107
1631204143723,-0.087718,0.896822,0.420351
1631204143733,-0.087535,0.896883,0.420839
1631204143742,-0.088694,0.896578,0.422486
1631204143752,-0.088328,0.895724,0.422425
1631204143761,-0.088084,0.894626,0.424682
1631204143771,-0.088938,0.893101,0.42517
1631204143781,-0.090463,0.892247,0.42492599999999997
1631204143790,-0.090768,0.892735,0.424987
1631204143800,-0.091256,0.891576,0.424438
1631204143809,-0.0915,0.89121,0.424255
1631204143819,-0.089914,0.891332,0.426024
1631204143829,-0.090158,0.892491,0.427732
1631204143838,-0.090768,0.892186,0.428159
1631204143848,-0.090463,0.892003,0.42761
1631204143857,-0.090219,0.892186,0.427244
1631204143867,-0.090036,0.890783,0.426085
1631204143877,-0.090219,0.891515,0.425719
1631204143886,-0.090097,0.892552,0.42584099999999997
1631204143896,-0.089182,0.893223,0.42553599999999997
1631204143905,-0.088938,0.893772,0.42578
1631204143915,-0.089304,0.893223,0.425048
1631204143925,-0.087474,0.893894,0.423767
1631204143934,-0.088084,0.8945649999999999,0.42309599999999997
1631204143944,-0.088633,0.894687,0.422547
1631204143953,-0.08588799999999999,0.894809,0.423462
1631204143963,-0.086986,0.894748,0.422486
1631204143973,-0.08723,0.893406,0.422486
1631204143982,-0.088267,0.892613,0.423218
1631204143992,-0.087779,0.892308,0.42334
1631204144001,-0.088877,0.892308,0.424743
1631204144011,-0.088633,0.891759,0.42578
1631204144021,-0.088694,0.891576,0.42761
1631204144030,-0.089914,0.891332,0.42761
1631204144040,-0.088877,0.891454,0.426695
1631204144049,-0.089548,0.891759,0.426573
1631204144059,-0.088755,0.891881,0.424499
1631204144069,-0.088633,0.892552,0.424804
1631204144078,-0.088694,0.892064,0.42395
1631204144088,-0.088633,0.892918,0.424499
1631204144097,-0.088084,0.893406,0.423828
1631204144107,-0.088145,0.892247,0.423584
1631204144117,-0.08942599999999999,0.89304,0.42401099999999997
1631204144126,-0.08906,0.893345,0.423523
1631204144136,-0.089304,0.893467,0.42431599999999997
1631204144145,-0.089548,0.893589,0.424072
1631204144155,-0.089365,0.893101,0.422852
1631204144165,-0.088877,0.892613,0.42273
1631204144174,-0.089243,0.89243,0.422364
1631204144184,-0.088389,0.892003,0.421998
1631204144193,-0.08967,0.892125,0.422303
1631204144203,-0.08967,0.892735,0.421693
1631204144213,-0.090585,0.89304,0.42370599999999997
1631204144222,-0.090036,0.893223,0.422608
1631204144232,-0.090219,0.8939549999999999,0.423157
1631204144241,-0.089914,0.893833,0.42334
1631204144251,-0.090341,0.895053,0.42334
1631204144261,-0.090463,0.894809,0.424072
1631204144270,-0.089975,0.894687,0.42370599999999997
1631204144280,-0.08881599999999999,0.893833,0.423828
1631204144289,-0.08845,0.8942599999999999,0.42334
1631204144299,-0.088572,0.893284,0.423767
1631204144309,-0.08912099999999999,0.892552,0.421693
1631204144318,-0.08723,0.891698,0.420107
1631204144328,-0.087718,0.892186,0.419375
1631204144337,-0.087718,0.893345,0.419131
1631204144347,-0.087718,0.894077,0.419253
1631204144357,-0.088084,0.894504,0.421449
1631204144366,-0.088694,0.895602,0.421449
1631204144376,-0.088877,0.896029,0.420412
1631204144385,-0.088694,0.897188,0.421388
1631204144395,-0.088633,0.896578,0.421632
1631204144405,-0.089365,0.894748,0.42151
1631204144414,-0.09174399999999999,0.8936499999999999,0.41968
1631204144424,-0.091927,0.894138,0.420168
1631204144433,-0.093452,0.895846,0.420046
1631204144443,-0.092903,0.895907,0.421693
1631204144453,-0.0915,0.896883,0.423035
1631204144462,-0.091988,0.898286,0.42462099999999997
1631204144472,-0.091683,0.8982249999999999,0.42395
1631204144481,-0.091622,0.896822,0.423035
1631204144491,-0.091073,0.895541,0.420717
1631204144501,-0.091012,0.893772,0.419985
1631204144510,-0.090036,0.892613,0.420473
1631204144520,-0.090829,0.89182,0.421327
1631204144529,-0.090097,0.891637,0.423035
1631204144539,-0.089365,0.891637,0.423462
1631204144549,-0.088694,0.890722,0.423828
1631204144558,-0.08820599999999999,0.89121,0.422913
1631204144568,-0.086742,0.890722,0.421327
1631204144577,-0.087291,0.890295,0.42022899999999996
1631204144587,-0.087108,0.8906,0.41870399999999997
1631204144597,-0.086559,0.891454,0.41870399999999997
1631204144606,-0.086376,0.893528,0.419497
1631204144616,-0.08680299999999999,0.893772,0.419497
1631204144625,-0.087474,0.894687,0.420595
1631204144635,-0.087474,0.896517,0.420168
1631204144645,-0.087962,0.897188,0.42029
1631204144654,-0.08942599999999999,0.896456,0.419436
1631204144664,-0.088877,0.896639,0.419802
1631204144673,-0.088938,0.896944,0.420107
1631204144683,-0.089548,0.8948699999999999,0.419192
1631204144693,-0.090097,0.895541,0.418033
1631204144702,-0.090341,0.895053,0.41900899999999996
1631204144712,-0.091256,0.893223,0.419741
1631204144721,-0.09174399999999999,0.893345,0.421632
1631204144731,-0.090707,0.893345,0.424377
1631204144741,-0.09235399999999999,0.894016,0.426268
1631204144750,-0.092171,0.892003,0.425963
1631204144760,-0.09272,0.891637,0.42553599999999997
1631204144769,-0.091683,0.893101,0.42578
1631204144779,-0.092171,0.892674,0.424987
1631204144789,-0.091073,0.89243,0.42456
1631204144798,-0.089304,0.892674,0.424072
1631204144808,-0.09028,0.8939549999999999,0.425292
1631204144817,-0.089304,0.894077,0.424682
1631204144827,-0.08912099999999999,0.894687,0.42578
1631204144837,-0.088633,0.895053,0.425292
1631204144846,-0.088267,0.895419,0.424804
1631204144856,-0.088694,0.894626,0.42401099999999997
1631204144865,-0.088084,0.8948699999999999,0.423645
1631204144875,-0.088084,0.8948699999999999,0.42492599999999997
1631204144885,-0.08784,0.8942599999999999,0.424377
1631204144894,-0.088389,0.892857,0.42334
1631204144904,-0.08790099999999999,0.892247,0.424194
1631204144913,-0.087718,0.891454,0.42492599999999997
1631204144923,-0.087535,0.891027,0.424377
1631204144933,-0.088267,0.892064,0.424804
1631204144942,-0.087596,0.890905,0.424987
1631204144952,-0.086681,0.891088,0.42456
1631204144961,-0.086986,0.890295,0.42395
1631204144971,-0.086925,0.88999,0.42462099999999997
1631204144981,-0.087779,0.891088,0.424499
1631204144990,-0.086986,0.892064,0.424133
1631204145000,-0.087047,0.891698,0.423157
1631204145009,-0.086437,0.892064,0.423218
1631204145019,-0.08723,0.892369,0.422852
1631204145029,-0.08680299999999999,0.891576,0.421815
1631204145038,-0.085766,0.892918,0.422059
1631204145048,-0.086071,0.892796,0.421998
1631204145057,-0.08662,0.892308,0.423218
1631204145067,-0.086864,0.893589,0.422913
1631204145077,-0.087596,0.893528,0.42334
1631204145086,-0.087047,0.893162,0.422303
1631204145096,-0.087596,0.8936499999999999,0.422669
1631204145105,-0.087291,0.893101,0.422669
1631204145115,-0.087108,0.8942599999999999,0.423279
1631204145125,-0.087474,0.894992,0.42340099999999997
1631204145134,-0.086864,0.894626,0.42395
1631204145144,-0.086864,0.894321,0.422974
1631204145153,-0.087596,0.8948699999999999,0.422669
1631204145163,-0.085766,0.894321,0.422303
1631204145173,-0.085949,0.893772,0.420778
1631204145182,-0.085522,0.894138,0.420839
1631204145192,-0.084668,0.894992,0.41968
1631204145201,-0.085339,0.893894,0.41961899999999996
1631204145211,-0.084241,0.8954799999999999,0.419497
1631204145221,-0.083753,0.894504,0.418338
1631204145230,-0.084668,0.894931,0.418643
1631204145240,-0.085095,0.896029,0.418887
1631204145249,-0.085827,0.896578,0.42029
1631204145259,-0.08662,0.895968,0.420839
1631204145269,-0.087047,0.895663,0.421083
1631204145278,-0.087047,0.8948699999999999,0.419985
1631204145288,-0.087291,0.895968,0.419985
1631204145297,-0.08790099999999999,0.8951749999999999,0.420656
1631204145307,-0.088938,0.894077,0.420839
1631204145317,-0.08942599999999999,0.891576,0.419741
1631204145326,-0.091256,0.892674,0.41968
1631204145336,-0.092232,0.894687,0.420595
1631204145345,-0.091317,0.896212,0.422913
1631204145355,-0.090158,0.896029,0.42431599999999997
1631204145365,-0.090158,0.895663,0.42553599999999997
1631204145374,-0.089792,0.896456,0.426573
1631204145384,-0.090402,0.895419,0.425414
1631204145393,-0.090036,0.893162,0.423889
1631204145403,-0.089548,0.891576,0.421815
1631204145413,-0.088267,0.891637,0.420168
1631204145422,-0.088389,0.8906,0.419802
1631204145432,-0.08820599999999999,0.890905,0.41931399999999996
1631204145441,-0.08680299999999999,0.891271,0.420717
1631204145451,-0.085156,0.892125,0.420717
1631204145461,-0.086437,0.89304,0.420412
1631204145470,-0.086559,0.892796,0.418826
1631204145480,-0.086437,0.893528,0.417423
1631204145489,-0.087047,0.8942599999999999,0.416996
1631204145499,-0.087169,0.895236,0.41602
1631204145509,-0.087352,0.8966999999999999,0.41626399999999997
1631204145518,-0.087962,0.897249,0.41717899999999997
1631204145528,-0.08790099999999999,0.898774,0.41778899999999997
1631204145537,-0.088328,0.898408,0.418216
1631204145547,-0.08912099999999999,0.8976149999999999,0.417972
1631204145557,-0.090341,0.897554,0.41846
1631204145566,-0.091195,0.897676,0.419436
1631204145576,-0.09174399999999999,0.896944,0.420412
1631204145585,-0.093696,0.894016,0.42022899999999996
1631204145595,-0.094184,0.893894,0.420412
1631204145605,-0.09558699999999999,0.892674,0.422547
1631204145614,-0.095099,0.890844,0.423157
1631204145624,-0.095465,0.891942,0.42553599999999997
1631204145633,-0.095953,0.891881,0.428464
1631204145643,-0.095526,0.892186,0.42767099999999997
1631204145653,-0.095404,0.89243,0.42614599999999997
1631204145662,-0.096319,0.891759,0.424133
1631204145672,-0.095099,0.893345,0.423035
1631204145681,-0.094184,0.892857,0.421815
1631204145691,-0.094794,0.892857,0.421144
1631204145701,-0.095038,0.8942599999999999,0.422242
1631204145710,-0.094611,0.896029,0.42273
1631204145720,-0.095038,0.8970049999999999,0.42340099999999997
1631204145729,-0.09467199999999999,0.896822,0.424194
1631204145739,-0.09436699999999999,0.8976149999999999,0.424743
1631204145749,-0.095038,0.896639,0.423889
1631204145758,-0.094916,0.895663,0.423889
1631204145768,-0.095099,0.8951749999999999,0.422364
1631204145777,-0.094306,0.894016,0.422486
1631204145787,-0.093757,0.89182,0.42212
1631204145797,-0.094184,0.891393,0.422181
1631204145806,-0.093818,0.890783,0.422669
1631204145816,-0.093391,0.890722,0.423584
1631204145825,-0.093696,0.8894409999999999,0.423889
1631204145835,-0.093391,0.889868,0.423218
1631204145845,-0.093757,0.890112,0.423523
1631204145854,-0.092476,0.890905,0.422791
1631204145864,-0.092293,0.891271,0.422608
1631204145873,-0.092415,0.891881,0.422608
1631204145883,-0.092232,0.894016,0.421815
1631204145893,-0.091622,0.894077,0.422364
1631204145902,-0.09113399999999999,0.894077,0.421632
1631204145912,-0.090463,0.894138,0.421937
1631204145921,-0.090768,0.894138,0.421632
1631204145931,-0.089792,0.893101,0.42151
1631204145941,-0.090036,0.892613,0.42212
1631204145950,-0.089182,0.892979,0.422242
1631204145960,-0.089182,0.892003,0.421815
1631204145969,-0.08851099999999999,0.892552,0.420839
1631204145979,-0.089365,0.893284,0.420656
1631204145989,-0.08845,0.893772,0.42029
1631204145998,-0.089975,0.893467,0.420412
1631204146008,-0.089243,0.893772,0.419802
1631204146017,-0.089548,0.894016,0.41968
1631204146027,-0.090097,0.893772,0.41931399999999996
1631204146037,-0.090524,0.894382,0.419497
1631204146046,-0.090402,0.895724,0.419436
1631204146056,-0.091561,0.896334,0.420473
1631204146065,-0.09174399999999999,0.8966999999999999,0.420839
1631204146075,-0.09235399999999999,0.895907,0.420107
1631204146085,-0.09174399999999999,0.896151,0.41931399999999996
1631204146094,-0.091378,0.896761,0.41907
1631204146104,-0.091988,0.897371,0.418887
1631204146113,-0.092171,0.896761,0.418521
1631204146123,-0.09143899999999999,0.896212,0.420168
1631204146133,-0.092476,0.894687,0.420656
1631204146142,-0.09272,0.894138,0.421876
1631204146152,-0.09272,0.8939549999999999,0.422608
1631204146161,-0.091622,0.893162,0.423279
1631204146171,-0.091866,0.891637,0.423523
1631204146181,-0.092171,0.890478,0.422608
1631204146190,-0.0915,0.890478,0.421266
1631204146200,-0.091683,0.890783,0.420534
1631204146209,-0.091683,0.890051,0.420961
1631204146219,-0.092781,0.889685,0.42151
1631204146229,-0.09436699999999999,0.890783,0.421205
1631204146238,-0.093818,0.894687,0.424133
1631204146248,-0.092598,0.897066,0.425353
1631204146257,-0.091866,0.898652,0.426207
1631204146267,-0.091561,0.898164,0.42395
1631204146277,-0.090646,0.899079,0.422181
1631204146286,-0.091317,0.897676,0.418521
1631204146296,-0.091195,0.896944,0.415837
1631204146305,-0.090829,0.895419,0.414556
1631204146315,-0.089975,0.895297,0.414495
1631204146325,-0.090097,0.895358,0.41602
1631204146334,-0.090951,0.8936499999999999,0.416508
1631204146344,-0.090646,0.8939549999999999,0.417667
1631204146353,-0.091012,0.892796,0.419558
1631204146363,-0.092781,0.892674,0.421754
1631204146373,-0.093208,0.892674,0.421205
1631204146382,-0.09406199999999999,0.892552,0.420168
1631204146392,-0.09516,0.891698,0.421022
1631204146401,-0.094428,0.893345,0.421022
1631204146411,-0.096319,0.894199,0.422242
1631204146421,-0.096075,0.894626,0.422547
1631204146430,-0.096136,0.8954799999999999,0.423584
1631204146440,-0.096136,0.895846,0.424377
1631204146449,-0.096319,0.894809,0.42431599999999997
1631204146459,-0.097112,0.893772,0.425475
1631204146469,-0.098088,0.892186,0.425963
1631204146478,-0.100162,0.88999,0.424377
1631204146488,-0.099796,0.890234,0.425048
1631204146497,-0.10052799999999999,0.889929,0.425048
1631204146507,-0.099735,0.890417,0.42395
1631204146517,-0.098942,0.890905,0.425414
1631204146526,-0.09881999999999999,0.890234,0.425292
1631204146536,-0.09943,0.888099,0.428525
1631204146545,-0.10284599999999999,0.8845609999999999,0.429074
1631204146555,-0.103395,0.885354,0.42736599999999997
1631204146565,-0.104493,0.884317,0.42767099999999997
1631204146574,-0.105713,0.882182,0.430782
1631204146584,-0.10797,0.88023,0.434808
1631204146593,-0.10760399999999999,0.878888,0.43493
1631204146603,-0.10614,0.88084,0.436516
1631204146613,-0.10498099999999999,0.8815109999999999,0.438285
1631204146622,-0.1037,0.883829,0.43846799999999997
1631204146632,-0.103273,0.885232,0.438712
1631204146641,-0.102541,0.887855,0.438224
1631204146651,-0.10345599999999999,0.8906,0.43737
1631204146661,-0.105225,0.8906,0.435906
1631204146670,-0.105652,0.890844,0.432917
1631204146680,-0.105652,0.890295,0.433649
1631204146689,-0.104798,0.890783,0.43432
1631204146699,-0.102175,0.889563,0.434503
1631204146709,-0.100772,0.889685,0.43432
1631204146718,-0.100284,0.88938,0.432124
1631204146728,-0.101016,0.889746,0.42919599999999997
1631204146737,-0.100284,0.890112,0.42462099999999997
1631204146747,-0.101321,0.892491,0.41907
1631204146757,-0.102236,0.8948699999999999,0.414007
1631204146766,-0.104859,0.896883,0.41443399999999997
1631204146776,-0.109129,0.898286,0.415166
1631204146785,-0.112728,0.8970049999999999,0.415471
1631204146795,-0.11529,0.893162,0.417911
1631204146805,-0.11962099999999999,0.890478,0.4209
1631204146814,-0.12261,0.890173,0.42517
1631204146824,-0.122061,0.890234,0.43066
1631204146833,-0.124074,0.889319,0.435296
1631204146843,-0.125294,0.888343,0.439261
1631204146853,-0.126819,0.888038,0.445178
1631204146862,-0.128832,0.886635,0.448533
1631204146872,-0.132675,0.883585,0.451034
1631204146881,-0.136701,0.87901,0.450668
1631204146891,-0.139202,0.87291,0.450058
1631204146901,-0.140178,0.870348,0.448716
1631204146910,-0.1403,0.867847,0.447496
1631204146920,-0.141642,0.864736,0.445788
1631204146929,-0.14249599999999998,0.8638819999999999,0.445361
1631204146939,-0.14280099999999998,0.863516,0.445178
1631204146949,-0.145119,0.865468,0.448228
1631204146958,-0.145119,0.866932,0.453474
1631204146968,-0.14701,0.867603,0.458781
1631204146977,-0.149755,0.864065,0.46402699999999997
1631204146987,-0.151707,0.86132,0.468114
1631204146997,-0.152622,0.858148,0.469151
1631204147006,-0.153171,0.855708,0.468236
1631204147016,-0.153049,0.854671,0.465674
1631204147025,-0.152561,0.8547319999999999,0.462563
1631204147035,-0.1525,0.856989,0.45945199999999997
1631204147045,-0.152805,0.859246,0.457317
1631204147054,-0.154574,0.859856,0.45933
1631204147064,-0.156404,0.8632719999999999,0.464576
1631204147073,-0.16128399999999998,0.865712,0.473238
1631204147083,-0.163907,0.868152,0.48092399999999996
1631204147093,-0.165249,0.868213,0.488305
1631204147102,-0.16530999999999998,0.864248,0.491172
1631204147112,-0.167262,0.8571719999999999,0.492392
1631204147121,-0.163907,0.856928,0.498065
1631204147131,-0.162504,0.858026,0.500078
1631204147141,-0.161162,0.855891,0.503311
1631204147150,-0.16006399999999998,0.85339,0.50325
1631204147160,-0.159515,0.853268,0.503738
1631204147169,-0.15945399999999998,0.849364,0.504348
1631204147179,-0.161772,0.8468019999999999,0.503677
1631204147189,-0.164029,0.844728,0.500688
1631204147198,-0.165066,0.843325,0.49855299999999997
1631204147208,-0.167079,0.843386,0.500444
1631204147217,-0.165493,0.843752,0.502701
1631204147227,-0.167689,0.843508,0.508313
1631204147237,-0.169702,0.842288,0.5124609999999999
1631204147246,-0.170495,0.83936,0.5164259999999999
1631204147256,-0.172508,0.837591,0.519659
1631204147265,-0.174155,0.834236,0.522282
1631204147275,-0.175253,0.83021,0.522892
1631204147285,-0.17671699999999999,0.826245,0.522404
1631204147294,-0.179096,0.82228,0.521245
1631204147304,-0.181902,0.818376,0.519232
1631204147313,-0.18226799999999999,0.8109339999999999,0.515755
1631204147323,-0.18440299999999998,0.8051389999999999,0.513132
1631204147333,-0.18788,0.80398,0.515328
1631204147342,-0.191601,0.809592,0.522953
1631204147352,-0.194712,0.815448,0.532347
1631204147361,-0.192943,0.815692,0.53314
1631204147371,-0.193797,0.81069,0.529907
1631204147381,-0.192638,0.806481,0.52582
1631204147390,-0.191906,0.80398,0.525698
1631204147400,-0.189893,0.804956,0.526491
1631204147409,-0.189893,0.80886,0.530578
1631204147419,-0.191357,0.814838,0.53436
1631204147429,-0.192028,0.819047,0.5361899999999999
1631204147438,-0.192882,0.822036,0.534848
1631204147448,-0.194163,0.822951,0.53436
1631204147457,-0.196298,0.82167,0.534299
1631204147467,-0.19886,0.819352,0.534787
1631204147477,-0.202947,0.815082,0.535397
1631204147486,-0.20660699999999999,0.808921,0.534848
1631204147496,-0.208986,0.805627,0.536312
1631204147505,-0.21154799999999999,0.802577,0.539911
1631204147515,-0.213317,0.799405,0.542473
1631204147525,-0.21368299999999998,0.796233,0.543022
1631204147534,-0.214415,0.794708,0.545218
1631204147544,-0.214842,0.794464,0.5462549999999999
1631204147553,-0.215635,0.795684,0.5447299999999999
1631204147563,-0.21655,0.796843,0.545889
1631204147573,-0.217465,0.798673,0.546072
1631204147582,-0.217953,0.798917,0.546194
1631204147592,-0.218441,0.798551,0.546987
1631204147601,-0.21984399999999998,0.79849,0.549854
1631204147611,-0.221796,0.797758,0.552355
1631204147621,-0.223382,0.798307,0.555649
1631204147630,-0.225212,0.797941,0.558028
1631204147640,-0.226127,0.797392,0.5617489999999999
1631204147649,-0.22539499999999998,0.797453,0.561078
1631204147659,-0.22417499999999999,0.797819,0.5612
1631204147669,-0.224907,0.798673,0.562298
1631204147678,-0.223687,0.7991,0.562542
1631204147688,-0.223016,0.7996489999999999,0.56242
1631204147697,-0.220088,0.798795,0.562725
1631204147707,-0.222894,0.798307,0.5638839999999999
1631204147717,-0.223138,0.796538,0.566263
1631204147726,-0.22447999999999999,0.794525,0.5666289999999999
1631204147736,-0.222528,0.792268,0.566873
1631204147745,-0.222833,0.791048,0.568276
1631204147755,-0.221247,0.7905599999999999,0.568215
1631204147765,-0.22045399999999998,0.791231,0.569801
1631204147774,-0.219417,0.791048,0.57218
1631204147784,-0.219417,0.792024,0.574071
1631204147793,-0.219783,0.7911699999999999,0.576206
1631204147803,-0.218746,0.789828,0.578158
1631204147813,-0.219173,0.787998,0.57828
1631204147822,-0.217892,0.788242,0.578097
1631204147832,-0.217465,0.785863,0.577853
1631204147841,-0.216428,0.783911,0.578097
1631204147851,-0.215696,0.7829349999999999,0.576572
1631204147861,-0.214659,0.781959,0.57706
1631204147870,-0.21246299999999999,0.781227,0.578097
1631204147880,-0.212097,0.781288,0.579439
1631204147889,-0.210389,0.779946,0.579805
1631204147899,-0.209596,0.779824,0.579378
1631204147909,-0.20782699999999998,0.779336,0.581574
1631204147918,-0.208315,0.778604,0.583038
1631204147928,-0.20801,0.776469,0.585661
1631204147937,-0.207888,0.775554,0.585051
1631204147947,-0.2074,0.774639,0.5857829999999999
1631204147957,-0.204899,0.775432,0.5856
1631204147966,-0.204838,0.775188,0.5851729999999999
1631204147976,-0.203435,0.775432,0.586637
1631204147985,-0.201605,0.7753099999999999,0.585234
1631204147995,-0.201422,0.773846,0.5863929999999999
1631204148005,-0.199653,0.77226,0.5856
1631204148014,-0.200507,0.772016,0.584197
1631204148024,-0.200507,0.772809,0.5879179999999999
1631204148033,-0.199287,0.772748,0.588894
1631204148043,-0.198128,0.771955,0.591517
1631204148053,-0.197579,0.772626,0.5943229999999999
1631204148062,-0.196359,0.77287,0.595177
1631204148072,-0.193858,0.774334,0.5964579999999999
1631204148081,-0.194712,0.772809,0.594506
1631204148091,-0.19117399999999998,0.770491,0.5940179999999999
1631204148101,-0.187941,0.767502,0.5940179999999999
1631204148110,-0.185806,0.76677,0.595726
1631204148120,-0.183549,0.765977,0.594079
1631204148129,-0.182695,0.76677,0.59536
1631204148139,-0.18226799999999999,0.765855,0.594506
1631204148149,-0.18196299999999999,0.765123,0.592859
1631204148158,-0.181719,0.76555,0.591761
1631204148168,-0.181231,0.767807,0.590846
1631204148177,-0.179706,0.766709,0.590175
1631204148187,-0.180194,0.767685,0.589626
1631204148197,-0.180133,0.769454,0.5924929999999999
1631204148206,-0.181292,0.770552,0.592615
1631204148216,-0.181231,0.769332,0.59353
1631204148225,-0.182695,0.770796,0.5940179999999999
1631204148235,-0.182695,0.77226,0.594079
1631204148245,-0.183976,0.774761,0.594262
1631204148254,-0.18483,0.7765299999999999,0.594811
1631204148264,-0.185257,0.779641,0.5946279999999999
1631204148273,-0.185562,0.781593,0.59536
1631204148283,-0.186477,0.782142,0.5958479999999999
1631204148293,-0.18727,0.784033,0.595787
1631204148302,-0.18849,0.783972,0.59597
1631204148312,-0.188795,0.784704,0.599325
1631204148321,-0.189588,0.784338,0.602009
1631204148331,-0.189832,0.7826299999999999,0.60268
1631204148341,-0.190442,0.780373,0.601216
1631204148350,-0.189893,0.779641,0.598593
1631204148360,-0.19093,0.7786649999999999,0.5970679999999999
1631204148369,-0.190625,0.778543,0.594567
1631204148379,-0.191052,0.778177,0.5921879999999999
1631204148389,-0.19056399999999998,0.7765299999999999,0.5915779999999999
1631204148398,-0.189588,0.7759199999999999,0.591212
1631204148408,-0.18849,0.776652,0.593835
1631204148417,-0.187148,0.777384,0.5934079999999999
1631204148427,-0.18605,0.778299,0.594994
1631204148437,-0.18501299999999998,0.777628,0.594445
1631204148446,-0.18440299999999998,0.776957,0.593347
1631204148456,-0.183244,0.7777499999999999,0.5934079999999999
1631204148465,-0.181597,0.777323,0.593042
1631204148475,-0.180194,0.775676,0.593896
1631204148485,-0.179523,0.774883,0.595421
1631204148494,-0.179401,0.774212,0.594384
1631204148504,-0.17824199999999998,0.773541,0.5940179999999999
1631204148513,-0.177815,0.774212,0.593652
1631204148523,-0.176229,0.774273,0.592981
1631204148533,-0.175192,0.774822,0.5917
1631204148542,-0.174338,0.776164,0.591761
1631204148552,-0.172447,0.776896,0.591822
1631204148561,-0.173423,0.775737,0.59109
1631204148571,-0.172874,0.776286,0.590846
1631204148581,-0.172813,0.776286,0.59109
1631204148590,-0.17330099999999998,0.776164,0.5917
1631204148600,-0.173484,0.776957,0.590907
1631204148609,-0.173972,0.776408,0.591395
1631204148619,-0.173179,0.776591,0.591639
1631204148629,-0.173911,0.776164,0.592615
1631204148638,-0.174033,0.777262,0.592432
1631204148648,-0.174643,0.7771399999999999,0.5931029999999999
1631204148657,-0.174094,0.777628,0.593469
1631204148667,-0.174704,0.778726,0.594506
1631204148677,-0.174338,0.779824,0.593896
1631204148686,-0.174948,0.780983,0.593896
1631204148696,-0.173057,0.781166,0.59353
1631204148705,-0.173728,0.7820199999999999,0.591944
1631204148715,-0.174338,0.781471,0.591456
1631204148725,-0.175619,0.7814099999999999,0.5921879999999999
1631204148734,-0.174643,0.780373,0.591822
1631204148744,-0.174765,0.780678,0.592127
1631204148753,-0.17507,0.781288,0.591456
1631204148763,-0.175314,0.782264,0.591517
1631204148773,-0.174094,0.782996,0.590846
1631204148782,-0.172752,0.783972,0.5906629999999999
1631204148792,-0.17238599999999998,0.783179,0.591029
1631204148801,-0.172752,0.7850699999999999,0.590175
1631204148811,-0.171837,0.7847649999999999,0.589504
1631204148821,-0.171654,0.784582,0.59048
1631204148830,-0.171044,0.783057,0.58987
1631204148840,-0.171959,0.781959,0.590724
1631204148849,-0.17116599999999998,0.7804949999999999,0.590419
1631204148859,-0.172142,0.781349,0.588772
1631204148869,-0.17208099999999998,0.781166,0.588772
1631204148878,-0.17147099999999998,0.780983,0.5885279999999999
1631204148888,-0.172874,0.781166,0.588162
1631204148897,-0.172447,0.783423,0.589504
1631204148907,-0.171654,0.7844599999999999,0.590785
1631204148917,-0.169214,0.784643,0.591334
1631204148926,-0.168848,0.785314,0.591212
1631204148936,-0.167872,0.785558,0.590541
1631204148945,-0.168177,0.784704,0.586881
1631204148955,-0.167933,0.784826,0.583648
1631204148965,-0.16744499999999998,0.785192,0.582001
1631204148974,-0.165676,0.785619,0.581208
1631204148984,-0.164944,0.786839,0.580476
1631204148993,-0.164822,0.7875099999999999,0.580842
1631204149003,-0.164334,0.787144,0.579805
1631204149013,-0.16408999999999999,0.786961,0.580537
1631204149022,-0.163541,0.786107,0.581635
1631204149032,-0.163236,0.786717,0.583282
1631204149041,-0.162992,0.787083,0.584197
1631204149051,-0.165493,0.787754,0.5851729999999999
1631204149061,-0.165188,0.788181,0.5845629999999999
1631204149070,-0.16561499999999998,0.787998,0.583831
1631204149080,-0.166042,0.7893399999999999,0.583282
1631204149089,-0.16561499999999998,0.790072,0.584502
1631204149099,-0.164517,0.791353,0.584319
1631204149109,-0.164273,0.791231,0.583465
1631204149118,-0.163358,0.7914749999999999,0.581635
1631204149128,-0.162504,0.790499,0.582306
1631204149137,-0.163053,0.789523,0.581635
1631204149147,-0.162016,0.792451,0.581513
1631204149157,-0.161711,0.791414,0.579378
1631204149166,-0.16128399999999998,0.792512,0.579317
1631204149176,-0.160613,0.792451,0.579622
1631204149185,-0.159942,0.794281,0.578951
1631204149195,-0.15921,0.794586,0.578402
1631204149205,-0.158966,0.795501,0.579256
1631204149214,-0.158966,0.795562,0.578707
1631204149224,-0.159576,0.794525,0.578768
1631204149233,-0.159698,0.795074,0.579744
1631204149243,-0.158722,0.795074,0.577853
1631204149253,-0.15884399999999999,0.794891,0.57767
1631204149262,-0.157014,0.795684,0.578402
1631204149272,-0.156831,0.796294,0.578524
1631204149281,-0.157136,0.797331,0.579622
1631204149291,-0.156282,0.79727,0.579317
1631204149301,-0.155489,0.79727,0.578646
1631204149310,-0.15451299999999998,0.797819,0.578463
1631204149320,-0.15481799999999998,0.797575,0.578646
1631204149329,-0.154269,0.795867,0.57767
1631204149339,-0.15420799999999998,0.79483,0.578036
1631204149349,-0.1525,0.793732,0.57706
1631204149358,-0.153842,0.792573,0.57706
1631204149368,-0.1525,0.7917799999999999,0.577121
1631204149377,-0.15298799999999999,0.791109,0.577487
1631204149387,-0.151097,0.7917799999999999,0.576877
1631204149397,-0.150121,0.792146,0.575962
1631204149406,-0.149816,0.791841,0.576206
1631204149416,-0.147864,0.792817,0.576755
1631204149425,-0.148535,0.793183,0.576938
1631204149435,-0.147986,0.794464,0.574986
1631204149445,-0.147376,0.794525,0.575352
1631204149454,-0.146705,0.794647,0.575169
1631204149464,-0.1464,0.794891,0.574315
1631204149473,-0.146888,0.795379,0.573339
1631204149483,-0.14579,0.796538,0.573461
1631204149493,-0.145912,0.797209,0.573522
1631204149502,-0.145729,0.796782,0.5734
1631204149512,-0.146034,0.79666,0.573888
1631204149521,-0.146766,0.797026,0.573705
1631204149531,-0.147071,0.797819,0.574254
1631204149541,-0.147193,0.798795,0.575108
1631204149550,-0.146278,0.798978,0.574864
1631204149560,-0.146461,0.798673,0.573583
1631204149569,-0.145302,0.799466,0.5734
1631204149579,-0.144448,0.799588,0.572668
1631204149589,-0.144265,0.7993439999999999,0.571265
1631204149598,-0.144387,0.7991,0.570716
1631204149608,-0.143899,0.799588,0.5708989999999999
1631204149617,-0.143838,0.799466,0.570533
1631204149627,-0.145668,0.80032,0.57096
1631204149637,-0.145241,0.7999539999999999,0.5705939999999999
1631204149646,-0.146156,0.80032,0.5712039999999999
1631204149656,-0.146095,0.800503,0.57157
1631204149665,-0.14621699999999999,0.800198,0.571265
1631204149675,-0.146949,0.80215,0.5715089999999999
1631204149685,-0.14762,0.802028,0.572363
1631204149694,-0.148291,0.800991,0.571631
1631204149704,-0.148413,0.800381,0.572546
1631204149713,-0.147925,0.8005639999999999,0.572241
1631204149723,-0.147559,0.8005639999999999,0.572546
1631204149733,-0.14945,0.799527,0.572668
1631204149742,-0.151158,0.7993439999999999,0.571692
1631204149752,-0.151585,0.800137,0.572851
1631204149761,-0.151951,0.800198,0.573888
1631204149771,-0.150487,0.801418,0.57462
1631204149781,-0.151097,0.801235,0.575413
1631204149790,-0.150304,0.801906,0.57584
1631204149800,-0.150426,0.801906,0.574132
1631204149809,-0.151524,0.80154,0.571692
1631204149819,-0.15006,0.8014789999999999,0.569252
1631204149829,-0.150121,0.80032,0.5681539999999999
1631204149838,-0.14896199999999998,0.800625,0.568825
1631204149848,-0.149877,0.800808,0.56791
1631204149857,-0.149206,0.80093,0.5684589999999999
1631204149867,-0.149694,0.801418,0.567727
1631204149877,-0.14774199999999998,0.800625,0.566995
1631204149886,-0.148779,0.79971,0.567361
1631204149896,-0.14865699999999998,0.800442,0.566263
1631204149905,-0.147986,0.800137,0.566141
1631204149915,-0.14762,0.8008689999999999,0.5651039999999999
1631204149925,-0.14804699999999998,0.8005639999999999,0.564616
1631204149934,-0.14884,0.802272,0.56425
1631204149944,-0.149145,0.802577,0.564738
1631204149953,-0.149206,0.803492,0.566202
1631204149963,-0.149816,0.802882,0.565592
1631204149973,-0.150792,0.804956,0.565775
1631204149982,-0.15067,0.8060539999999999,0.5651039999999999
1631204149992,-0.15067,0.805505,0.564433
1631204150001,-0.15006,0.8060539999999999,0.563701
1631204150011,-0.150182,0.806603,0.564677
1631204150021,-0.150487,0.805627,0.56364
1631204150030,-0.150975,0.805505,0.5629689999999999
1631204150040,-0.150182,0.805505,0.5641889999999999
1631204150049,-0.150426,0.805261,0.565165
1631204150059,-0.14926699999999998,0.804651,0.567117
1631204150069,-0.14823,0.8048339999999999,0.569008
1631204150078,-0.147986,0.803858,0.5693739999999999
1631204150088,-0.14682699999999999,0.803736,0.570106
1631204150097,-0.146583,0.804102,0.5678489999999999
1631204150107,-0.145607,0.804285,0.5654089999999999
1631204150117,-0.146095,0.805993,0.563945
1631204150126,-0.145058,0.807457,0.562786
1631204150136,-0.145973,0.808067,0.561566
1631204150145,-0.145973,0.808006,0.559309
1631204150155,-0.144265,0.808616,0.559553
1631204150165,-0.145241,0.809592,0.560712
1631204150174,-0.145424,0.810385,0.562298
1631204150184,-0.145363,0.80947,0.5632739999999999
1631204150193,-0.145363,0.8091039999999999,0.564006
1631204150203,-0.145546,0.808555,0.5657139999999999
1631204150213,-0.145058,0.8075789999999999,0.5681539999999999
1631204150222,-0.146095,0.805932,0.568398
1631204150232,-0.147925,0.804102,0.567361
1631204150241,-0.148413,0.803248,0.56791
1631204150251,-0.14835199999999998,0.80215,0.568093
1631204150261,-0.14884,0.802272,0.568703
1631204150270,-0.149633,0.801845,0.569557
1631204150280,-0.149511,0.800991,0.569313
1631204150289,-0.149755,0.800381,0.569862
1631204150299,-0.148779,0.800503,0.569618
1631204150309,-0.148779,0.800076,0.56791
1631204150318,-0.150182,0.799405,0.568703
1631204150328,-0.150609,0.799527,0.5672389999999999
1631204150337,-0.149877,0.798185,0.56669
1631204150347,-0.150975,0.7990389999999999,0.5669339999999999
1631204150357,-0.150426,0.800198,0.567422
1631204150366,-0.15128,0.800381,0.566873
1631204150376,-0.151158,0.800808,0.5678489999999999
1631204150385,-0.151585,0.80215,0.568032
1631204150395,-0.151097,0.802333,0.567483
1631204150405,-0.150914,0.8023939999999999,0.567178
1631204150414,-0.149755,0.802821,0.568215
1631204150424,-0.150243,0.803248,0.56608
1631204150433,-0.151646,0.803431,0.565775
1631204150443,-0.15128,0.803065,0.5657139999999999
1631204150453,-0.150731,0.803797,0.565958
1631204150462,-0.150487,0.802638,0.565653
1631204150472,-0.151402,0.803553,0.565958
1631204150481,-0.151219,0.8033089999999999,0.566141
1631204150491,-0.150731,0.802028,0.56608
1631204150501,-0.15189,0.80215,0.566751
1631204150510,-0.151829,0.801662,0.566446
1631204150520,-0.151097,0.80032,0.565897
1631204150529,-0.152439,0.799771,0.567056
1631204150539,-0.153781,0.7996489999999999,0.568276
1631204150549,-0.153842,0.800137,0.569618
1631204150558,-0.15481799999999998,0.800381,0.570655
1631204150568,-0.155306,0.8011739999999999,0.571082
1631204150577,-0.15451299999999998,0.800015,0.570655
1631204150587,-0.155184,0.80154,0.571082
1631204150597,-0.156038,0.802577,0.571021
1631204150606,-0.154879,0.800076,0.56974
1631204150616,-0.155367,0.799405,0.56974
1631204150625,-0.156953,0.7993439999999999,0.569801
1631204150635,-0.156709,0.800503,0.57096
1631204150645,-0.155977,0.80032,0.572485
1631204150654,-0.155611,0.802028,0.574376
1631204150664,-0.155733,0.801662,0.574986
1631204150673,-0.155489,0.801235,0.575596
1631204150683,-0.156282,0.801296,0.574742
1631204150693,-0.15677,0.800076,0.573522
1631204150702,-0.155062,0.799588,0.571692
1631204150712,-0.15481799999999998,0.800686,0.570472
1631204150721,-0.15433,0.799893,0.570472
1631204150731,-0.153171,0.7990389999999999,0.569923
1631204150741,-0.152134,0.799405,0.569862
1631204150750,-0.152134,0.798307,0.571753
1631204150760,-0.151463,0.797392,0.571326
1631204150769,-0.151646,0.79605,0.572485
1631204150779,-0.151402,0.795562,0.5712039999999999
1631204150789,-0.15067,0.795562,0.569252
1631204150798,-0.151036,0.796172,0.569862
1631204150808,-0.151585,0.797087,0.568825
1631204150817,-0.151707,0.798856,0.5696789999999999
1631204150827,-0.15189,0.800076,0.5693739999999999
1631204150837,-0.151951,0.801052,0.5696789999999999
1631204150846,-0.151585,0.8017839999999999,0.570655
1631204150856,-0.151036,0.801845,0.570106
1631204150865,-0.151585,0.801906,0.570716
1631204150875,-0.151646,0.8014789999999999,0.57096
1631204150885,-0.152317,0.80032,0.569801
1631204150894,-0.152439,0.800503,0.569191
1631204150904,-0.153049,0.799222,0.5690689999999999
1631204150913,-0.153171,0.7991,0.569313
1631204150923,-0.152012,0.7991,0.571143
1631204150933,-0.15207299999999999,0.798917,0.571387
1631204150942,-0.152805,0.799527,0.571265
1631204150952,-0.15311,0.799588,0.5705939999999999
1631204150961,-0.15298799999999999,0.800442,0.570533
1631204150971,-0.152012,0.801052,0.5705939999999999
1631204150981,-0.15237799999999999,0.8011739999999999,0.56913
1631204150990,-0.152805,0.800991,0.569313
1631204151000,-0.151402,0.80154,0.569801
1631204151009,-0.150365,0.800808,0.570228
1631204151019,-0.150853,0.801113,0.570472
1631204151029,-0.150914,0.801357,0.570716
1631204151038,-0.150121,0.802211,0.571021
1631204151048,-0.149999,0.802516,0.569496
1631204151057,-0.148901,0.803126,0.568947
1631204151067,-0.149938,0.803797,0.567666
1631204151077,-0.149389,0.803675,0.5672389999999999
1631204151086,-0.148901,0.802577,0.5675439999999999
1631204151096,-0.149938,0.802516,0.56791
1631204151105,-0.149206,0.80215,0.56913
1631204151115,-0.14945,0.801662,0.569252
1631204151125,-0.149694,0.80215,0.570533
1631204151134,-0.149816,0.8005639999999999,0.570228
1631204151144,-0.14896199999999998,0.799466,0.569923
1631204151153,-0.14884,0.79849,0.569557
1631204151163,-0.149328,0.798368,0.56974
1631204151173,-0.149938,0.797819,0.56852
1631204151182,-0.149694,0.797087,0.5687639999999999
1631204151192,-0.149145,0.798185,0.568398
1631204151201,-0.149694,0.798307,0.568032
1631204151211,-0.150182,0.798307,0.567788
1631204151221,-0.149206,0.799405,0.568398
1631204151230,-0.15067,0.7993439999999999,0.569191
1631204151240,-0.150243,0.800015,0.569008
1631204151249,-0.15067,0.8005639999999999,0.568398
1631204151259,-0.15067,0.800198,0.568215
1631204151269,-0.151646,0.800991,0.568398
1631204151278,-0.15237799999999999,0.801418,0.568337
1631204151288,-0.154025,0.801845,0.568886
1631204151297,-0.15298799999999999,0.801418,0.5693739999999999
1631204151307,-0.153964,0.8011739999999999,0.57035
1631204151317,-0.15555,0.800198,0.569496
1631204151326,-0.154635,0.7999539999999999,0.5690689999999999
1631204151336,-0.155306,0.800076,0.570228
1631204151345,-0.155184,0.8011739999999999,0.5696789999999999
1631204151355,-0.155855,0.800808,0.57035
1631204151365,-0.155611,0.800686,0.570045
1631204151374,-0.155733,0.79971,0.571082
1631204151384,-0.156892,0.798795,0.570472
1631204151393,-0.156953,0.798673,0.569313
1631204151403,-0.15792899999999999,0.7990389999999999,0.5696789999999999
1631204151413,-0.157624,0.7987339999999999,0.5690689999999999
1631204151422,-0.15792899999999999,0.799832,0.569496
1631204151432,-0.157319,0.800503,0.569435
1631204151441,-0.157868,0.8017839999999999,0.570228
1631204151451,-0.157868,0.803126,0.571326
1631204151461,-0.157624,0.802272,0.571387
1631204151470,-0.15738,0.802028,0.570472
1631204151480,-0.158905,0.801967,0.570228
1631204151489,-0.158112,0.802333,0.56974
1631204151499,-0.157807,0.8011739999999999,0.569008
1631204151509,-0.158417,0.797758,0.5684589999999999
1631204151518,-0.159088,0.796965,0.568703
1631204151528,-0.160735,0.800076,0.5693739999999999
1631204151537,-0.15853899999999999,0.801418,0.5718139999999999
1631204151547,-0.158417,0.8008689999999999,0.573095
1631204151557,-0.157014,0.80032,0.574132
1631204151566,-0.15853899999999999,0.800503,0.572851
1631204151576,-0.157136,0.800076,0.571265
1631204151585,-0.157807,0.798246,0.56791
1631204151595,-0.156587,0.79727,0.5669339999999999
1631204151605,-0.156343,0.797331,0.565653
1631204151614,-0.155367,0.798124,0.566995
1631204151624,-0.155611,0.798551,0.568886
1631204151633,-0.155245,0.799588,0.569435
1631204151643,-0.155855,0.798307,0.569435
1631204151653,-0.15494,0.798795,0.569435
1631204151662,-0.154696,0.798124,0.568703
1631204151672,-0.15433,0.79849,0.5675439999999999
1631204151681,-0.154147,0.79971,0.5660189999999999
1631204151691,-0.153354,0.800198,0.565775
1631204151701,-0.154086,0.8014789999999999,0.56547
1631204151710,-0.155306,0.801845,0.566446
1631204151720,-0.15555,0.803248,0.567361
1631204151729,-0.156465,0.803187,0.566995
1631204151739,-0.15616,0.803553,0.568276
1631204151749,-0.157258,0.8030039999999999,0.5675439999999999
1631204151758,-0.156282,0.804041,0.5681539999999999
1631204151768,-0.156465,0.8030039999999999,0.568947
1631204151777,-0.156892,0.8023939999999999,0.56791
1631204151787,-0.156526,0.803492,0.5675439999999999
1631204151797,-0.157319,0.80276,0.5663239999999999
1631204151806,-0.157624,0.801906,0.5663239999999999
1631204151816,-0.156648,0.8020889999999999,0.5672389999999999
1631204151825,-0.156587,0.801723,0.568703
1631204151835,-0.156526,0.801967,0.5690689999999999
1631204151845,-0.157319,0.801418,0.569435
1631204151854,-0.157502,0.80154,0.567971
1631204151864,-0.157441,0.802821,0.566446
1631204151873,-0.156831,0.803492,0.5666289999999999
1631204151883,-0.156953,0.804346,0.5666289999999999
1631204151893,-0.156526,0.803858,0.567971
1631204151902,-0.156099,0.802882,0.566995
1631204151912,-0.155428,0.80337,0.5681539999999999
1631204151921,-0.155306,0.802516,0.5690689999999999
1631204151931,-0.155916,0.803065,0.56913
1631204151941,-0.155672,0.802272,0.568886
1631204151950,-0.15451299999999998,0.803248,0.568703
1631204151960,-0.15420799999999998,0.801662,0.567727
1631204151969,-0.154147,0.802272,0.56791
1631204151979,-0.153842,0.8020889999999999,0.566995
1631204151989,-0.153354,0.8017839999999999,0.566812
1631204151998,-0.154086,0.80154,0.5684589999999999
1631204152008,-0.153049,0.800625,0.567117
1631204152017,-0.15329299999999998,0.800686,0.5673
1631204152027,-0.151463,0.800381,0.566873
1631204152037,-0.152256,0.80032,0.567117
1631204152046,-0.151097,0.8011739999999999,0.567117
1631204152056,-0.151402,0.8008689999999999,0.5660189999999999
1631204152065,-0.151402,0.800076,0.565775
1631204152075,-0.15189,0.8014789999999999,0.564128
1631204152085,-0.152134,0.800747,0.56486
1631204152094,-0.15189,0.801296,0.5651039999999999
1631204152104,-0.151951,0.801052,0.5641889999999999
1631204152113,-0.151158,0.801601,0.564616
1631204152123,-0.152439,0.801906,0.56425
1631204152133,-0.152439,0.803065,0.564311
1631204152142,-0.152317,0.803126,0.564677
1631204152152,-0.153354,0.80337,0.564921
1631204152161,-0.152866,0.804346,0.564311
1631204152171,-0.153659,0.803492,0.5638839999999999
1631204152181,-0.153232,0.804285,0.564982
1631204152190,-0.153842,0.805017,0.563457
1631204152200,-0.15451299999999998,0.805383,0.562786
1631204152209,-0.154391,0.806237,0.56303
1631204152219,-0.154635,0.806115,0.563457
1631204152229,-0.155184,0.805688,0.564006
1631204152238,-0.154452,0.804956,0.564067
1631204152248,-0.155672,0.8039189999999999,0.564128
1631204152257,-0.155184,0.803553,0.564555
1631204152267,-0.155184,0.804163,0.563457
1631204152277,-0.15494,0.8042239999999999,0.562542
1631204152286,-0.155428,0.8042239999999999,0.562115
1631204152296,-0.155184,0.804407,0.562176
1631204152305,-0.154696,0.8054439999999999,0.56242
1631204152315,-0.15494,0.8063589999999999,0.561383
1631204152325,-0.153964,0.808067,0.562176
1631204152334,-0.154391,0.807945,0.5623589999999999
1631204152344,-0.154025,0.80764,0.5612
1631204152353,-0.153964,0.8063589999999999,0.559858
1631204152363,-0.153537,0.806176,0.560346
1631204152373,-0.154025,0.806603,0.560346
1631204152382,-0.15359799999999998,0.8048339999999999,0.559492
1631204152392,-0.155062,0.805322,0.559248
1631204152401,-0.156221,0.806847,0.560346
1631204152411,-0.15555,0.808311,0.561322
1631204152421,-0.155062,0.80764,0.5623589999999999
1631204152430,-0.153415,0.8087989999999999,0.563152
1631204152440,-0.154269,0.8084939999999999,0.562237
1631204152449,-0.154635,0.808616,0.560773
1631204152459,-0.155733,0.808006,0.557662
1631204152469,-0.155977,0.8081889999999999,0.555649
1631204152478,-0.15481799999999998,0.808128,0.555771
1631204152488,-0.154696,0.80825,0.556564
1631204152497,-0.15359799999999998,0.8081889999999999,0.557052
1631204152507,-0.152927,0.8081889999999999,0.55632
1631204152517,-0.153415,0.808067,0.556015
1631204152526,-0.153537,0.807518,0.555161
1631204152536,-0.153354,0.807945,0.555832
1631204152545,-0.154696,0.808433,0.55388
1631204152555,-0.155062,0.807213,0.553758
1631204152565,-0.155001,0.807091,0.553697
1631204152574,-0.155489,0.808006,0.554978
1631204152584,-0.156587,0.809348,0.555466
1631204152593,-0.157502,0.809653,0.556808
1631204152603,-0.157441,0.810873,0.557845
1631204152613,-0.157563,0.81191,0.55754
1631204152622,-0.157319,0.811971,0.557662
1631204152632,-0.158051,0.810446,0.556686
1631204152641,-0.158295,0.809287,0.555527
1631204152651,-0.158417,0.8097139999999999,0.555405
1631204152661,-0.1586,0.8091039999999999,0.55449
1631204152670,-0.15853899999999999,0.8078839999999999,0.553453
1631204152680,-0.15823399999999999,0.808372,0.556564
1631204152689,-0.157563,0.809226,0.557418
1631204152699,-0.159332,0.808372,0.557357
1631204152709,-0.158966,0.80825,0.556808
1631204152718,-0.158661,0.80764,0.556747
1631204152728,-0.159271,0.807213,0.555039
1631204152737,-0.15921,0.808372,0.55388
1631204152747,-0.158478,0.808616,0.55266
1631204152757,-0.158295,0.809165,0.552721
1631204152766,-0.157746,0.811117,0.552477
1631204152776,-0.158417,0.81191,0.553758
1631204152785,-0.157136,0.811971,0.553697
1631204152795,-0.157563,0.81252,0.554185
1631204152805,-0.158783,0.813862,0.55388
1631204152814,-0.158173,0.814838,0.552965
1631204152824,-0.15914899999999998,0.815143,0.553087
1631204152833,-0.160003,0.81496,0.55266
1631204152843,-0.15921,0.81374,0.55266
1631204152853,-0.15914899999999998,0.813252,0.55327
1631204152862,-0.159637,0.812825,0.552477
1631204152872,-0.158661,0.811788,0.552782
1631204152881,-0.158356,0.8115439999999999,0.554978
1631204152891,-0.159698,0.810385,0.555649
1631204152901,-0.159271,0.8087989999999999,0.55632
1631204152910,-0.158478,0.80886,0.556198
1631204152920,-0.15945399999999998,0.808128,0.556076
1631204152929,-0.159088,0.80764,0.555222
1631204152939,-0.1586,0.807396,0.554612
1631204152949,-0.158722,0.807457,0.554978
1631204152958,-0.158661,0.807213,0.55388
1631204152968,-0.15799,0.806176,0.554795
1631204152977,-0.157746,0.807152,0.554124
1631204152987,-0.15738,0.808311,0.553758
1631204152997,-0.156953,0.809043,0.553514
1631204153006,-0.156465,0.8103239999999999,0.552294
1631204153016,-0.156221,0.811056,0.55144
1631204153025,-0.157136,0.811361,0.550769
1631204153035,-0.156343,0.81252,0.550159
1631204153045,-0.156099,0.814472,0.55083
1631204153054,-0.156526,0.814106,0.549366
1631204153064,-0.155489,0.813923,0.549915
1631204153073,-0.155855,0.813862,0.549854
1631204153083,-0.155184,0.8130689999999999,0.550952
1631204153093,-0.156587,0.811788,0.551074
1631204153102,-0.156404,0.811605,0.549976
1631204153112,-0.156404,0.811056,0.550464
1631204153121,-0.156831,0.8106289999999999,0.551989
1631204153131,-0.156526,0.811483,0.550769
1631204153141,-0.157075,0.810995,0.551928
1631204153150,-0.156526,0.811422,0.55144
1631204153160,-0.156221,0.811605,0.551928
1631204153169,-0.156648,0.8113,0.55083
1631204153179,-0.156587,0.8118489999999999,0.550037
1631204153189,-0.156221,0.813008,0.550159
1631204153198,-0.155977,0.814045,0.550342
1631204153208,-0.156892,0.814228,0.550159
1631204153217,-0.156465,0.814472,0.551074
1631204153227,-0.155977,0.813496,0.550769
1631204153237,-0.157624,0.813496,0.55144
1631204153246,-0.155794,0.813557,0.551318
1631204153256,-0.157075,0.81374,0.550891
1631204153265,-0.157563,0.811971,0.55205
1631204153275,-0.158783,0.811422,0.550708
1631204153285,-0.15914899999999998,0.812337,0.55144
1631204153294,-0.15945399999999998,0.814106,0.552477
1631204153304,-0.158295,0.81435,0.554002
1631204153313,-0.157563,0.8139839999999999,0.554368
1631204153323,-0.157502,0.813496,0.555954
1631204153333,-0.156953,0.813618,0.55571
1631204153342,-0.157502,0.812398,0.553392
1631204153352,-0.155428,0.8113,0.550586
1631204153361,-0.15512299999999998,0.8097139999999999,0.548756
1631204153371,-0.155428,0.80947,0.548573
1631204153381,-0.155001,0.810751,0.549183
1631204153390,-0.15481799999999998,0.811056,0.550098
1631204153400,-0.155062,0.811666,0.549976
1631204153409,-0.15372,0.812032,0.550891
1631204153419,-0.153537,0.812886,0.550403
1631204153429,-0.153415,0.812947,0.549427
1631204153438,-0.153537,0.812337,0.547963
1631204153448,-0.154025,0.812886,0.5477799999999999
1631204153457,-0.152866,0.8133739999999999,0.546194
1631204153467,-0.15433,0.8130689999999999,0.547109
1631204153477,-0.153659,0.8142889999999999,0.547536
1631204153486,-0.15481799999999998,0.81435,0.548695
1631204153496,-0.155245,0.814472,0.549305
1631204153505,-0.155428,0.814472,0.54961
1631204153515,-0.155855,0.8142889999999999,0.550037
1631204153525,-0.156648,0.81435,0.550647
1631204153534,-0.155672,0.813862,0.550281
1631204153544,-0.156282,0.81374,0.549671
1631204153553,-0.157563,0.813557,0.548634
1631204153563,-0.156953,0.8130689999999999,0.548573
1631204153573,-0.157319,0.812337,0.548268
1631204153582,-0.156465,0.81313,0.550708
1631204153592,-0.157502,0.813618,0.552294
1631204153601,-0.158356,0.8130689999999999,0.551867
1631204153611,-0.158356,0.813618,0.552294
1631204153621,-0.157502,0.813435,0.550769
1631204153630,-0.157563,0.813496,0.550525
1631204153640,-0.156221,0.8148989999999999,0.547719
1631204153649,-0.157075,0.814655,0.546499
1631204153659,-0.156343,0.81435,0.546987
1631204153669,-0.157258,0.815265,0.5477799999999999
1631204153678,-0.156282,0.81496,0.549305
1631204153688,-0.156099,0.815021,0.550342
1631204153697,-0.155916,0.81557,0.550952
1631204153707,-0.156038,0.8148989999999999,0.551928
1631204153717,-0.156404,0.8158139999999999,0.551623
1631204153726,-0.155611,0.815936,0.55205
1631204153736,-0.155672,0.81496,0.550647
1631204153745,-0.155672,0.814716,0.549549
1631204153755,-0.15616,0.8142889999999999,0.549549
1631204153765,-0.155184,0.8130689999999999,0.548695
1631204153774,-0.15433,0.812032,0.549549
1631204153784,-0.15451299999999998,0.8109339999999999,0.548695
1631204153793,-0.154086,0.8113,0.550159
1631204153803,-0.15433,0.8113,0.549793
1631204153813,-0.15390299999999998,0.811605,0.550525
1631204153822,-0.15420799999999998,0.811666,0.550525
1631204153832,-0.15311,0.813618,0.55083
1631204153841,-0.15329299999999998,0.813618,0.549366
1631204153851,-0.153415,0.812642,0.549122
1631204153861,-0.153232,0.813252,0.549366
1631204153870,-0.154452,0.8130689999999999,0.548756
1631204153880,-0.15372,0.813008,0.5483899999999999
1631204153889,-0.153842,0.8127639999999999,0.549976
1631204153899,-0.153232,0.8133739999999999,0.549244
1631204153909,-0.153659,0.813252,0.549244
1631204153918,-0.15372,0.81313,0.548817
1631204153928,-0.15329299999999998,0.814472,0.548512
1631204153937,-0.154086,0.81435,0.547597
1631204153947,-0.153659,0.8148989999999999,0.547841
1631204153957,-0.155733,0.814838,0.5483899999999999
1631204153966,-0.154879,0.814838,0.549732
1631204153976,-0.155855,0.814411,0.549366
1631204153985,-0.155977,0.815021,0.550403
1631204153995,-0.15555,0.815265,0.549854
1631204154005,-0.155916,0.815936,0.549549
1631204154014,-0.155367,0.816241,0.548939
1631204154024,-0.15512299999999998,0.81496,0.548024
1631204154033,-0.155306,0.815082,0.547841
1631204154043,-0.155794,0.814472,0.547292
1631204154053,-0.155428,0.814716,0.547292
1631204154062,-0.155245,0.815082,0.546621
1631204154072,-0.154879,0.814655,0.546987
1631204154081,-0.155611,0.815326,0.547414
1631204154091,-0.15555,0.814777,0.5477799999999999
1631204154101,-0.156343,0.815753,0.5483899999999999
1631204154110,-0.156465,0.816912,0.549122
1631204154120,-0.157075,0.8155089999999999,0.548695
1631204154129,-0.156587,0.814106,0.548573
1631204154139,-0.156404,0.8136789999999999,0.547841
1631204154149,-0.156526,0.814106,0.5468649999999999
1631204154158,-0.156587,0.813862,0.546682
1631204154168,-0.156526,0.812947,0.545828
1631204154177,-0.157441,0.812947,0.545462
1631204154187,-0.157746,0.81557,0.546316
1631204154197,-0.158051,0.816668,0.547109
1631204154206,-0.156953,0.818193,0.549671
1631204154216,-0.157136,0.81984,0.549854
1631204154225,-0.156038,0.81984,0.549305
1631204154235,-0.156038,0.820267,0.548329
1631204154245,-0.156282,0.818986,0.546804
1631204154254,-0.155855,0.817461,0.5441199999999999
1631204154264,-0.154147,0.8161189999999999,0.543876
1631204154273,-0.154696,0.814838,0.543937
1631204154283,-0.153781,0.81496,0.544791
1631204154293,-0.15329299999999998,0.814716,0.545279
1631204154302,-0.152012,0.814655,0.545584
1631204154312,-0.151768,0.814228,0.546743
1631204154321,-0.152012,0.814228,0.546316
1631204154331,-0.151646,0.814655,0.546682
1631204154341,-0.151829,0.814838,0.544608
1631204154350,-0.15128,0.815021,0.543449
1631204154360,-0.151158,0.815631,0.542229
1631204154369,-0.151707,0.817034,0.5425949999999999
1631204154379,-0.151524,0.818254,0.5435099999999999
1631204154389,-0.151341,0.818925,0.544059
1631204154398,-0.151158,0.819352,0.542778
1631204154408,-0.151158,0.820633,0.543571
1631204154417,-0.150304,0.821304,0.544242
1631204154427,-0.149938,0.820816,0.5456449999999999
1631204154437,-0.150731,0.818986,0.545157
1631204154446,-0.151829,0.817766,0.544242
1631204154456,-0.15207299999999999,0.816485,0.544181
1631204154465,-0.151768,0.8158139999999999,0.543144
1631204154475,-0.151951,0.814838,0.545889
1631204154485,-0.151341,0.814228,0.547109
1631204154494,-0.151402,0.81374,0.547414
1631204154504,-0.15207299999999999,0.813191,0.547719
1631204154513,-0.152744,0.812642,0.546316
1631204154523,-0.15189,0.814533,0.5450349999999999
1631204154533,-0.15128,0.816058,0.5435099999999999
1631204154542,-0.151097,0.817461,0.542961
1631204154552,-0.150487,0.820206,0.543022
1631204154561,-0.14945,0.821426,0.5425949999999999
1631204154571,-0.149633,0.822951,0.542229
1631204154581,-0.14884,0.8233779999999999,0.5428999999999999
1631204154590,-0.14823,0.824232,0.541802
1631204154600,-0.147376,0.824232,0.543266
1631204154609,-0.14762,0.823744,0.5425949999999999
1631204154619,-0.14774199999999998,0.822219,0.542534
1631204154629,-0.147315,0.820633,0.544059
1631204154638,-0.147376,0.819657,0.544486
1631204154648,-0.147559,0.81801,0.5450349999999999
1631204154657,-0.147498,0.816851,0.5453399999999999
1631204154667,-0.149389,0.815936,0.546133
1631204154677,-0.147986,0.814533,0.546011
1631204154686,-0.148291,0.814716,0.5462549999999999
1631204154696,-0.147254,0.815387,0.546621
1631204154705,-0.14713199999999999,0.8148989999999999,0.547597
1631204154715,-0.14682699999999999,0.814655,0.547109
1631204154725,-0.147498,0.81557,0.546621
1631204154734,-0.146949,0.815326,0.5459499999999999
1631204154744,-0.1464,0.8164239999999999,0.5447299999999999
1631204154753,-0.145302,0.817705,0.544486
1631204154763,-0.145912,0.817766,0.5428999999999999
1631204154773,-0.145546,0.818803,0.542168
1631204154782,-0.144753,0.819047,0.541924
1631204154792,-0.144753,0.818864,0.541131
1631204154801,-0.145058,0.820084,0.540643
1631204154811,-0.145058,0.81984,0.541009
1631204154821,-0.14621699999999999,0.819413,0.540643
1631204154830,-0.146278,0.820328,0.5410699999999999
1631204154840,-0.145302,0.819657,0.541497
1631204154849,-0.146644,0.819718,0.540399
1631204154859,-0.148169,0.819108,0.541192
1631204154869,-0.14774199999999998,0.818498,0.5407649999999999
1631204154878,-0.148474,0.818315,0.540887
1631204154888,-0.149389,0.818376,0.540948
1631204154897,-0.14896199999999998,0.819169,0.542961
1631204154907,-0.14926699999999998,0.819474,0.5438149999999999
1631204154917,-0.150243,0.820328,0.542534
1631204154926,-0.151036,0.820145,0.5419849999999999
1631204154936,-0.150243,0.820206,0.541619
1631204154945,-0.151036,0.820328,0.5419849999999999
1631204154955,-0.151097,0.820389,0.540826
1631204154965,-0.151646,0.821731,0.540704
1631204154974,-0.152317,0.822219,0.540094
1631204154984,-0.150609,0.8230729999999999,0.540704
1631204154993,-0.150975,0.8230729999999999,0.540094
1631204155003,-0.15067,0.8236829999999999,0.539179
1631204155013,-0.150609,0.823195,0.539972
1631204155022,-0.151158,0.824476,0.539484
1631204155032,-0.150975,0.823317,0.539423
1631204155041,-0.150792,0.82228,0.539728
1631204155051,-0.151402,0.8227679999999999,0.539606
1631204155061,-0.150731,0.822524,0.539301
1631204155070,-0.149938,0.821548,0.539301
1631204155080,-0.149633,0.818742,0.537959
1631204155089,-0.150914,0.818498,0.537776
1631204155099,-0.151219,0.820694,0.5380199999999999
1631204155109,-0.150304,0.82106,0.539423
1631204155118,-0.149389,0.822524,0.540521
1631204155128,-0.147986,0.8224629999999999,0.541863
1631204155137,-0.149328,0.8224629999999999,0.540582
1631204155147,-0.149572,0.822036,0.5377149999999999
1631204155157,-0.14926699999999998,0.821792,0.535458
1631204155166,-0.149572,0.821792,0.532774
1631204155176,-0.148718,0.821487,0.532896
1631204155185,-0.14865699999999998,0.822707,0.533079
1631204155195,-0.148779,0.823012,0.534299
1631204155205,-0.148535,0.821914,0.533933
1631204155214,-0.148169,0.822646,0.534482
1631204155224,-0.147986,0.821548,0.533811
1631204155233,-0.14865699999999998,0.821792,0.533445
1631204155243,-0.14823,0.82289,0.532835
1631204155253,-0.149389,0.8239879999999999,0.532774
1631204155262,-0.149145,0.824415,0.532713
1631204155272,-0.148779,0.824842,0.532591
1631204155281,-0.148169,0.825391,0.532957
1631204155291,-0.149389,0.826184,0.534177
1631204155301,-0.149877,0.826977,0.534543
1631204155310,-0.150609,0.8270379999999999,0.53497
1631204155320,-0.15067,0.826062,0.53558
1631204155329,-0.150487,0.8264279999999999,0.535702
1631204155339,-0.150182,0.8242929999999999,0.536007
1631204155349,-0.151707,0.822951,0.534116
1631204155358,-0.151158,0.823927,0.535092
1631204155368,-0.15207299999999999,0.823134,0.534238
1631204155377,-0.150548,0.823012,0.533811
1631204155387,-0.149633,0.8239879999999999,0.535824
1631204155397,-0.150731,0.8235,0.5364949999999999
1631204155406,-0.151097,0.8245979999999999,0.535824
1631204155416,-0.151402,0.824232,0.535458
1631204155425,-0.149816,0.824842,0.535519
1631204155435,-0.149145,0.824781,0.534909
1631204155445,-0.149145,0.825696,0.533445
1631204155454,-0.149145,0.826367,0.532774
1631204155464,-0.149328,0.8270379999999999,0.533506
1631204155473,-0.14835199999999998,0.826611,0.532774
1631204155483,-0.147681,0.8267329999999999,0.532957
1631204155493,-0.148535,0.827709,0.53497
1631204155502,-0.148291,0.827587,0.534055
1631204155512,-0.14926699999999998,0.827526,0.534665
1631204155521,-0.149145,0.827465,0.532713
1631204155531,-0.147864,0.827892,0.534055
1631204155541,-0.14823,0.826672,0.534726
1631204155550,-0.148535,0.826794,0.534482
1631204155560,-0.147254,0.826672,0.533628
1631204155569,-0.147254,0.826367,0.533872
1631204155579,-0.147193,0.825757,0.533872
1631204155589,-0.147803,0.825452,0.534116
1631204155598,-0.146888,0.824354,0.533323
1631204155608,-0.146583,0.8242929999999999,0.533567
1631204155617,-0.14682699999999999,0.824232,0.533323
1631204155627,-0.146705,0.823622,0.533506
1631204155637,-0.14652199999999999,0.824354,0.533018
1631204155646,-0.146888,0.8236829999999999,0.533689
1631204155656,-0.1464,0.823439,0.533506
1631204155665,-0.1464,0.824537,0.533872
1631204155675,-0.14652199999999999,0.8239879999999999,0.532774
1631204155685,-0.146461,0.824476,0.53253
1631204155694,-0.146705,0.823805,0.531432
1631204155704,-0.146339,0.8236829999999999,0.531066
1631204155713,-0.146583,0.823744,0.529968
1631204155723,-0.147864,0.8245979999999999,0.528809
1631204155733,-0.147803,0.825696,0.529358
1631204155742,-0.147193,0.825574,0.528199
1631204155752,-0.14762,0.827221,0.528504
1631204155761,-0.147071,0.828929,0.528077
1631204155771,-0.147193,0.829295,0.528138
1631204155781,-0.14621699999999999,0.829722,0.527162
1631204155790,-0.14652199999999999,0.828807,0.527772
1631204155800,-0.146339,0.829112,0.528321
1631204155809,-0.14579,0.828075,0.528626
1631204155819,-0.147071,0.8279529999999999,0.527955
1631204155829,-0.147559,0.826794,0.52887
1631204155838,-0.14823,0.827465,0.52826
1631204155848,-0.14835199999999998,0.828075,0.527894
1631204155857,-0.14743699999999998,0.829051,0.52765
1631204155867,-0.147498,0.82899,0.528321
1631204155877,-0.14884,0.8296,0.527589
1631204155886,-0.148108,0.830332,0.526796
1631204155896,-0.14896199999999998,0.8303929999999999,0.526674
1631204155905,-0.149694,0.831735,0.526735
1631204155915,-0.14884,0.83143,0.526064
1631204155925,-0.149328,0.8291729999999999,0.526613
1631204155934,-0.148291,0.829661,0.525454
1631204155944,-0.148413,0.8303929999999999,0.524844
1631204155953,-0.149511,0.830881,0.525027
1631204155963,-0.14884,0.829844,0.524539
1631204155973,-0.149755,0.8285629999999999,0.524356
1631204155982,-0.150426,0.830942,0.525576
1631204155992,-0.149511,0.833687,0.52643
1631204156001,-0.149755,0.833992,0.527467
1631204156011,-0.148169,0.834175,0.52704
1631204156021,-0.148901,0.833931,0.526918
1631204156030,-0.148474,0.8343579999999999,0.525576
1631204156040,-0.14823,0.833016,0.522404
1631204156049,-0.14743699999999998,0.831735,0.520757
1631204156059,-0.148901,0.830881,0.520025
1631204156069,-0.148901,0.8316129999999999,0.518805
1631204156078,-0.14762,0.830881,0.518134
1631204156088,-0.147864,0.830332,0.520025
1631204156097,-0.148108,0.8313079999999999,0.519842
1631204156107,-0.147376,0.832101,0.5206959999999999
1631204156117,-0.147254,0.832955,0.519659
1631204156126,-0.14701,0.832284,0.5197809999999999
1631204156136,-0.147803,0.832711,0.517768
1631204156145,-0.14713199999999999,0.833077,0.518073
1631204156155,-0.14762,0.833199,0.519354
1631204156165,-0.148108,0.8346629999999999,0.519903
1631204156174,-0.149084,0.834602,0.519964
1631204156184,-0.14823,0.8349679999999999,0.520208
1631204156193,-0.14823,0.835334,0.519415
1631204156203,-0.14884,0.834785,0.520635
1631204156213,-0.14835199999999998,0.834175,0.519903
1631204156222,-0.149816,0.834419,0.518805
1631204156232,-0.149938,0.8340529999999999,0.5188659999999999
1631204156241,-0.14945,0.833626,0.5176459999999999
1631204156251,-0.149206,0.83326,0.5164259999999999
1631204156261,-0.149145,0.83387,0.517524
1631204156270,-0.149572,0.834785,0.518683
1631204156280,-0.149694,0.833382,0.518134
1631204156289,-0.15067,0.833626,0.518012
1631204156299,-0.15128,0.83326,0.518195
1631204156309,-0.149633,0.8340529999999999,0.516792
1631204156318,-0.150487,0.835029,0.516182
1631204156328,-0.150365,0.836066,0.516182
1631204156337,-0.150243,0.837042,0.51484
1631204156347,-0.150304,0.837835,0.5158159999999999
1631204156357,-0.150792,0.837957,0.514779
1631204156366,-0.149572,0.8374079999999999,0.514779
1631204156376,-0.150121,0.838079,0.515694
1631204156385,-0.149328,0.8389329999999999,0.516975
1631204156395,-0.14896199999999998,0.8392379999999999,0.515999
1631204156405,-0.148779,0.839299,0.515633
1631204156414,-0.14945,0.839665,0.515267
1631204156424,-0.148596,0.8398479999999999,0.515572
1631204156433,-0.149145,0.8398479999999999,0.5152059999999999
1631204156443,-0.147986,0.839299,0.515938
1631204156453,-0.148413,0.838567,0.51484
1631204156462,-0.148169,0.838445,0.515084
1631204156472,-0.147254,0.837469,0.515755
1631204156481,-0.14713199999999999,0.837042,0.515572
1631204156491,-0.146766,0.835944,0.5149009999999999
1631204156501,-0.14713199999999999,0.837042,0.513925
1631204156510,-0.145607,0.836615,0.513193
1631204156520,-0.145485,0.836859,0.513437
1631204156529,-0.14579,0.8367979999999999,0.512278
1631204156539,-0.145607,0.83692,0.512339
1631204156549,-0.144021,0.8383229999999999,0.511058
1631204156558,-0.145058,0.838201,0.510448
1631204156568,-0.144448,0.8386279999999999,0.510753
1631204156577,-0.145058,0.838445,0.509655
1631204156587,-0.145241,0.839665,0.510448
1631204156597,-0.145668,0.83997,0.51118
1631204156606,-0.143777,0.840336,0.510265
1631204156616,-0.144936,0.840275,0.511424
1631204156625,-0.144021,0.8407629999999999,0.511485
1631204156635,-0.145058,0.840885,0.512034
1631204156645,-0.144631,0.840824,0.5124
1631204156654,-0.144265,0.841922,0.512156
1631204156664,-0.144509,0.841312,0.51179
1631204156673,-0.144448,0.842044,0.511241
1631204156683,-0.143289,0.84302,0.511485
1631204156693,-0.14310599999999998,0.841678,0.510814
1631204156702,-0.143533,0.839665,0.509594
1631204156712,-0.14310599999999998,0.838384,0.509594
1631204156721,-0.142923,0.839665,0.510082
1631204156731,-0.14213,0.837652,0.509472
1631204156741,-0.143411,0.8361879999999999,0.507459
1631204156750,-0.143045,0.836005,0.50569
1631204156760,-0.143838,0.838567,0.505629
1631204156769,-0.143045,0.83875,0.503982
1631204156779,-0.142923,0.8380179999999999,0.502945
1631204156789,-0.143228,0.838689,0.501054
1631204156798,-0.142984,0.839726,0.499956
1631204156808,-0.143716,0.841617,0.500505
1631204156817,-0.142679,0.844118,0.502396
1631204156827,-0.142618,0.844972,0.502457
1631204156837,-0.143899,0.847473,0.504836
1631204156846,-0.144204,0.8492419999999999,0.506178
1631204156856,-0.145912,0.849913,0.507703
1631204156865,-0.145668,0.850279,0.507764
1631204156875,-0.146278,0.8507669999999999,0.507337
1631204156885,-0.146644,0.8516819999999999,0.507032
1631204156894,-0.144509,0.850218,0.506422
1631204156904,-0.145241,0.8495469999999999,0.507032
1631204156913,-0.143655,0.84851,0.507642
1631204156923,-0.143838,0.84668,0.507764
1631204156933,-0.143533,0.844972,0.505202
1631204156942,-0.143472,0.84302,0.503555
1631204156952,-0.142923,0.841739,0.502396
1631204156961,-0.141398,0.842593,0.50325
1631204156971,-0.14066599999999999,0.842776,0.503982
1631204156981,-0.139629,0.844362,0.505629
1631204156990,-0.140178,0.844179,0.50752
1631204157000,-0.138348,0.844728,0.508252
1631204157009,-0.137372,0.845094,0.510082
1631204157019,-0.13663999999999998,0.845094,0.509045
1631204157029,-0.135969,0.844362,0.50874
1631204157038,-0.135542,0.842959,0.507154
1631204157048,-0.134444,0.841617,0.505141
1631204157057,-0.134078,0.841312,0.50264
1631204157067,-0.133285,0.84424,0.505263
1631204157077,-0.132431,0.846009,0.508435
1631204157086,-0.131211,0.845277,0.508618
1631204157096,-0.13047899999999998,0.845521,0.50813
1631204157105,-0.129503,0.843935,0.507764
1631204157115,-0.12834399999999999,0.844789,0.508435
1631204157125,-0.126758,0.844667,0.509045
1631204157134,-0.126392,0.842471,0.508008
1631204157144,-0.127002,0.841739,0.508679
1631204157153,-0.12627,0.842654,0.508862
1631204157163,-0.125599,0.843508,0.510875
1631204157173,-0.124074,0.843874,0.511973
1631204157182,-0.123708,0.845094,0.514718
1631204157192,-0.123281,0.844972,0.5176459999999999
1631204157201,-0.121878,0.845094,0.520574
1631204157211,-0.122183,0.845521,0.5219159999999999
1631204157221,-0.12193899999999999,0.844606,0.52521
1631204157230,-0.121817,0.843752,0.526735
1631204157240,-0.12163399999999999,0.841251,0.527223
1631204157249,-0.120536,0.839421,0.526125
1631204157259,-0.119865,0.836066,0.526003
1631204157269,-0.118218,0.83265,0.523868
1631204157278,-0.11516799999999999,0.830027,0.524844
1631204157288,-0.114253,0.8306979999999999,0.525576
1631204157297,-0.113094,0.830881,0.526308
1631204157307,-0.11163,0.831674,0.526796
1631204157317,-0.10931199999999999,0.8310029999999999,0.525393
1631204157326,-0.108092,0.830759,0.525149
1631204157336,-0.107543,0.830637,0.525454
1631204157345,-0.10675,0.833016,0.526979
1631204157355,-0.10498099999999999,0.832284,0.527345
1631204157365,-0.10406599999999999,0.832162,0.527589
1631204157374,-0.104554,0.8328329999999999,0.527528
1631204157384,-0.102663,0.8316129999999999,0.527772
1631204157393,-0.102663,0.829661,0.528565
1631204157403,-0.101321,0.829356,0.529358
1631204157413,-0.100894,0.83021,0.530639
1631204157422,-0.100101,0.832162,0.533201
1631204157432,-0.099552,0.8349679999999999,0.535885
1631204157441,-0.09943,0.834175,0.535885
1631204157451,-0.098332,0.833565,0.534543
1631204157461,-0.09729499999999999,0.832467,0.533323
1631204157470,-0.096868,0.8325279999999999,0.535519
1631204157480,-0.096136,0.833809,0.538691
1631204157489,-0.095099,0.831491,0.539972
1631204157499,-0.095831,0.827221,0.538752
1631204157509,-0.095038,0.825696,0.538203
1631204157518,-0.093269,0.823622,0.5374099999999999
1631204157528,-0.09211,0.826184,0.540033
1631204157537,-0.090585,0.8285629999999999,0.542473
1631204157547,-0.088389,0.828136,0.542839
1631204157557,-0.087657,0.8282579999999999,0.542534
1631204157566,-0.085034,0.827099,0.540582
1631204157576,-0.0854,0.8276479999999999,0.540582
1631204157585,-0.084424,0.828807,0.5404599999999999
1631204157595,-0.083631,0.831186,0.540521
1631204157605,-0.084546,0.8325279999999999,0.540643
1631204157614,-0.084241,0.833199,0.5377149999999999
1631204157624,-0.08356999999999999,0.833321,0.5361899999999999
1631204157633,-0.084424,0.8313079999999999,0.533628
1631204157643,-0.08527799999999999,0.833504,0.533811
1631204157653,-0.08479,0.832467,0.533018
1631204157662,-0.084729,0.829417,0.529724
1631204157672,-0.084119,0.828014,0.52826
1631204157681,-0.083326,0.827587,0.525454
1631204157691,-0.082167,0.829112,0.523502
1631204157701,-0.081557,0.829234,0.521184
1631204157710,-0.082289,0.830759,0.519964
1631204157720,-0.081618,0.831369,0.518439
1631204157729,-0.083082,0.831247,0.516243
1631204157739,-0.084851,0.831674,0.5155109999999999
1631204157749,-0.0854,0.8334429999999999,0.516853
1631204157758,-0.086071,0.832955,0.518073
1631204157768,-0.087047,0.831735,0.52094
1631204157777,-0.089792,0.8306979999999999,0.51972
1631204157787,-0.092476,0.833382,0.5219159999999999
1631204157797,-0.093086,0.8358829999999999,0.524417
1631204157806,-0.093818,0.840824,0.528138
1631204157816,-0.093635,0.843386,0.530639
1631204157825,-0.093635,0.842044,0.53009
1631204157835,-0.093452,0.839665,0.525698
1631204157845,-0.092903,0.837225,0.52338
1631204157854,-0.09406199999999999,0.840214,0.522465
1631204157864,-0.094306,0.84241,0.52094
1631204157873,-0.09394,0.842227,0.52033
1631204157883,-0.094184,0.843081,0.51972
1631204157893,-0.095709,0.842837,0.522282
1631204157902,-0.09558699999999999,0.84302,0.522282
1631204157912,-0.094611,0.838445,0.520147
1631204157921,-0.09638,0.834297,0.5176459999999999
1631204157931,-0.09577,0.832894,0.515938
1631204157941,-0.09638,0.833931,0.514535
1631204157950,-0.098454,0.8358829999999999,0.514962
1631204157960,-0.099125,0.839726,0.5142909999999999
1631204157969,-0.099674,0.843935,0.514108
1631204157979,-0.100345,0.847168,0.5145959999999999
1631204157989,-0.10126,0.850035,0.5139859999999999
1631204157998,-0.101931,0.847534,0.515084
1631204158008,-0.104249,0.846985,0.514352
1631204158017,-0.10553,0.844179,0.515633
1631204158027,-0.10675,0.841312,0.51362
1631204158037,-0.107787,0.8392379999999999,0.51362
1631204158046,-0.109678,0.838689,0.511302
1631204158056,-0.109434,0.8395429999999999,0.508557
1631204158065,-0.10992199999999999,0.839726,0.506727
1631204158075,-0.109068,0.843447,0.506056
1631204158085,-0.109068,0.8471069999999999,0.50691
1631204158094,-0.110471,0.849059,0.505995
1631204158104,-0.111386,0.850706,0.505751
1631204158113,-0.113033,0.854061,0.50813
1631204158123,-0.113704,0.857416,0.508313
1631204158133,-0.115351,0.8602219999999999,0.509045
1631204158142,-0.11779099999999999,0.86132,0.51057
1631204158152,-0.12023099999999999,0.8626619999999999,0.513315
1631204158161,-0.120353,0.862479,0.514657
1631204158171,-0.12023099999999999,0.85766,0.5130709999999999
1631204158181,-0.12163399999999999,0.855159,0.514169
1631204158190,-0.122366,0.86132,0.518073
1631204158200,-0.121268,0.867786,0.522038
1631204158209,-0.120536,0.864858,0.519415
1631204158219,-0.119377,0.859673,0.514535
1631204158229,-0.120658,0.85644,0.514413
1631204158238,-0.118889,0.8535119999999999,0.514474
1631204158248,-0.118828,0.850706,0.513559
1631204158257,-0.118523,0.8471069999999999,0.511607
1631204158267,-0.117669,0.841617,0.510021
1631204158277,-0.116937,0.8377129999999999,0.510692
1631204158286,-0.116022,0.83631,0.511363
1631204158296,-0.11529,0.8349679999999999,0.511485
1631204158305,-0.114558,0.832955,0.510326
1631204158315,-0.11284999999999999,0.833382,0.5124609999999999
1631204158325,-0.11102,0.8364929999999999,0.5145959999999999
1631204158334,-0.110105,0.8357,0.513803
1631204158344,-0.108824,0.834114,0.513925
1631204158353,-0.107482,0.834907,0.5142909999999999
1631204158363,-0.104798,0.835517,0.51545
1631204158373,-0.103395,0.836371,0.513864
1631204158382,-0.102968,0.837164,0.514657
1631204158392,-0.101382,0.83692,0.514108
1631204158401,-0.10065,0.837164,0.512888
1631204158411,-0.097356,0.838079,0.511119
1631204158421,-0.098698,0.839116,0.511058
1631204158430,-0.096014,0.841312,0.512705
1631204158440,-0.09497699999999999,0.842898,0.512339
1631204158449,-0.092476,0.844057,0.509411
1631204158459,-0.090585,0.844972,0.507764
1631204158469,-0.090463,0.845216,0.506483
1631204158478,-0.089975,0.84729,0.504348
1631204158488,-0.08845,0.846009,0.502518
1631204158497,-0.08967,0.846314,0.500017
1631204158507,-0.08881599999999999,0.845094,0.498675
1631204158517,-0.08973099999999999,0.84546,0.498736
1631204158526,-0.090768,0.846375,0.49916299999999997
1631204158536,-0.09113399999999999,0.846436,0.499834
1631204158545,-0.092171,0.84729,0.500505
1631204158555,-0.093818,0.849669,0.503067
1631204158565,-0.096197,0.8532069999999999,0.507825
1631204158574,-0.098332,0.855586,0.510448
1631204158584,-0.098576,0.85705,0.51301
1631204158593,-0.099796,0.857843,0.5158159999999999
1631204158603,-0.10083299999999999,0.85644,0.517463
1631204158613,-0.102541,0.855586,0.518439
1631204158622,-0.10431,0.85461,0.519659
1631204158632,-0.104798,0.852841,0.5206959999999999
1631204158641,-0.10638399999999999,0.8498519999999999,0.521794
1631204158651,-0.106933,0.850096,0.523807
1631204158661,-0.105652,0.84912,0.524478
1631204158670,-0.105164,0.847534,0.526003
1631204158680,-0.1037,0.845216,0.525698
1631204158689,-0.102968,0.844301,0.525698
1631204158699,-0.102785,0.842349,0.524356
1631204158709,-0.102602,0.840885,0.522282
1631204158718,-0.101016,0.838262,0.5191709999999999
1631204158728,-0.100345,0.836249,0.516548
1631204158737,-0.10065,0.835456,0.51606
1631204158747,-0.099003,0.8340529999999999,0.515389
1631204158757,-0.097844,0.833992,0.514535
1631204158766,-0.099125,0.833992,0.51606
1631204158776,-0.09943,0.834907,0.515877
1631204158785,-0.100162,0.835639,0.51484
1631204158795,-0.100345,0.835212,0.51362
1631204158805,-0.101382,0.8355779999999999,0.512522
1631204158814,-0.101809,0.837042,0.5124609999999999
1631204158824,-0.102907,0.837347,0.513193
1631204158833,-0.103578,0.838445,0.513864
1631204158843,-0.103212,0.839909,0.514474
1631204158853,-0.104859,0.842227,0.5155109999999999
1631204158862,-0.10437099999999999,0.844667,0.5161209999999999
1631204158872,-0.105408,0.844911,0.517097
1631204158881,-0.106933,0.843386,0.517158
1631204158891,-0.107238,0.84424,0.518988
1631204158901,-0.10797,0.844118,0.52277
1631204158910,-0.10931199999999999,0.842105,0.524539
1631204158920,-0.108092,0.839665,0.524783
1631204158929,-0.10858,0.839177,0.525088
1631204158939,-0.107665,0.838689,0.522465
1631204158949,-0.106872,0.838201,0.519598
1631204158958,-0.105591,0.838994,0.516609
1631204158968,-0.105042,0.840031,0.516365
1631204158977,-0.10431,0.8401529999999999,0.515572
1631204158987,-0.103578,0.8398479999999999,0.515084
1631204158997,-0.102785,0.839787,0.514352
1631204159006,-0.1037,0.840092,0.512888
1631204159016,-0.104188,0.840885,0.514962
1631204159025,-0.103029,0.843081,0.5179509999999999
1631204159035,-0.104188,0.84363,0.52216
1631204159045,-0.106018,0.843813,0.525576
1631204159054,-0.10736,0.843691,0.528443
1631204159064,-0.107177,0.84241,0.531249
1631204159073,-0.108397,0.842532,0.532103
1631204159083,-0.10797,0.841556,0.532652
1631204159093,-0.109983,0.84058,0.53314
1631204159102,-0.11083699999999999,0.839299,0.532469
1631204159112,-0.112057,0.8386279999999999,0.532713
1631204159121,-0.110593,0.8377129999999999,0.532591
1631204159131,-0.10900699999999999,0.8355779999999999,0.530578
1631204159141,-0.108946,0.8361879999999999,0.530273
1631204159150,-0.108336,0.836249,0.53009
1631204159160,-0.109129,0.834907,0.529968
1631204159169,-0.10729899999999999,0.8343579999999999,0.528138
1631204159179,-0.107116,0.833626,0.525698
1631204159189,-0.106872,0.8328329999999999,0.522465
1631204159198,-0.106323,0.831552,0.522404
1631204159208,-0.106201,0.8319179999999999,0.521855
1631204159217,-0.10675,0.831125,0.521245
1631204159227,-0.106506,0.830576,0.521672
1631204159237,-0.105164,0.829539,0.521062
1631204159246,-0.107726,0.829356,0.5237459999999999
1631204159256,-0.10760399999999999,0.82899,0.5246
1631204159265,-0.108336,0.829356,0.525942
1631204159275,-0.108641,0.831247,0.528382
1631204159285,-0.11022699999999999,0.831552,0.529724
1631204159294,-0.110471,0.831979,0.528504
1631204159304,-0.111691,0.8331379999999999,0.529541
1631204159313,-0.113704,0.833809,0.529724
1631204159323,-0.11345999999999999,0.8334429999999999,0.527955
1631204159333,-0.113704,0.83265,0.527589
1631204159342,-0.11376499999999999,0.831979,0.527833
1631204159352,-0.113582,0.831979,0.528748
1631204159361,-0.11529,0.833077,0.528809
1631204159371,-0.115229,0.833931,0.528321
1631204159381,-0.11577799999999999,0.83448,0.528443
1631204159390,-0.116327,0.8355779999999999,0.527345
1631204159400,-0.116144,0.83631,0.524905
1631204159409,-0.117852,0.835761,0.524417
1631204159419,-0.118828,0.83753,0.524356
1631204159429,-0.11956,0.838506,0.5234409999999999
1631204159438,-0.119133,0.837896,0.523807
1631204159448,-0.120109,0.8367979999999999,0.5246
1631204159457,-0.122061,0.835944,0.526308
1631204159467,-0.122793,0.836127,0.528199
1631204159477,-0.122915,0.83631,0.530273
1631204159486,-0.12505,0.834907,0.532408
1631204159496,-0.127917,0.835334,0.53314
1631204159505,-0.12834399999999999,0.836066,0.534116
1631204159515,-0.127978,0.835212,0.535275
1631204159525,-0.127795,0.8334429999999999,0.535702
1631204159534,-0.127246,0.8319179999999999,0.534665
1631204159544,-0.126697,0.8313079999999999,0.534482
1631204159553,-0.127124,0.832162,0.535092
1631204159563,-0.127917,0.8316129999999999,0.533811
1631204159573,-0.127551,0.829844,0.531554
1631204159582,-0.127124,0.83021,0.530517
1631204159592,-0.127795,0.831857,0.529968
1631204159601,-0.126819,0.831064,0.529663
1631204159611,-0.126819,0.830149,0.529419
1631204159621,-0.1281,0.8297829999999999,0.53009
1631204159630,-0.127063,0.8294779999999999,0.530151
1631204159640,-0.127612,0.828075,0.529419
1631204159649,-0.127307,0.82777,0.529114
1631204159659,-0.127673,0.826672,0.527467
1631204159669,-0.127734,0.826306,0.527894
1631204159678,-0.127612,0.826916,0.527955
1631204159688,-0.127734,0.8261229999999999,0.527711
1631204159697,-0.127795,0.826306,0.528199
1631204159707,-0.128222,0.827404,0.529602
1631204159717,-0.128222,0.8273429999999999,0.529724
1631204159726,-0.12932,0.828441,0.529846
1631204159736,-0.12925899999999999,0.828136,0.530151
1631204159745,-0.129808,0.828807,0.53131
1631204159755,-0.12993,0.82777,0.530578
1631204159765,-0.131516,0.828624,0.531981
1631204159774,-0.132919,0.828502,0.532408
1631204159784,-0.132736,0.8276479999999999,0.531981
1631204159793,-0.133346,0.828014,0.53314
1631204159803,-0.132919,0.829234,0.534421
1631204159813,-0.132492,0.8294779999999999,0.535946
1631204159822,-0.131638,0.829844,0.535885
1631204159832,-0.130601,0.8306979999999999,0.536373
1631204159841,-0.129625,0.8313079999999999,0.535824
1631204159851,-0.128832,0.8316129999999999,0.537227
1631204159861,-0.128039,0.831552,0.537654
1631204159870,-0.128222,0.8291729999999999,0.536373
1631204159880,-0.127307,0.829051,0.537044
1631204159889,-0.127368,0.829844,0.537288
1631204159899,-0.126819,0.830942,0.5374099999999999
1631204159909,-0.125477,0.830332,0.536678
1631204159918,-0.125721,0.830942,0.535153
1631204159928,-0.124806,0.831735,0.534055
1631204159937,-0.122366,0.831674,0.532591
1631204159947,-0.12139,0.832162,0.531859
1631204159957,-0.121268,0.833077,0.530761
1631204159966,-0.120658,0.833077,0.528504
1631204159976,-0.120475,0.832589,0.529175
1631204159985,-0.120292,0.8316129999999999,0.52765
1631204159995,-0.119438,0.832772,0.526857
1631204160005,-0.118828,0.8328329999999999,0.527406
1631204160014,-0.120048,0.83265,0.528504
1631204160024,-0.120841,0.832955,0.530273
1631204160033,-0.122061,0.8319179999999999,0.530456
1631204160043,-0.121695,0.830576,0.531188
1631204160053,-0.122732,0.8294779999999999,0.5307
1631204160062,-0.122,0.828075,0.532103
1631204160072,-0.123281,0.826367,0.532347
1631204160081,-0.123586,0.825635,0.532713
1631204160091,-0.123769,0.824781,0.533079
1631204160101,-0.124623,0.823805,0.532713
1631204160110,-0.125599,0.822707,0.532103
1631204160120,-0.126209,0.821792,0.532408
1631204160129,-0.126453,0.821914,0.532957
