timestamp,ax,ay,az
1630059602816,-0.060268,0.880718,0.48348599999999997
1630059602826,-0.060695,0.880535,0.484218
1630059602836,-0.06039,0.882182,0.48348599999999997
1630059602845,-0.059841,0.881633,0.484889
1630059602855,-0.059841,0.882609,0.485194
1630059602864,-0.059962999999999995,0.8830359999999999,0.485865
1630059602874,-0.06039,0.8809009999999999,0.484889
1630059602884,-0.060207,0.881023,0.484767
1630059602893,-0.060695,0.880962,0.484279
1630059602903,-0.061244,0.881633,0.483547
1630059602912,-0.060024,0.881267,0.483974
1630059602922,-0.059841,0.8815109999999999,0.485255
1630059602932,-0.060024,0.881999,0.487268
1630059602941,-0.058743,0.881999,0.487024
1630059602951,-0.058987,0.881999,0.487329
1630059602960,-0.058987,0.8839509999999999,0.488488
1630059602970,-0.059231,0.8839509999999999,0.48678
1630059602980,-0.059475,0.883219,0.487939
1630059602989,-0.061549,0.8830359999999999,0.488244
1630059602999,-0.061061,0.882487,0.489098
1630059603008,-0.061061,0.882487,0.49050099999999996
1630059603018,-0.061488,0.882182,0.49288
1630059603028,-0.062098,0.882365,0.49349
1630059603037,-0.06222,0.88267,0.494954
1630059603047,-0.063257,0.88145,0.495747
1630059603056,-0.063806,0.8805959999999999,0.497821
1630059603066,-0.064233,0.880169,0.497516
1630059603076,-0.064904,0.878827,0.497394
1630059603085,-0.065514,0.8787659999999999,0.498309
1630059603095,-0.065026,0.878095,0.496845
1630059603104,-0.064416,0.880352,0.49654
1630059083602,-0.159088,0.944829,0.313967
1630059083611,-0.15914899999999998,0.943792,0.314089
1630059083621,-0.158478,0.9441579999999999,0.314211
1630059083630,-0.15853899999999999,0.944646,0.315126
1630059083640,-0.158173,0.9453779999999999,0.317139
1630059083650,-0.158112,0.945134,0.317566
1630059083659,-0.157258,0.944341,0.318176
1630059083669,-0.157868,0.942877,0.315675
1630059083678,-0.15853899999999999,0.9417179999999999,0.313967
1630059083688,-0.159576,0.94123,0.311771
1630059083698,-0.16104,0.942206,0.310673
1630059083707,-0.161345,0.942816,0.310734
1630059083717,-0.162138,0.9444629999999999,0.310917
1630059083726,-0.162443,0.9453779999999999,0.311649
1630059083736,-0.163114,0.946232,0.31049
1630059083746,-0.163114,0.9455,0.30994099999999997
1630059083755,-0.16226,0.944951,0.309148
1630059083765,-0.162138,0.944402,0.31024599999999997
1630059083774,-0.161345,0.942755,0.3111
1630059083784,-0.161406,0.942145,0.311222
1630059083794,-0.160186,0.942145,0.310368
1630059083803,-0.161894,0.944951,0.309819
1630059083813,-0.162016,0.943304,0.310673
1630059083822,-0.162748,0.9423279999999999,0.310124
1630059083832,-0.161833,0.941901,0.311771
1630059083842,-0.162077,0.940498,0.311954
1630059083851,-0.161528,0.94245,0.312869
1630059083861,-0.161406,0.945134,0.313174
1630059083870,-0.16128399999999998,0.94611,0.313906
1630059083880,-0.162504,0.944524,0.313418
1630059083890,-0.161894,0.944341,0.314211
1630059083899,-0.162443,0.9450729999999999,0.315065
1630059083909,-0.16348,0.945012,0.314577
1630059083918,-0.163053,0.944829,0.31415
1630059083928,-0.162931,0.946781,0.313662
1630059083938,-0.163907,0.945439,0.31293
1630059083947,-0.164151,0.94672,0.312137
1630059083957,-0.163358,0.9469029999999999,0.311466
1630059083966,-0.162992,0.9462929999999999,0.311649
1630059083976,-0.162931,0.945744,0.311649
1630059083986,-0.162748,0.9453779999999999,0.3111
1630059083995,-0.162382,0.944585,0.311771
1630059084005,-0.162321,0.944524,0.31232
1630059084014,-0.161772,0.9441579999999999,0.312442
1630059084024,-0.161772,0.944585,0.311832
1630059084034,-0.160308,0.944646,0.311039
1630059084043,-0.161101,0.9435479999999999,0.31024599999999997
1630059084053,-0.161406,0.942694,0.30872099999999997
1630059084062,-0.161772,0.941291,0.30902599999999997
1630059084072,-0.161955,0.941108,0.30750099999999997
1630059084082,-0.16287,0.9426329999999999,0.307379
1630059084091,-0.162382,0.9435479999999999,0.30780599999999997
1630059084101,-0.16165,0.9444629999999999,0.307623
1630059084110,-0.162748,0.944036,0.308477
1630059084120,-0.162443,0.9447679999999999,0.308782
1630059084130,-0.162565,0.944524,0.309453
1630059084139,-0.162565,0.9447679999999999,0.309819
1630059084149,-0.16226,0.945134,0.30927
1630059084158,-0.162992,0.944646,0.30866
1630059084168,-0.162443,0.94489,0.308294
1630059084178,-0.163724,0.94367,0.30811099999999997
1630059084187,-0.163602,0.944646,0.30744
1630059084197,-0.16348,0.94367,0.307867
1630059084206,-0.163297,0.943731,0.30805
1630059084216,-0.163663,0.944219,0.30933099999999997
1630059084226,-0.162748,0.9441579999999999,0.308843
1630059084235,-0.162382,0.945317,0.309148
1630059084245,-0.163846,0.94489,0.309514
1630059084254,-0.163358,0.944036,0.309819
1630059084264,-0.162931,0.942877,0.30963599999999997
1630059084274,-0.163663,0.943792,0.308538
1630059084283,-0.163846,0.9438529999999999,0.30780599999999997
1630059084293,-0.165432,0.943792,0.307562
1630059084302,-0.164761,0.946049,0.30902599999999997
1630059084312,-0.165127,0.9455,0.309392
1630059084322,-0.164029,0.945134,0.31024599999999997
1630059084331,-0.163175,0.94611,0.3111
1630059084341,-0.164029,0.945317,0.311405
1630059084350,-0.163114,0.945256,0.310795
1630059084360,-0.162687,0.9459879999999999,0.31049
1630059084370,-0.162077,0.9456829999999999,0.30963599999999997
1630059084379,-0.162931,0.944829,0.309758
1630059084389,-0.163358,0.94489,0.310002
1630059084398,-0.162748,0.942755,0.30841599999999997
1630059084408,-0.164151,0.942145,0.307684
1630059084418,-0.164456,0.9438529999999999,0.307074
1630059084427,-0.163907,0.944585,0.306159
1630059084437,-0.164334,0.943975,0.307379
1630059084446,-0.162565,0.94306,0.307989
1630059084456,-0.162748,0.9438529999999999,0.307379
1630059084466,-0.163175,0.94611,0.307562
1630059084475,-0.163846,0.946781,0.306403
1630059084485,-0.165249,0.9453779999999999,0.306464
1630059084494,-0.165432,0.9447679999999999,0.307379
1630059084504,-0.163785,0.9447679999999999,0.30628099999999997
1630059084514,-0.163541,0.946354,0.306342
1630059084523,-0.16348,0.944219,0.30683
1630059084533,-0.163846,0.943304,0.307074
1630059084542,-0.163236,0.944036,0.306952
1630059084552,-0.16469999999999999,0.937997,0.302865
1630059084562,-0.166469,0.934947,0.302499
1630059084571,-0.166652,0.942145,0.306098
1630059084581,-0.165432,0.945744,0.311893
1630059084590,-0.164334,0.953796,0.314455
1630059084600,-0.164578,0.955382,0.327143
1630059084610,-0.162809,0.948855,0.348066
1630059084619,-0.157685,0.938302,0.37393
1630059084629,-0.14335,0.916159,0.41534899999999997
1630059084638,-0.145851,0.9079849999999999,0.404735
1630059084648,-0.159271,0.905362,0.364902
1630059084658,-0.166896,0.93696,0.353922
1630059084667,-0.163236,0.947086,0.35526399999999997
1630059084677,-0.159088,0.909998,0.334219
1630059084686,-0.161528,0.865285,0.30378
1630059084696,-0.169702,0.829722,0.266997
1630059084706,-0.175436,0.793244,0.24418299999999998
1630059084715,-0.173728,0.766343,0.230519
1630059084725,-0.166347,0.755607,0.221918
1630059084734,-0.158173,0.7512759999999999,0.22106399999999998
1630059084744,-0.14701,0.742919,0.224907
1630059084754,-0.14188599999999998,0.71675,0.228262
1630059084763,-0.125965,0.690825,0.226249
1630059084773,-0.12322,0.670634,0.213805
1630059084782,-0.126087,0.682773,0.236314
1630059084792,-0.132614,0.730475,0.278038
1630059084802,-0.105652,0.810812,0.364719
1630059084811,-0.108214,0.8723609999999999,0.442189
1630059084821,-0.094489,0.964654,0.5894429999999999
1630059084830,-0.050325,1.045479,0.7515809999999999
1630059084840,-0.0044529999999999995,1.0481019999999999,0.8821209999999999
1630059084850,0.012931999999999999,1.033584,0.94123
1630059084859,0.018727,1.05103,0.952515
1630059084869,0.0034159999999999998,1.062132,0.932568
1630059084878,-0.017629,1.115385,0.902739
1630059084888,-0.009394,1.1724809999999999,0.915122
1630059084898,0.009211,1.200602,0.92354
1630059084907,0.038369,1.21024,0.923052
1630059084917,0.049654,1.1904759999999999,0.881633
1630059084926,0.048007,1.155279,0.821731
1630059084936,0.028182,1.096902,0.739381
1630059084946,0.003477,1.019066,0.665144
1630059084955,-0.014457,0.9456829999999999,0.590907
1630059084965,-0.02135,0.894016,0.529175
1630059084974,-0.030927,0.865712,0.471591
1630059084984,-0.037881,0.829905,0.41114
1630059084994,-0.05551,0.7990389999999999,0.34465
1630059085003,-0.060939,0.790804,0.302316
1630059085013,-0.05734,0.79544,0.275049
1630059085022,-0.050386,0.808555,0.24949
1630059085032,-0.049898,0.829234,0.225578
1630059085042,-0.055876,0.8468019999999999,0.20374
1630059085051,-0.057583999999999996,0.848998,0.200812
1630059085061,-0.057218,0.8279529999999999,0.211731
1630059085070,-0.054655999999999996,0.8136789999999999,0.218685
1630059085080,-0.052032999999999996,0.794647,0.205265
1630059085090,-0.060878,0.7552409999999999,0.156648
1630059085099,-0.058743,0.720105,0.122976
1630059085109,-0.044652,0.711931,0.109739
1630059085118,-0.022935999999999998,0.7382219999999999,0.122671
1630059085128,0.002074,0.77348,0.142069
1630059085138,0.018361,0.804285,0.156892
1630059085147,0.029402,0.8230729999999999,0.178364
1630059085157,0.033611,0.819962,0.20166599999999998
1630059085166,0.037149,0.818254,0.24143799999999999
1630059085176,0.047397,0.830149,0.290055
1630059085186,0.067466,0.83753,0.328119
1630059085195,0.080215,0.837164,0.351116
1630059085205,0.089792,0.846436,0.374967
1630059085214,0.08680299999999999,0.845643,0.407724
1630059085224,0.079788,0.866566,0.44151799999999997
1630059085234,0.079971,0.905118,0.47848399999999996
1630059085243,0.081252,0.93879,0.518439
1630059085253,0.086986,0.953674,0.561871
1630059085262,0.090158,0.99247,0.607194
1630059085272,0.102114,1.048163,0.6372059999999999
1630059085282,0.096136,1.083848,0.637938
1630059085291,0.08784,1.111908,0.630191
1630059085301,0.075335,1.120387,0.60878
1630059085310,0.060939,1.123437,0.583831
1630059085320,0.044164,1.12301,0.560956
1630059085330,0.031415,1.118069,0.551867
1630059085339,0.023302,1.115629,0.548329
1630059085349,0.016836,1.105381,0.536556
1630059085358,0.0017079999999999999,1.082628,0.512095
1630059085368,-0.015006,1.054507,0.47909399999999996
1630059085378,-0.026474,1.0325469999999999,0.45048499999999997
1630059085387,-0.039955,1.006073,0.412177
1630059085397,-0.058926,0.978928,0.36112
1630059085406,-0.073017,0.95099,0.311466
1630059085416,-0.088389,0.929945,0.271328
1630059085426,-0.098454,0.910242,0.24296299999999998
1630059085435,-0.10858,0.892491,0.217343
1630059085445,-0.117852,0.875655,0.191235
1630059085454,-0.123403,0.84851,0.182756
1630059085464,-0.129137,0.834602,0.17824199999999998
1630059085474,-0.133041,0.83326,0.17568
1630059085483,-0.137128,0.843081,0.173057
1630059085493,-0.143655,0.8486319999999999,0.164029
1630059085502,-0.153842,0.851255,0.1525
1630059085512,-0.15799,0.849364,0.14823
1630059085522,-0.159332,0.845094,0.147498
1630059085531,-0.15914899999999998,0.8343579999999999,0.149084
1630059085541,-0.1525,0.837835,0.156831
1630059085550,-0.143655,0.8489369999999999,0.175558
1630059085560,-0.137067,0.8611369999999999,0.204167
1630059085570,-0.127124,0.87901,0.235216
1630059085579,-0.11809599999999999,0.887489,0.267485
1630059085589,-0.115717,0.9079849999999999,0.293288
1630059085598,-0.110715,0.934825,0.316346
1630059085608,-0.103517,0.95404,0.328851
1630059085618,-0.09516,0.966179,0.330803
1630059085627,-0.088328,0.983686,0.335866
1630059085637,-0.079788,1.009184,0.351421
1630059085646,-0.071736,1.026996,0.37624799999999997
1630059085656,-0.063806,1.049017,0.399184
1630059085666,-0.059109,1.07055,0.421083
1630059085675,-0.061183,1.095011,0.445117
1630059085685,-0.06954,1.1332579999999999,0.463234
1630059085694,-0.076128,1.175653,0.476837
1630059085704,-0.074054,1.206946,0.49080599999999996
1630059085714,-0.066368,1.22,0.504958
1630059085723,-0.050935,1.229333,0.520269
1630059085733,-0.034159999999999996,1.2260389999999999,0.5374099999999999
1630059085742,-0.02379,1.2293939999999999,0.5477799999999999
1630059085752,-0.017385,1.241106,0.556259
1630059085762,-0.015006,1.227503,0.5718139999999999
1630059085771,0.002196,1.186572,0.598837
1630059085781,0.022203999999999998,1.154974,0.622505
1630059085790,0.032574,1.142652,0.644343
1630059085800,0.048129,1.12606,0.665754
1630059085810,0.057401,1.091656,0.6837489999999999
1630059085819,0.064355,1.052616,0.6893
1630059085829,0.068747,1.00528,0.680028
1630059085838,0.069174,0.956419,0.657519
1630059085848,0.06539199999999999,0.9085949999999999,0.626104
1630059085858,0.056119999999999996,0.861503,0.590724
1630059085867,0.044286,0.8051389999999999,0.576389
1630059085877,0.043493,0.749934,0.581147
1630059085886,0.050996,0.694058,0.602314
1630059085896,0.054717,0.6390359999999999,0.615124
1630059085906,0.052765,0.611525,0.612379
1630059085915,0.066429,0.581147,0.603351
1630059085925,0.091927,0.541131,0.590419
1630059085934,0.127978,0.507581,0.596641
1630059085944,0.16775,0.464088,0.628117
1630059085954,0.199653,0.40748,0.688568
1630059085963,0.221308,0.382775,0.75213
1630059085973,0.221796,0.394426,0.787266
1630059085982,0.210206,0.412482,0.8060539999999999
1630059085992,0.204838,0.423157,0.814167
1630059086002,0.204716,0.441152,0.8113
1630059086011,0.199531,0.449997,0.8008689999999999
1630059086021,0.18934399999999998,0.455121,0.777018
1630059086030,0.194773,0.439932,0.778909
1630059086040,0.210023,0.415105,0.797941
1630059086050,0.221003,0.427305,0.819413
1630059086059,0.215574,0.456524,0.8145939999999999
1630059086069,0.204045,0.47177399999999997,0.805566
1630059086078,0.192638,0.487817,0.7987339999999999
1630059086088,0.185806,0.488183,0.8014789999999999
1630059086098,0.182512,0.47116399999999997,0.80886
1630059086107,0.190381,0.467931,0.815082
1630059086117,0.205265,0.47153,0.820328
1630059086126,0.2196,0.457134,0.829112
1630059086136,0.23064099999999998,0.467321,0.835334
1630059086146,0.238754,0.490623,0.835944
1630059086155,0.24509799999999998,0.51972,0.836554
1630059086165,0.249307,0.550891,0.837347
1630059086174,0.247538,0.565165,0.841068
1630059086184,0.23363,0.583831,0.85278
1630059086194,0.2074,0.602314,0.873093
1630059086203,0.186904,0.594201,0.889502
1630059086213,0.18470799999999998,0.562847,0.903166
1630059086222,0.20557,0.551074,0.913902
1630059086232,0.22326,0.562603,0.901641
1630059086242,0.220881,0.553148,0.8732759999999999
1630059086251,0.210206,0.518805,0.8358829999999999
1630059086261,0.19519999999999998,0.473787,0.792146
1630059086270,0.18544,0.466284,0.722057
1630059086280,0.18531799999999998,0.48092399999999996,0.661362
1630059086290,0.189405,0.459574,0.620553
1630059086299,0.188795,0.435601,0.608048
1630059086309,0.19983599999999999,0.391437,0.634705
1630059086318,0.20496,0.338977,0.674416
1630059086328,0.212585,0.301279,0.728889
1630059086338,0.224358,0.291031,0.769454
1630059086347,0.231434,0.312137,0.790438
1630059086357,0.224053,0.35441,0.804895
1630059086366,0.197884,0.395951,0.826977
1630059086376,0.162565,0.428159,0.84363
1630059086386,0.125111,0.448106,0.841739
1630059086395,0.100101,0.46067199999999997,0.82289
1630059086405,0.07503,0.47360399999999997,0.798856
1630059086414,0.055693,0.48501099999999997,0.777323
1630059086424,0.040138,0.486353,0.7595109999999999
1630059086434,0.024827,0.49288,0.74359
1630059086443,0.025193,0.502396,0.74359
1630059086453,0.031232,0.502152,0.745786
1630059086462,0.038796,0.503372,0.74298
1630059086472,0.048434,0.507825,0.741333
1630059086482,0.05734,0.504653,0.736453
1630059086491,0.063562,0.505507,0.72224
1630059086501,0.065148,0.516243,0.700951
1630059086510,0.064538,0.52216,0.691801
1630059086520,0.059841,0.532896,0.687043
1630059086530,0.04392,0.570228,0.648308
1630059086539,0.040565,0.56791,0.611098
1630059086549,0.056059,0.504714,0.612745
1630059086558,0.080154,0.451339,0.633973
1630059086568,0.095465,0.44895999999999997,0.638792
1630059086578,0.107665,0.464454,0.638365
1630059086587,0.116876,0.478606,0.6569699999999999
1630059086597,0.126819,0.505507,0.705282
1630059086606,0.140117,0.5465599999999999,0.775737
1630059086616,0.152317,0.586576,0.840275
1630059086626,0.15372,0.642452,0.882548
1630059086635,0.150914,0.71126,0.908961
1630059086645,0.148535,0.7567659999999999,0.9311039999999999
1630059086654,0.150426,0.7628659999999999,0.940498
1630059086664,0.14762,0.745054,0.927383
1630059086674,0.142069,0.735355,0.896883
1630059086683,0.136152,0.738649,0.865773
1630059086693,0.138409,0.740174,0.8471069999999999
1630059086702,0.140544,0.74847,0.8361879999999999
1630059086712,0.137982,0.7674409999999999,0.824964
1630059086722,0.123403,0.790438,0.797514
1630059086731,0.11406999999999999,0.829295,0.784216
1630059086741,0.105896,0.860039,0.772565
1630059086750,0.097478,0.9207339999999999,0.772504
1630059086760,0.092476,0.978318,0.784521
1630059086770,0.087474,1.013515,0.8078839999999999
1630059086779,0.080154,1.046821,0.829844
1630059086789,0.077592,1.088911,0.845216
1630059086798,0.078507,1.1285,0.856745
1630059086808,0.07198,1.145885,0.8599169999999999
1630059086818,0.064904,1.147471,0.8553419999999999
1630059086827,0.060756,1.1311229999999999,0.847046
1630059086837,0.059352999999999996,1.108553,0.818864
1630059086846,0.057888999999999996,1.076528,0.785741
1630059086856,0.050325,1.0304119999999999,0.748409
1630059086866,0.044591,0.999363,0.7302919999999999
1630059086875,0.041541,0.979538,0.721508
1630059086885,0.030317,0.96746,0.6916789999999999
1630059086894,0.036234,0.918538,0.67832
1630059086904,0.036356,0.872544,0.655262
1630059086914,0.031232,0.846924,0.6143919999999999
1630059086923,0.027694,0.813435,0.57035
1630059086933,0.023058,0.787876,0.524295
1630059086942,0.018117,0.774517,0.48409599999999997
1630059086952,0.013176,0.760304,0.454633
1630059086962,0.008905999999999999,0.743041,0.428769
1630059086971,0.000915,0.748592,0.402295
1630059086981,-0.006893,0.756888,0.381799
1630059086990,-0.015006,0.7552409999999999,0.362523
1630059087000,-0.023485,0.756278,0.33061999999999997
1630059087010,-0.032879,0.761524,0.294752
1630059087019,-0.039345,0.762988,0.275232
1630059087029,-0.041724,0.773907,0.272609
1630059087038,-0.039894,0.791536,0.282064
1630059087048,-0.035623999999999996,0.809287,0.292983
1630059087058,-0.035197,0.834541,0.302743
1630059087067,-0.032390999999999996,0.86498,0.31646799999999997
1630059087077,-0.024156,0.890966,0.329644
1630059087086,-0.017506999999999998,0.9009699999999999,0.336049
1630059087096,-0.015555,0.900421,0.340746
1630059087106,-0.016287,0.880718,0.343613
1630059087115,-0.020984,0.858209,0.350689
1630059087125,-0.024888,0.856989,0.353556
1630059087134,-0.030805,0.865956,0.350506
1630059087144,-0.036478,0.880413,0.35075
1630059087154,-0.035075,0.8997499999999999,0.361852
1630059087163,-0.030439,0.909876,0.374235
1630059087173,-0.023851,0.910852,0.38369
1630059087182,-0.015677,0.905789,0.391864
1630059087192,-0.00976,0.8985299999999999,0.400465
1630059087202,-0.004026,0.884378,0.40504
1630059087211,-0.002013,0.87352,0.409798
1630059087221,-0.00549,0.865956,0.416508
1630059087230,-0.003721,0.866871,0.423157
1630059087240,-0.004392,0.86864,0.432185
1630059087250,-0.010187,0.882853,0.43676
1630059087259,-0.009394,0.896334,0.447252
1630059087269,-0.0060999999999999995,0.9098149999999999,0.45884199999999997
1630059087278,-0.0023179999999999997,0.9185989999999999,0.472872
1630059087288,-0.002257,0.9237839999999999,0.480802
1630059087298,-0.002623,0.935252,0.484523
1630059087307,-0.005063,0.945439,0.484279
1630059087317,-0.009394,0.94977,0.483242
1630059087326,-0.010492,0.959164,0.479643
1630059087336,-0.008662,0.965691,0.4758
1630059087346,-0.00793,0.97234,0.476593
1630059087355,-0.0030499999999999998,0.982649,0.48007
1630059087365,0.000488,0.9828319999999999,0.48617
1630059087374,0.0017079999999999999,0.981978,0.48861
1630059087384,0.0064659999999999995,0.984479,0.485438
1630059087394,0.010187,0.985333,0.478667
1630059087403,0.011895,0.9791719999999999,0.471408
1630059087413,0.013359,0.970205,0.457439
1630059087422,0.015616,0.9627629999999999,0.446276
1630059087432,0.014579,0.956724,0.433771
1630059087442,0.013054,0.9496479999999999,0.42553599999999997
1630059087451,0.011833999999999999,0.942267,0.413336
1630059087461,0.012017,0.941596,0.401746
1630059087470,0.009699,0.942694,0.39131499999999997
1630059087480,0.008905999999999999,0.945622,0.38021299999999997
1630059087490,0.007869,0.95404,0.365024
1630059087499,0.0053679999999999995,0.952881,0.35319
1630059087509,0.006893,0.940376,0.33733
1630059087518,0.01342,0.9298839999999999,0.32817999999999997
1630059087528,0.02257,0.914939,0.327448
1630059087538,0.032818,0.903654,0.328607
1630059087547,0.039833,0.9006649999999999,0.33458499999999997
1630059087557,0.04209,0.900482,0.34202699999999997
1630059087566,0.048129,0.906399,0.354471
1630059087576,0.05551,0.912438,0.37332
1630059087586,0.061975999999999996,0.917928,0.393694
1630059087595,0.065697,0.9237839999999999,0.404003
1630059087605,0.064721,0.9225639999999999,0.406809
1630059087614,0.063318,0.926651,0.40760199999999996
1630059087624,0.065331,0.934398,0.408395
1630059087634,0.061426999999999995,0.93513,0.400404
1630059087643,0.058133,0.9347639999999999,0.394487
1630059087653,0.053558,0.941962,0.393938
1630059087662,0.050142,0.9526979999999999,0.395097
1630059087672,0.044712999999999996,0.957822,0.387899
1630059087682,0.041358,0.959774,0.376919
1630059087691,0.030378,0.955992,0.360022
1630059087701,0.021045,0.95831,0.34709
1630059087710,0.013542,0.966789,0.335744
1630059087720,0.008967,0.9703269999999999,0.324276
1630059087730,0.00183,0.968009,0.311527
1630059087739,-0.006771,0.968131,0.295606
1630059087749,-0.012688,0.972523,0.282613
1630059087758,-0.019703,0.97356,0.268217
1630059087768,-0.026900999999999998,0.973804,0.251869
1630059087778,-0.033916,0.9721569999999999,0.237961
1630059087787,-0.042822,0.970083,0.228567
1630059087797,-0.05185,0.969595,0.220271
1630059087806,-0.059292,0.9700219999999999,0.21289
1630059087816,-0.06417199999999999,0.966301,0.21228
1630059087826,-0.067893,0.965691,0.212341
1630059087835,-0.069601,0.961116,0.21594
1630059087845,-0.07326099999999999,0.955809,0.218868
1630059087854,-0.07076,0.947574,0.227713
1630059087864,-0.069418,0.939583,0.238571
1630059087874,-0.069174,0.935252,0.245525
1630059087883,-0.071858,0.935557,0.251686
1630059087893,-0.072773,0.937265,0.25699299999999997
1630059087902,-0.070699,0.935008,0.2623
1630059087912,-0.069357,0.9353739999999999,0.264923
1630059087922,-0.068259,0.929152,0.273768
1630059087931,-0.06831999999999999,0.9222589999999999,0.28041699999999997
1630059087941,-0.071614,0.915488,0.282064
1630059087950,-0.07503,0.907253,0.281088
1630059087960,-0.077836,0.900543,0.280356
1630059087970,-0.078507,0.894138,0.280844
1630059087979,-0.082594,0.897493,0.278038
1630059087989,-0.08601,0.898347,0.278099
1630059087998,-0.094001,0.9058499999999999,0.272121
1630059088008,-0.101504,0.9213439999999999,0.265594
1630059088018,-0.11053199999999999,0.9301889999999999,0.26413
1630059088027,-0.118279,0.931897,0.268217
1630059088037,-0.121878,0.934215,0.2806
1630059088046,-0.123769,0.9311039999999999,0.296887
1630059088056,-0.126514,0.938363,0.312747
1630059088066,-0.127002,0.948611,0.33031499999999997
1630059088075,-0.12749,0.9581879999999999,0.34538199999999997
1630059088085,-0.131272,0.9721569999999999,0.35746
1630059088094,-0.131333,0.96868,0.377529
1630059088104,-0.133529,0.969595,0.391864
1630059088114,-0.135176,0.972645,0.397293
1630059088123,-0.133407,0.966606,0.40516199999999997
1630059088133,-0.136213,0.964105,0.41534899999999997
1630059088142,-0.137189,0.9577,0.42462099999999997
1630059088152,-0.137128,0.950746,0.434198
1630059088162,-0.139385,0.94733,0.431453
1630059088171,-0.150548,0.967094,0.412116
1630059088181,-0.157197,0.970388,0.401746
1630059088190,-0.163419,0.9739869999999999,0.394731
1630059088200,-0.164029,0.976,0.393694
1630059088210,-0.166469,0.979416,0.393877
1630059088219,-0.165676,0.98271,0.399245
1630059088229,-0.161711,0.983625,0.40626
1630059088238,-0.14579,0.966728,0.41236
1630059088248,-0.131516,0.963129,0.414007
1630059088258,-0.108214,0.9581879999999999,0.407175
1630059088267,-0.090829,0.958981,0.391864
1630059088277,-0.075091,0.948062,0.385581
1630059088286,-0.064721,0.943731,0.39039999999999997
1630059088296,-0.060634,0.940254,0.399489
1630059088306,-0.054717,0.9341539999999999,0.40138
1630059088315,-0.044102999999999996,0.917074,0.411628
1630059088325,-0.032757,0.898469,0.41870399999999997
1630059088334,-0.029341,0.88755,0.418155
1630059088344,-0.025986,0.905728,0.416691
1630059088354,-0.021716,0.942755,0.411811
1630059088363,-0.016592,0.960506,0.405284
1630059088373,-0.014761999999999999,0.958371,0.397293
1630059088382,-0.013603,0.930128,0.39283999999999997
1630059088392,-0.013237,0.8827309999999999,0.386313
1630059088402,-0.010248,0.84424,0.38552
1630059088411,-0.0013419999999999999,0.82106,0.393328
1630059088421,0.0028669999999999998,0.8139839999999999,0.397354
1630059088430,0.0073809999999999995,0.819779,0.404979
1630059088440,0.009577,0.826794,0.418033
1630059088450,0.00793,0.832772,0.422486
1630059088459,0.0050019999999999995,0.8541219999999999,0.423584
1630059088469,0.001464,0.87413,0.427122
1630059088478,-0.006222,0.9006649999999999,0.425658
1630059088488,-0.016714,0.922991,0.42309599999999997
1630059088498,-0.028791999999999998,0.929152,0.41900899999999996
1630059088507,-0.04331,0.932568,0.415776
1630059088517,-0.049776,0.9311039999999999,0.417728
1630059088526,-0.050752,0.935313,0.41846
1630059088536,-0.054717,0.940925,0.420534
1630059088546,-0.058682,0.952454,0.423462
1630059088555,-0.064294,0.9718519999999999,0.42797599999999997
1630059088565,-0.071614,0.982283,0.43371
1630059088574,-0.078568,0.986431,0.440237
1630059088584,-0.079666,0.980819,0.44895999999999997
1630059088594,-0.082777,0.97417,0.453291
1630059088603,-0.084302,0.969534,0.454328
1630059088613,-0.07808,0.966484,0.444812
1630059088622,-0.071736,0.973255,0.42523099999999997
1630059088632,-0.066002,0.976671,0.40516199999999997
1630059088642,-0.059657999999999996,0.96929,0.389424
1630059088651,-0.0549,0.9490379999999999,0.380152
1630059088661,-0.052582,0.92659,0.372588
1630059088670,-0.050081,0.908229,0.370392
1630059088680,-0.046299,0.893894,0.369172
1630059088690,-0.043737,0.8879159999999999,0.364109
1630059088699,-0.039345,0.8882209999999999,0.35617899999999997
1630059088709,-0.03538,0.895663,0.34141699999999997
1630059088718,-0.02989,0.914634,0.322385
1630059088728,-0.025986,0.93635,0.302987
1630059088738,-0.023972999999999998,0.953186,0.28529699999999997
1630059088747,-0.028487,0.965325,0.265716
1630059088757,-0.035441,0.969046,0.253028
1630059088766,-0.042517,0.964044,0.24912399999999998
1630059088776,-0.048983,0.949526,0.254736
1630059088786,-0.053191999999999996,0.93391,0.267485
1630059088795,-0.050813,0.937143,0.278526
1630059088805,-0.045262,0.949404,0.285236
1630059088814,-0.038064,0.96319,0.28621199999999997
1630059088824,-0.031476,0.9849669999999999,0.280356
1630059088834,-0.02135,1.006561,0.27511
1630059088843,-0.015006,1.015162,0.273341
1630059088853,-0.009882,1.015528,0.277367
1630059088862,-0.0057339999999999995,1.012356,0.28731
1630059088872,-0.000305,1.006439,0.29548399999999997
1630059088882,0.004941,1.004975,0.30012
1630059088891,0.010797,1.005158,0.303719
1630059088901,0.017568,1.007232,0.305305
1630059088910,0.026291,1.014125,0.300913
1630059088920,0.036966,1.023031,0.290665
1630059088930,0.042638999999999996,1.027179,0.28346699999999997
1630059088939,0.046238,1.02663,0.274805
1630059088949,0.047397,1.023702,0.268766
1630059088958,0.049409999999999996,1.026935,0.260897
1630059088968,0.043676,1.042795,0.253455
1630059088978,0.033672,1.055788,0.242414
1630059088987,0.017934,1.063291,0.221918
1630059088997,0.0030499999999999998,1.049749,0.20496
1630059089006,-0.011407,1.001132,0.199104
1630059089016,-0.024766,0.948062,0.210938
1630059089026,-0.036295,0.9222589999999999,0.232898
1630059089035,-0.04514,0.924028,0.248148
1630059089045,-0.057157,0.943426,0.257359
1630059089054,-0.069784,0.970876,0.26809499999999997
1630059089064,-0.08052,0.9989359999999999,0.277916
1630059089074,-0.091378,1.006622,0.282918
1630059089083,-0.105042,0.991799,0.28194199999999997
1630059089093,-0.116815,0.965996,0.282003
1630059089102,-0.125843,0.937631,0.281393
1630059089112,-0.136152,0.908473,0.276635
1630059089122,-0.141825,0.884622,0.271084
1630059089131,-0.143838,0.8726659999999999,0.269559
1630059089141,-0.144021,0.865834,0.282979
1630059089150,-0.145241,0.866871,0.302804
1630059089160,-0.150731,0.872788,0.323788
1630059089170,-0.156465,0.880718,0.339465
1630059089179,-0.164578,0.881328,0.355752
1630059089189,-0.174704,0.876875,0.363377
1630059089198,-0.18196299999999999,0.869189,0.367159
1630059089208,-0.185806,0.855403,0.371978
1630059089218,-0.18849,0.84546,0.378261
1630059089227,-0.185501,0.8532069999999999,0.38887499999999997
1630059089237,-0.180133,0.859185,0.400831
1630059089246,-0.17946199999999998,0.8611369999999999,0.414312
1630059089256,-0.181536,0.869616,0.425475
1630059089266,-0.183244,0.879315,0.43694299999999997
1630059089275,-0.184525,0.887367,0.443714
1630059089285,-0.184342,0.889014,0.450546
1630059089294,-0.19117399999999998,0.894016,0.449997
1630059089304,-0.197152,0.906643,0.446886
1630059089314,-0.204716,0.918233,0.440115
1630059089323,-0.215452,0.924882,0.425475
1630059089333,-0.225944,0.912682,0.415227
1630059089342,-0.23430099999999998,0.895236,0.41168899999999997
1630059089352,-0.23851,0.888709,0.411811
1630059089362,-0.238998,0.8876109999999999,0.414678
1630059089371,-0.240706,0.889929,0.420351
1630059089381,-0.240218,0.908412,0.424438
1630059089390,-0.24278,0.927322,0.421815
1630059089400,-0.24766,0.929701,0.416935
1630059089410,-0.25498,0.9225639999999999,0.411933
1630059089419,-0.260287,0.915549,0.404979
1630059089429,-0.266631,0.9027999999999999,0.40180699999999997
1630059089438,-0.270169,0.893833,0.40180699999999997
1630059089448,-0.272914,0.885842,0.401929
1630059089458,-0.276574,0.883707,0.402661
1630059089467,-0.276574,0.890966,0.403271
1630059089477,-0.27144999999999997,0.907924,0.40382
1630059089486,-0.26034799999999997,0.930982,0.400099
1630059089496,-0.252845,0.948062,0.396805
1630059089506,-0.250649,0.9475129999999999,0.395097
1630059089515,-0.248148,0.939888,0.396134
1630059089525,-0.246684,0.932873,0.39192499999999997
1630059089534,-0.25132,0.915671,0.390339
1630059089544,-0.261202,0.9024949999999999,0.382714
1630059089554,-0.26779,0.9031049999999999,0.375028
1630059089563,-0.272731,0.911523,0.36606099999999997
1630059089573,-0.27266999999999997,0.9216489999999999,0.356606
1630059089582,-0.267485,0.93086,0.345809
1630059089592,-0.25912799999999997,0.936472,0.338489
1630059089602,-0.253211,0.9381189999999999,0.332267
1630059089611,-0.250527,0.933178,0.322812
1630059089621,-0.251808,0.9250039999999999,0.3111
1630059089630,-0.254858,0.918843,0.2989
1630059089640,-0.260165,0.918538,0.29304399999999997
1630059089650,-0.25973799999999997,0.92781,0.2928
1630059089659,-0.252418,0.945439,0.292312
1630059089669,-0.240279,0.957822,0.285114
1630059089678,-0.229543,0.971913,0.275171
1630059089688,-0.218258,0.97905,0.264008
1630059089698,-0.207888,0.9803919999999999,0.252357
1630059089707,-0.20313,0.968863,0.242902
1630059089717,-0.203252,0.9569679999999999,0.232898
1630059089726,-0.203557,0.9548329999999999,0.223626
1630059089736,-0.202764,0.949526,0.222162
1630059089746,-0.201849,0.946781,0.220332
1630059089755,-0.198799,0.948245,0.216672
1630059089765,-0.198372,0.9496479999999999,0.210938
1630059089774,-0.195932,0.9496479999999999,0.204594
1630059089784,-0.192028,0.944707,0.200385
1630059089794,-0.1891,0.942084,0.195017
1630059089803,-0.186477,0.94428,0.192821
1630059089813,-0.183549,0.950746,0.19178399999999998
1630059089822,-0.183061,0.962885,0.189405
1630059089832,-0.182146,0.97844,0.18605
1630059089842,-0.18056,0.991372,0.18178
1630059089851,-0.17946199999999998,0.996374,0.180011
1630059089861,-0.179279,1.000949,0.173179
1630059089870,-0.179584,1.002962,0.166042
1630059089880,-0.180621,0.9977159999999999,0.158661
1630059089890,-0.177815,0.994422,0.154147
1630059089899,-0.174704,0.996069,0.14835199999999998
1630059089909,-0.17238599999999998,1.000156,0.146766
1630059089918,-0.166286,1.009794,0.148474
1630059089928,-0.160491,1.017602,0.149999
1630059089938,-0.154757,1.023336,0.15207299999999999
1630059089947,-0.147864,1.018029,0.154269
1630059089957,-0.141642,1.006988,0.155001
1630059089966,-0.136823,0.99674,0.15420799999999998
1630059089976,-0.133712,0.988078,0.151158
1630059089986,-0.130601,0.9837469999999999,0.144936
1630059089995,-0.12925899999999999,0.983198,0.138043
1630059090005,-0.129015,0.983381,0.127612
1630059090014,-0.129686,0.981429,0.116449
1630059090024,-0.129686,0.975634,0.107482
1630059090034,-0.132736,0.969595,0.099186
1630059090043,-0.133468,0.9666669999999999,0.09235399999999999
1630059090053,-0.132675,0.966545,0.084668
1630059090062,-0.13237,0.972645,0.078507
1630059090072,-0.129198,0.9785619999999999,0.075518
1630059090082,-0.126087,0.981673,0.074359
1630059090091,-0.121756,0.981063,0.075579
1630059090101,-0.116571,0.978989,0.07649399999999999
1630059090110,-0.109495,0.978928,0.077165
1630059090120,-0.101321,0.9770369999999999,0.08326499999999999
1630059090130,-0.094245,0.97234,0.092964
1630059090139,-0.088389,0.973438,0.098576
1630059090149,-0.084729,0.9776469999999999,0.105408
1630059090158,-0.083082,0.982161,0.11163
1630059090168,-0.081618,0.988078,0.115534
1630059090178,-0.080459,0.99552,0.11254499999999999
1630059090187,-0.08113,0.9998509999999999,0.103334
1630059090197,-0.083448,1.001071,0.09174399999999999
1630059090206,-0.081191,0.99979,0.08967
1630059090216,-0.07942199999999999,0.9989359999999999,0.092598
1630059090226,-0.079971,0.995093,0.100101
1630059090235,-0.084851,0.996313,0.106567
1630059090245,-0.088572,1.002108,0.111386
1630059090254,-0.091256,1.012539,0.106933
1630059090264,-0.096075,1.02175,0.092842
1630059090274,-0.10052799999999999,1.0255319999999999,0.072041
1630059090283,-0.106323,1.020591,0.05185
1630059090293,-0.11041,1.014857,0.037393
1630059090302,-0.111752,1.009489,0.031842
1630059090312,-0.11163,1.00589,0.03294
1630059090322,-0.111874,0.996618,0.042883
1630059090331,-0.111386,0.986248,0.055449
1630059090341,-0.108641,0.972828,0.066612
1630059090350,-0.10467599999999999,0.95648,0.076677
1630059090360,-0.101199,0.943304,0.088023
1630059090370,-0.097539,0.943975,0.089914
1630059090379,-0.093086,0.9472079999999999,0.097356
1630059090389,-0.089304,0.9481229999999999,0.103212
1630059090398,-0.088633,0.950685,0.10736
1630059090408,-0.0915,0.955199,0.10760399999999999
1630059090418,-0.094916,0.957395,0.11114199999999999
1630059090427,-0.097478,0.959286,0.11529
1630059090437,-0.09851499999999999,0.964166,0.116327
1630059090446,-0.101016,0.965203,0.118035
1630059090456,-0.104798,0.96685,0.11931599999999999
1630059090466,-0.107116,0.967521,0.12315899999999999
1630059090475,-0.111203,0.973499,0.12456199999999999
1630059090485,-0.113033,0.973926,0.131638
1630059090494,-0.118279,0.975695,0.136579
1630059090504,-0.121451,0.978928,0.144204
1630059090514,-0.12383,0.985333,0.149694
1630059090523,-0.127063,0.984296,0.160308
1630059090533,-0.129015,0.987956,0.164334
1630059090542,-0.130113,0.992958,0.17055599999999999
1630059090552,-0.131943,0.993324,0.178303
1630059090562,-0.133956,0.99308,0.185501
1630059090571,-0.137494,0.992409,0.192882
1630059090581,-0.141154,0.994727,0.200385
1630059090590,-0.14274,1.001376,0.203618
1630059090600,-0.14152,1.009916,0.205509
1630059090610,-0.140483,1.019188,0.20599699999999999
1630059090619,-0.13725,1.029253,0.205204
1630059090629,-0.136274,1.037,0.204045
1630059090638,-0.13419999999999999,1.034621,0.199531
1630059090648,-0.13572499999999998,1.03151,0.19886
1630059090658,-0.137616,1.025349,0.20014099999999999
1630059090667,-0.140178,1.016931,0.202215
1630059090677,-0.141825,1.009306,0.206119
1630059090686,-0.145302,1.0065,0.20782699999999998
1630059090696,-0.146034,1.004792,0.208864
1630059090706,-0.147681,1.003938,0.20935199999999998
1630059090715,-0.148535,1.007537,0.206363
1630059090725,-0.149511,1.011441,0.20319099999999998
1630059090734,-0.147925,1.009977,0.198616
1630059090744,-0.14713199999999999,1.00833,0.19154
1630059090754,-0.144814,1.001254,0.187575
1630059090763,-0.142862,0.994788,0.182939
1630059090773,-0.141703,0.987712,0.182085
1630059090782,-0.139995,0.9803919999999999,0.180316
1630059090792,-0.13694499999999998,0.975878,0.181353
1630059090802,-0.136518,0.972401,0.18196299999999999
1630059090811,-0.134749,0.97051,0.181475
1630059090821,-0.13176,0.96807,0.182512
1630059090830,-0.130052,0.964776,0.184952
1630059090840,-0.128771,0.961055,0.18903899999999998
1630059090850,-0.125538,0.960384,0.192272
1630059090859,-0.123891,0.959957,0.196237
1630059090869,-0.122427,0.958554,0.20044599999999999
1630059090878,-0.122366,0.961116,0.204411
1630059090888,-0.121878,0.96441,0.207766
1630059090898,-0.120902,0.964288,0.211243
1630059090907,-0.121146,0.967094,0.21185299999999999
1630059090917,-0.121146,0.967155,0.212036
1630059090926,-0.122061,0.96746,0.208986
1630059090936,-0.12315899999999999,0.962702,0.20599699999999999
1630059090946,-0.123342,0.961421,0.206729
1630059090955,-0.124013,0.964166,0.204045
1630059090965,-0.124989,0.964837,0.204594
1630059090974,-0.126148,0.967521,0.20801
1630059090984,-0.127734,0.972706,0.212829
1630059090994,-0.12688,0.979111,0.219295
1630059091003,-0.127246,0.981673,0.228628
1630059091013,-0.128222,0.981185,0.236985
1630059091022,-0.128527,0.979904,0.243024
1630059091032,-0.127612,0.977464,0.248026
1630059091042,-0.128283,0.974475,0.25071
1630059091051,-0.12932,0.972584,0.252845
1630059091061,-0.12986899999999998,0.977586,0.250649
1630059091070,-0.129442,0.97661,0.254126
1630059091080,-0.131394,0.970754,0.256139
1630059091090,-0.13054,0.970815,0.255407
1630059091099,-0.129015,0.9739869999999999,0.25729799999999997
1630059091109,-0.130662,0.973499,0.26034799999999997
1630059091118,-0.130296,0.976366,0.258335
1630059091128,-0.12895399999999999,0.9782569999999999,0.258701
1630059091138,-0.13017399999999998,0.9764269999999999,0.258884
1630059091147,-0.129442,0.972889,0.258884
1630059091157,-0.12925899999999999,0.9727669999999999,0.257542
1630059091166,-0.129015,0.969656,0.260104
1630059091176,-0.128588,0.967704,0.259982
1630059091186,-0.128588,0.965874,0.26126299999999997
1630059091195,-0.12749,0.96563,0.263032
1630059091205,-0.126575,0.965264,0.265411
1630059091214,-0.125904,0.9681919999999999,0.267729
1630059091224,-0.124318,0.966545,0.267241
1630059091234,-0.123891,0.967094,0.266997
1630059091243,-0.125782,0.965996,0.267302
1630059091253,-0.125111,0.963556,0.26596
1630059091262,-0.123891,0.9606279999999999,0.267973
1630059091272,-0.124074,0.958432,0.268583
1630059091282,-0.123098,0.9575779999999999,0.271267
1630059091291,-0.120109,0.960445,0.27388999999999997
1630059091301,-0.118584,0.9597129999999999,0.278526
1630059091310,-0.11699799999999999,0.960445,0.280539
1630059091320,-0.115717,0.958676,0.281149
1630059091330,-0.115107,0.956785,0.28224699999999997
1630059091339,-0.114314,0.954955,0.28407699999999997
1630059091349,-0.113643,0.95343,0.287066
1630059091358,-0.111752,0.953796,0.290421
1630059091368,-0.11053199999999999,0.95465,0.293898
1630059091378,-0.110471,0.955504,0.29829
1630059091387,-0.109983,0.955016,0.301157
1630059091397,-0.110105,0.953674,0.303597
1630059091406,-0.109373,0.954711,0.305488
1630059091416,-0.109434,0.954772,0.307684
1630059091426,-0.108824,0.954772,0.30963599999999997
1630059091435,-0.109434,0.95465,0.31049
1630059091445,-0.109068,0.953491,0.311466
1630059091454,-0.109861,0.953857,0.313906
1630059091464,-0.11053199999999999,0.9560529999999999,0.314943
1630059091474,-0.110776,0.95831,0.316834
1630059091483,-0.111508,0.958005,0.316102
1630059091493,-0.112728,0.958127,0.314272
1630059091502,-0.112972,0.957212,0.315187
1630059091512,-0.113094,0.956175,0.313723
1630059091522,-0.113033,0.952332,0.314211
1630059091531,-0.11345999999999999,0.9508679999999999,0.31598
1630059091541,-0.113582,0.953125,0.315309
1630059091550,-0.113033,0.9533079999999999,0.315736
1630059091560,-0.113277,0.952637,0.314211
1630059091570,-0.114558,0.954406,0.314577
1630059091579,-0.113887,0.954955,0.314882
1630059091589,-0.113399,0.9530029999999999,0.316346
1630059091598,-0.113338,0.953064,0.317871
1630059091608,-0.111752,0.952881,0.319762
1630059091618,-0.110471,0.951905,0.319762
1630059091627,-0.110776,0.9526979999999999,0.320189
1630059091637,-0.110471,0.951722,0.320372
1630059091646,-0.111569,0.951356,0.321287
1630059091656,-0.112301,0.950807,0.322446
1630059091666,-0.111752,0.948611,0.32226299999999997
1630059091675,-0.111569,0.946842,0.323056
1630059091685,-0.110898,0.948062,0.324215
1630059091694,-0.111386,0.94794,0.324764
1630059091704,-0.111447,0.94794,0.324459
1630059091714,-0.111508,0.949587,0.324642
1630059091723,-0.111813,0.949709,0.32452
1630059091733,-0.113399,0.950502,0.323727
1630059091742,-0.11223999999999999,0.94977,0.324581
1630059091752,-0.112057,0.949831,0.325191
1630059091762,-0.111996,0.9490379999999999,0.325801
1630059091771,-0.11254499999999999,0.946842,0.324886
1630059091781,-0.109861,0.9472079999999999,0.326411
1630059091790,-0.110471,0.946232,0.326106
1630059091800,-0.111264,0.948794,0.326777
1630059091810,-0.10992199999999999,0.9496479999999999,0.326838
1630059091819,-0.109861,0.9490379999999999,0.325313
1630059091829,-0.109861,0.9502579999999999,0.327692
1630059091838,-0.108458,0.950502,0.32696
1630059091848,-0.108458,0.9478179999999999,0.328851
1630059091858,-0.108275,0.947574,0.330437
1630059091867,-0.105713,0.947696,0.331657
1630059091877,-0.105408,0.9481229999999999,0.333182
1630059091886,-0.10431,0.947574,0.336049
1630059091896,-0.105652,0.948062,0.336293
1630059091906,-0.105469,0.94611,0.338123
1630059091915,-0.104615,0.948367,0.337452
1630059091925,-0.105408,0.948306,0.337147
1630059091934,-0.10498099999999999,0.948489,0.3355
1630059091944,-0.106567,0.948489,0.334707
1630059091954,-0.106018,0.94916,0.333853
1630059091963,-0.106628,0.946537,0.332938
1630059091973,-0.105835,0.948367,0.332389
1630059091982,-0.105591,0.949282,0.33275499999999997
1630059091992,-0.104615,0.9481229999999999,0.333731
1630059092002,-0.103822,0.950319,0.33458499999999997
1630059092011,-0.104493,0.946049,0.337147
1630059092021,-0.105652,0.9426329999999999,0.338306
1630059092030,-0.105652,0.9438529999999999,0.340014
1630059092040,-0.105164,0.944524,0.341234
1630059092050,-0.104554,0.9432429999999999,0.338977
1630059092059,-0.10467599999999999,0.944707,0.335622
1630059092069,-0.105652,0.94611,0.33427999999999997
1630059092078,-0.104798,0.94611,0.332572
1630059092088,-0.10467599999999999,0.946842,0.332328
1630059092098,-0.106018,0.948245,0.330803
1630059092107,-0.105591,0.94489,0.330437
1630059092117,-0.106628,0.942877,0.330986
1630059092126,-0.105286,0.943731,0.33092499999999997
1630059092136,-0.104127,0.9465979999999999,0.328668
1630059092146,-0.104249,0.947086,0.328912
1630059092155,-0.104188,0.946354,0.327143
1630059092165,-0.10309,0.94672,0.326411
1630059092174,-0.102541,0.945195,0.328851
1630059092184,-0.103273,0.944097,0.33153499999999997
1630059092194,-0.101504,0.945439,0.332511
1630059092203,-0.100589,0.9453779999999999,0.331596
1630059092213,-0.100162,0.945622,0.331352
1630059092222,-0.100162,0.94672,0.331352
1630059092232,-0.100711,0.94733,0.331108
1630059092242,-0.101626,0.949404,0.330864
1630059092251,-0.102663,0.9499529999999999,0.330742
1630059092261,-0.10248,0.948672,0.33000999999999997
1630059092270,-0.103395,0.947696,0.33031499999999997
1630059092280,-0.103029,0.948855,0.33092499999999997
1630059092290,-0.102724,0.9496479999999999,0.33153499999999997
1630059092299,-0.10284599999999999,0.950197,0.33092499999999997
1630059092309,-0.10315099999999999,0.951356,0.328851
1630059092318,-0.103273,0.951417,0.327692
1630059092328,-0.103822,0.951112,0.327509
1630059092338,-0.103334,0.9502579999999999,0.329461
1630059092347,-0.103822,0.94855,0.330193
1630059092357,-0.104127,0.948245,0.329461
1630059092366,-0.104188,0.948184,0.32848499999999997
1630059092376,-0.10406599999999999,0.948306,0.328119
1630059092386,-0.103517,0.9499529999999999,0.329583
1630059092395,-0.10284599999999999,0.949099,0.328241
1630059092405,-0.104005,0.948306,0.324276
1630059092414,-0.103944,0.951051,0.32391
1630059092424,-0.103334,0.950197,0.323483
1630059092434,-0.103273,0.950746,0.323422
1630059092443,-0.102663,0.94916,0.323971
1630059092453,-0.101504,0.948062,0.324581
1630059092462,-0.099064,0.9472079999999999,0.325252
1630059092472,-0.098881,0.9459879999999999,0.325252
1630059092482,-0.098454,0.945866,0.325435
1630059092491,-0.098576,0.9469029999999999,0.324947
1630059092501,-0.098454,0.9462929999999999,0.325191
1630059092510,-0.098271,0.947269,0.327143
1630059092520,-0.097417,0.946476,0.328973
1630059092530,-0.097539,0.946232,0.328851
1630059092539,-0.098271,0.947391,0.328607
1630059092549,-0.099003,0.948245,0.327997
1630059092558,-0.099796,0.949221,0.32635
1630059092568,-0.101321,0.949526,0.324764
1630059092578,-0.10126,0.950685,0.323727
1630059092587,-0.102968,0.951966,0.323483
1630059092597,-0.104615,0.952149,0.32195799999999997
1630059092606,-0.104432,0.953552,0.320006
1630059092616,-0.103578,0.9502579999999999,0.32012799999999997
1630059092626,-0.104615,0.94977,0.319762
1630059092635,-0.10431,0.948001,0.31951799999999997
1630059092645,-0.105042,0.945622,0.319396
1630059092654,-0.105225,0.94611,0.321897
1630059092664,-0.104737,0.946049,0.32195799999999997
1630059092674,-0.104798,0.94733,0.32208
1630059092683,-0.105957,0.94855,0.321592
1630059092693,-0.10607899999999999,0.949526,0.32195799999999997
1630059092702,-0.106201,0.950136,0.321836
1630059092712,-0.106872,0.95099,0.319945
1630059092722,-0.107848,0.949404,0.31921299999999997
1630059092731,-0.10729899999999999,0.948611,0.32012799999999997
1630059092741,-0.107177,0.950075,0.319457
1630059092750,-0.106201,0.952027,0.31964
1630059092760,-0.105896,0.952942,0.321104
1630059092770,-0.10431,0.952942,0.321104
1630059092779,-0.10467599999999999,0.952454,0.319457
1630059092789,-0.105042,0.951295,0.31982299999999997
1630059092798,-0.105591,0.949709,0.32134799999999997
1630059092808,-0.10345599999999999,0.949282,0.322507
1630059092818,-0.101504,0.949221,0.32165299999999997
1630059092827,-0.10113799999999999,0.947696,0.321775
1630059092837,-0.101992,0.946537,0.323117
1630059092846,-0.102419,0.946354,0.323666
1630059092856,-0.101687,0.947696,0.325801
1630059092866,-0.100894,0.947757,0.327143
1630059092875,-0.100772,0.948184,0.327692
1630059092885,-0.10052799999999999,0.94733,0.328607
1630059092894,-0.099979,0.94672,0.32970499999999997
1630059092904,-0.101809,0.945134,0.327326
1630059092914,-0.100894,0.9475129999999999,0.328302
1630059092923,-0.101382,0.948977,0.327326
1630059092933,-0.10248,0.948611,0.326594
1630059092942,-0.102236,0.9487329999999999,0.326594
1630059092952,-0.102724,0.947879,0.325862
1630059092962,-0.10345599999999999,0.949465,0.326411
1630059092971,-0.103822,0.948245,0.326655
1630059092981,-0.103517,0.947757,0.326411
1630059092990,-0.10431,0.947086,0.326533
1630059093000,-0.104432,0.947635,0.32817999999999997
1630059093010,-0.10431,0.947757,0.326716
1630059093019,-0.104432,0.948672,0.324398
1630059093029,-0.105164,0.95099,0.325008
1630059093038,-0.10406599999999999,0.951051,0.324642
1630059093048,-0.104737,0.950502,0.324032
1630059093058,-0.104005,0.9493429999999999,0.324154
1630059093067,-0.10309,0.948001,0.324215
1630059093077,-0.101626,0.948001,0.325252
1630059093086,-0.101687,0.947635,0.324886
1630059093096,-0.099491,0.947696,0.325252
1630059093106,-0.098637,0.946354,0.326289
1630059093115,-0.099796,0.946415,0.327448
1630059093125,-0.098027,0.94733,0.33031499999999997
1630059093134,-0.096136,0.946842,0.331291
1630059093144,-0.096746,0.9469029999999999,0.331596
1630059093154,-0.097356,0.9469029999999999,0.33183999999999997
1630059093163,-0.097112,0.9493429999999999,0.33244999999999997
1630059093173,-0.096502,0.948672,0.331596
1630059093182,-0.096075,0.94916,0.332999
1630059093192,-0.095343,0.949404,0.33397499999999997
1630059093202,-0.095404,0.950807,0.33427999999999997
1630059093211,-0.095709,0.9490379999999999,0.334829
1630059093221,-0.095038,0.949221,0.334951
1630059093230,-0.096014,0.949587,0.335378
1630059093240,-0.096868,0.9493429999999999,0.33366999999999997
1630059093250,-0.096746,0.950502,0.332206
1630059093259,-0.09698999999999999,0.948855,0.331108
1630059093269,-0.09820999999999999,0.948367,0.329827
1630059093278,-0.096929,0.94672,0.32939999999999997
1630059093288,-0.097234,0.944707,0.32878999999999997
1630059093298,-0.096563,0.945805,0.328363
1630059093307,-0.096258,0.946537,0.330071
1630059093317,-0.096624,0.945927,0.329461
1630059093326,-0.097356,0.9472079999999999,0.327631
1630059093336,-0.096746,0.94794,0.32696
1630059093346,-0.096746,0.949831,0.327082
1630059093355,-0.096014,0.949465,0.326106
1630059093365,-0.094916,0.949526,0.32696
1630059093374,-0.095709,0.9462929999999999,0.327204
1630059093384,-0.096014,0.945134,0.326594
1630059093394,-0.09467199999999999,0.948062,0.32635
1630059093403,-0.092964,0.9493429999999999,0.326777
1630059093413,-0.09272,0.948184,0.327509
1630059093422,-0.09272,0.947086,0.328729
1630059093432,-0.093269,0.9484279999999999,0.330071
1630059093442,-0.093635,0.94794,0.331596
1630059093451,-0.093879,0.947391,0.331657
1630059093461,-0.09436699999999999,0.948489,0.33122999999999997
1630059093470,-0.094794,0.949587,0.330559
1630059093480,-0.09516,0.950014,0.329217
1630059093490,-0.096136,0.948916,0.328851
1630059093499,-0.096685,0.946537,0.329949
1630059093509,-0.09729499999999999,0.944646,0.329583
1630059093518,-0.096319,0.947635,0.331047
1630059093528,-0.096136,0.94916,0.332816
1630059093538,-0.097234,0.947635,0.332633
1630059093547,-0.098759,0.94794,0.330864
1630059093557,-0.099186,0.947635,0.330498
1630059093566,-0.097966,0.9499529999999999,0.33122999999999997
1630059093576,-0.098576,0.950014,0.329644
1630059093586,-0.098332,0.9499529999999999,0.32817999999999997
1630059093595,-0.098576,0.9493429999999999,0.328424
1630059093605,-0.09759999999999999,0.947025,0.328058
1630059093614,-0.096197,0.947086,0.33031499999999997
1630059093624,-0.095526,0.946476,0.33214499999999997
1630059093634,-0.09394,0.9441579999999999,0.33427999999999997
1630059093643,-0.093086,0.944402,0.335622
1630059093653,-0.09272,0.9435479999999999,0.335256
1630059093662,-0.092415,0.944707,0.334158
1630059093672,-0.09204899999999999,0.947696,0.335256
1630059093682,-0.093391,0.947879,0.33488999999999997
1630059093691,-0.093086,0.9478179999999999,0.33488999999999997
1630059093701,-0.093818,0.9450729999999999,0.335256
1630059093710,-0.092964,0.945561,0.336354
1630059093720,-0.092964,0.946659,0.337147
1630059093730,-0.094245,0.94672,0.336598
1630059093739,-0.094123,0.947086,0.335866
1630059093749,-0.093696,0.945195,0.33336499999999997
1630059093758,-0.094428,0.947696,0.332694
1630059093768,-0.09394,0.947086,0.333304
1630059093778,-0.094184,0.944341,0.333792
1630059093787,-0.093696,0.943365,0.332877
1630059093797,-0.093757,0.9435479999999999,0.334036
1630059093806,-0.092537,0.944219,0.33458499999999997
1630059093816,-0.09333,0.943731,0.33458499999999997
1630059093826,-0.093574,0.94489,0.336537
1630059093835,-0.09211,0.944219,0.338672
1630059093845,-0.092232,0.9455,0.34019699999999997
1630059093854,-0.09235399999999999,0.9472079999999999,0.341966
1630059093864,-0.09235399999999999,0.9481229999999999,0.342515
1630059093874,-0.093086,0.9484279999999999,0.34294199999999997
1630059093883,-0.093452,0.948855,0.341173
1630059093893,-0.09467199999999999,0.948306,0.341173
1630059093902,-0.094184,0.94855,0.339526
1630059093912,-0.093452,0.946964,0.339099
1630059093922,-0.09394,0.9453779999999999,0.338184
1630059093931,-0.094306,0.9444629999999999,0.337086
1630059093941,-0.094306,0.942755,0.336415
1630059093950,-0.094794,0.943304,0.336354
1630059093960,-0.095038,0.9455,0.335622
1630059093970,-0.094855,0.94733,0.335439
1630059093979,-0.094794,0.9487329999999999,0.335073
1630059093989,-0.094306,0.947452,0.335134
1630059093998,-0.094733,0.947147,0.335988
1630059094008,-0.093452,0.946476,0.335439
1630059094018,-0.093635,0.94489,0.335927
1630059094027,-0.093452,0.942877,0.336354
1630059094037,-0.092781,0.944585,0.334158
1630059094046,-0.092476,0.944097,0.335134
1630059094056,-0.091622,0.9432429999999999,0.334097
1630059094066,-0.091073,0.944951,0.334951
1630059094075,-0.091622,0.945317,0.3355
1630059094085,-0.092171,0.944341,0.336842
1630059094094,-0.091622,0.945134,0.337574
1630059094104,-0.090402,0.948001,0.336903
1630059094114,-0.08967,0.948306,0.33733
1630059094123,-0.089609,0.947391,0.337696
1630059094133,-0.089975,0.945927,0.33733
1630059094142,-0.090036,0.944707,0.338672
1630059094152,-0.091073,0.944402,0.339709
1630059094162,-0.089182,0.944646,0.341295
1630059094171,-0.090219,0.943914,0.34099
1630059094181,-0.089975,0.9453779999999999,0.34202699999999997
1630059094190,-0.090402,0.947452,0.34221
1630059094200,-0.090829,0.9469029999999999,0.340685
1630059094210,-0.091256,0.948184,0.340258
1630059094219,-0.092781,0.947391,0.338672
1630059094229,-0.093147,0.946964,0.338794
1630059094238,-0.092598,0.9462929999999999,0.338001
1630059094248,-0.093635,0.9455,0.336293
1630059094258,-0.093208,0.9455,0.336598
1630059094267,-0.092171,0.945744,0.336537
1630059094277,-0.093696,0.945012,0.336964
1630059094286,-0.093696,0.9469029999999999,0.335073
1630059094296,-0.093086,0.9499529999999999,0.332267
1630059094306,-0.09455,0.947879,0.333731
1630059094315,-0.09455,0.948489,0.330559
1630059094325,-0.094428,0.94855,0.330437
1630059094334,-0.093208,0.947696,0.332328
1630059094344,-0.091805,0.94611,0.332511
1630059094354,-0.091317,0.945744,0.333182
1630059094363,-0.090768,0.945927,0.333792
1630059094373,-0.090829,0.945195,0.33458499999999997
1630059094382,-0.090463,0.946781,0.333792
1630059094392,-0.088938,0.948306,0.334402
1630059094402,-0.088328,0.947025,0.335744
1630059094411,-0.088267,0.947574,0.336537
1630059094421,-0.088755,0.9455,0.335317
1630059094430,-0.088328,0.9447679999999999,0.335683
1630059094440,-0.088023,0.9455,0.334768
1630059094450,-0.087291,0.946354,0.333731
1630059094459,-0.088389,0.946781,0.333304
1630059094469,-0.08820599999999999,0.945866,0.333853
1630059094478,-0.08845,0.94733,0.331474
1630059094488,-0.08973099999999999,0.9481229999999999,0.332572
1630059094498,-0.088877,0.948977,0.332267
1630059094507,-0.089365,0.949404,0.333426
1630059094517,-0.090097,0.947452,0.333853
1630059094526,-0.090707,0.948489,0.333609
1630059094536,-0.089792,0.947574,0.33336499999999997
1630059094546,-0.089914,0.945256,0.332938
1630059094555,-0.088694,0.946354,0.333853
1630059094565,-0.088755,0.947086,0.33305999999999997
1630059094574,-0.08790099999999999,0.9462929999999999,0.334158
1630059094584,-0.087718,0.945622,0.333243
1630059094594,-0.087291,0.947452,0.333731
1630059094603,-0.087657,0.948489,0.33458499999999997
1630059094613,-0.087962,0.947696,0.333609
1630059094622,-0.088694,0.946964,0.333487
1630059094632,-0.087596,0.9472079999999999,0.332023
1630059094642,-0.088877,0.943365,0.332389
1630059094651,-0.087779,0.9429379999999999,0.33305999999999997
1630059094661,-0.086376,0.946171,0.332389
1630059094670,-0.08680299999999999,0.9462929999999999,0.332328
1630059094680,-0.088389,0.944036,0.332328
1630059094690,-0.087474,0.946476,0.333487
1630059094699,-0.087352,0.946049,0.3355
1630059094709,-0.087718,0.945439,0.337757
1630059094718,-0.088084,0.947452,0.338428
1630059094728,-0.087474,0.94733,0.338428
1630059094738,-0.08662,0.947269,0.338672
1630059094747,-0.087474,0.946659,0.338367
1630059094757,-0.086864,0.94611,0.33916
1630059094766,-0.08723,0.94611,0.33989199999999997
1630059094776,-0.086986,0.94672,0.340685
1630059094786,-0.086864,0.9453779999999999,0.339831
1630059094795,-0.085644,0.9447679999999999,0.340441
1630059094805,-0.08619299999999999,0.944951,0.340746
1630059094814,-0.086742,0.944524,0.340868
1630059094824,-0.08649799999999999,0.9429379999999999,0.33977
1630059094834,-0.086925,0.944402,0.337818
1630059094843,-0.087596,0.947147,0.336964
1630059094853,-0.086681,0.948489,0.338855
1630059094862,-0.087352,0.950136,0.338367
1630059094872,-0.08790099999999999,0.950319,0.339221
1630059094882,-0.087169,0.948855,0.340319
1630059094891,-0.087108,0.9484279999999999,0.339648
1630059094901,-0.086864,0.949282,0.341966
1630059094910,-0.085644,0.950197,0.338855
1630059094920,-0.0854,0.9502579999999999,0.336842
1630059094930,-0.08619299999999999,0.948977,0.336232
1630059094939,-0.085156,0.9465979999999999,0.335134
1630059094949,-0.085461,0.944341,0.334829
1630059094958,-0.084851,0.943487,0.335561
1630059094968,-0.083936,0.942755,0.335866
1630059094978,-0.08265499999999999,0.943975,0.335988
1630059094987,-0.08174,0.944402,0.337391
1630059094997,-0.083082,0.943914,0.33733
1630059095006,-0.082289,0.945134,0.338367
1630059095016,-0.082411,0.944524,0.33989199999999997
1630059095026,-0.081679,0.9455,0.341661
1630059095035,-0.082472,0.945866,0.342088
1630059095045,-0.082167,0.9465979999999999,0.342088
1630059095054,-0.082228,0.946537,0.340746
1630059095064,-0.082228,0.94611,0.34038
1630059095074,-0.081984,0.945134,0.338733
1630059095083,-0.08265499999999999,0.945012,0.338062
1630059095093,-0.082228,0.945805,0.338062
1630059095102,-0.08234999999999999,0.946354,0.337635
1630059095112,-0.082228,0.946049,0.337879
1630059095122,-0.081679,0.945134,0.339709
1630059095131,-0.081862,0.946171,0.33989199999999997
1630059095141,-0.081435,0.94611,0.34038
1630059095150,-0.081801,0.94428,0.341356
1630059095160,-0.08064199999999999,0.943731,0.342698
1630059095170,-0.081679,0.94367,0.343735
1630059095179,-0.081252,0.9435479999999999,0.344955
1630059095189,-0.081862,0.943426,0.345565
1630059095198,-0.082533,0.945256,0.34385699999999997
1630059095208,-0.082533,0.94733,0.342698
1630059095218,-0.082533,0.947574,0.34294199999999997
1630059095227,-0.08418,0.94672,0.3416
1630059095237,-0.083692,0.94611,0.341844
1630059095246,-0.083936,0.946171,0.340258
1630059095256,-0.083753,0.945195,0.339526
1630059095266,-0.084241,0.9441579999999999,0.339404
1630059095275,-0.084058,0.9469029999999999,0.339282
1630059095285,-0.085522,0.9447679999999999,0.336964
1630059095294,-0.085095,0.943609,0.337696
1630059095304,-0.083448,0.9453779999999999,0.338245
1630059095314,-0.08356999999999999,0.9455,0.339465
1630059095323,-0.084668,0.945134,0.340868
1630059095333,-0.084607,0.946659,0.34221
1630059095342,-0.083204,0.9481229999999999,0.34172199999999997
1630059095352,-0.083814,0.9481229999999999,0.341539
1630059095362,-0.082472,0.945805,0.34141699999999997
1630059095371,-0.083143,0.944524,0.340868
1630059095381,-0.084546,0.9444629999999999,0.34019699999999997
1630059095390,-0.08588799999999999,0.945012,0.341051
1630059095400,-0.084424,0.944585,0.342149
1630059095410,-0.083936,0.94428,0.343125
1630059095419,-0.083936,0.9441579999999999,0.34343
1630059095429,-0.084424,0.943792,0.343796
1630059095438,-0.085034,0.944036,0.342393
1630059095448,-0.085705,0.945744,0.341783
1630059095458,-0.086071,0.9455,0.340685
1630059095467,-0.087352,0.9459879999999999,0.339648
1630059095477,-0.087962,0.947391,0.339221
1630059095486,-0.088572,0.9469029999999999,0.338733
1630059095496,-0.088145,0.9472079999999999,0.338428
1630059095506,-0.088389,0.94489,0.338855
1630059095515,-0.08851099999999999,0.944951,0.33958699999999997
1630059095525,-0.08912099999999999,0.947086,0.338672
1630059095534,-0.08820599999999999,0.9465979999999999,0.336903
1630059095544,-0.088755,0.9481229999999999,0.335927
1630059095554,-0.08942599999999999,0.9459879999999999,0.335622
1630059095563,-0.090036,0.945012,0.334341
1630059095573,-0.08906,0.944219,0.335317
1630059095582,-0.088328,0.943487,0.335378
1630059095592,-0.087413,0.944341,0.336171
1630059095602,-0.086376,0.945256,0.338794
1630059095611,-0.08527799999999999,0.945866,0.340136
1630059095621,-0.085644,0.945744,0.34141699999999997
1630059095630,-0.084912,0.9459879999999999,0.34233199999999997
1630059095640,-0.08479,0.945012,0.342515
1630059095650,-0.084668,0.945622,0.344223
1630059095659,-0.083814,0.945195,0.343308
1630059095669,-0.084546,0.945439,0.342698
1630059095678,-0.084485,0.946842,0.341905
1630059095688,-0.084668,0.9462929999999999,0.342576
1630059095698,-0.08527799999999999,0.9453779999999999,0.34080699999999997
1630059095707,-0.08588799999999999,0.945317,0.340624
1630059095717,-0.08662,0.9462929999999999,0.340014
1630059095726,-0.087169,0.946354,0.33916
1630059095736,-0.086742,0.946232,0.338245
1630059095746,-0.087535,0.946049,0.337269
1630059095755,-0.087535,0.946476,0.337696
1630059095765,-0.088267,0.945866,0.338306
1630059095774,-0.088084,0.945012,0.337574
1630059095784,-0.088023,0.9441579999999999,0.338794
1630059095794,-0.087047,0.9441579999999999,0.339648
1630059095803,-0.087047,0.9435479999999999,0.340868
1630059095813,-0.087474,0.945622,0.339282
1630059095822,-0.086986,0.945256,0.338428
1630059095832,-0.086437,0.9465979999999999,0.34050199999999997
1630059095842,-0.086986,0.945561,0.340319
1630059095851,-0.08723,0.944707,0.339099
1630059095861,-0.086864,0.944646,0.338245
1630059095870,-0.08588799999999999,0.943914,0.338489
1630059095880,-0.08649799999999999,0.943609,0.338062
1630059095890,-0.086254,0.9462929999999999,0.336781
1630059095899,-0.087169,0.9438529999999999,0.335683
1630059095909,-0.087535,0.943914,0.335317
1630059095918,-0.085705,0.945561,0.336049
1630059095928,-0.086376,0.945439,0.338062
1630059095938,-0.08790099999999999,0.94489,0.339221
1630059095947,-0.087535,0.946049,0.340136
1630059095957,-0.08662,0.946659,0.340075
1630059095966,-0.086132,0.947086,0.338611
1630059095976,-0.086071,0.946232,0.338733
1630059095986,-0.086071,0.945561,0.339709
1630059095995,-0.086315,0.946049,0.341051
1630059096005,-0.086986,0.9455,0.341844
1630059096014,-0.08601,0.9453779999999999,0.341844
1630059096024,-0.085705,0.943487,0.342515
1630059096034,-0.085034,0.94428,0.344345
1630059096043,-0.08680299999999999,0.945195,0.343125
1630059096053,-0.08649799999999999,0.946232,0.341539
1630059096062,-0.087291,0.946476,0.34050199999999997
1630059096072,-0.087718,0.948062,0.341234
1630059096082,-0.08851099999999999,0.9472079999999999,0.340441
1630059096091,-0.08790099999999999,0.9475129999999999,0.340014
1630059096101,-0.089548,0.9462929999999999,0.340136
1630059096110,-0.08881599999999999,0.946781,0.339953
1630059096120,-0.08820599999999999,0.9475129999999999,0.339343
1630059096130,-0.088145,0.946476,0.340258
1630059096139,-0.088877,0.94733,0.337269
1630059096149,-0.088938,0.947147,0.335134
1630059096158,-0.08820599999999999,0.948611,0.335622
1630059096168,-0.08851099999999999,0.947452,0.334158
1630059096178,-0.088023,0.945744,0.333304
1630059096187,-0.089243,0.944646,0.333792
1630059096197,-0.088084,0.944829,0.334646
1630059096206,-0.087047,0.9450729999999999,0.335561
1630059096216,-0.08601,0.945622,0.336781
1630059096226,-0.08497299999999999,0.945134,0.336537
1630059096235,-0.085705,0.946537,0.337208
1630059096245,-0.085522,0.945866,0.335744
1630059096254,-0.084851,0.945622,0.337208
1630059096264,-0.08588799999999999,0.944951,0.338123
1630059096274,-0.08662,0.946232,0.337452
1630059096283,-0.08680299999999999,0.94611,0.336598
1630059096293,-0.086315,0.945744,0.336354
1630059096302,-0.086437,0.9465979999999999,0.336476
1630059096312,-0.085522,0.947086,0.337513
1630059096322,-0.085461,0.946476,0.337086
1630059096331,-0.085461,0.947025,0.337086
1630059096341,-0.08418,0.94611,0.338977
1630059096350,-0.083692,0.946049,0.339099
1630059096360,-0.084302,0.948245,0.340319
1630059096370,-0.084363,0.948367,0.33989199999999997
1630059096379,-0.0854,0.948184,0.339648
1630059096389,-0.084607,0.948977,0.340258
1630059096398,-0.08558299999999999,0.947696,0.339404
1630059096408,-0.085827,0.946964,0.33794
1630059096418,-0.085766,0.946659,0.338001
1630059096427,-0.086132,0.9444629999999999,0.336964
1630059096437,-0.086315,0.944829,0.337025
1630059096446,-0.086986,0.945195,0.336476
1630059096456,-0.087047,0.945439,0.33672
1630059096466,-0.087108,0.946171,0.335805
1630059096475,-0.087596,0.946659,0.335195
1630059096485,-0.087169,0.947391,0.335439
1630059096494,-0.08723,0.946537,0.335744
1630059096504,-0.08723,0.9459879999999999,0.336537
1630059096514,-0.087962,0.945439,0.337391
1630059096523,-0.087718,0.945866,0.336842
1630059096533,-0.08680299999999999,0.948367,0.335683
1630059096542,-0.087291,0.947086,0.334646
1630059096552,-0.087718,0.945622,0.334524
1630059096562,-0.08723,0.946232,0.33427999999999997
1630059096571,-0.08790099999999999,0.9475129999999999,0.333914
1630059096581,-0.088877,0.9447679999999999,0.334768
1630059096590,-0.088694,0.944219,0.334219
1630059096600,-0.088755,0.945439,0.333792
1630059096610,-0.088633,0.94733,0.333304
1630059096619,-0.087535,0.947391,0.334524
1630059096629,-0.088145,0.945744,0.335683
1630059096638,-0.088694,0.946049,0.336415
1630059096648,-0.088694,0.945134,0.337086
1630059096658,-0.088084,0.945012,0.33733
1630059096667,-0.089548,0.945317,0.338062
1630059096677,-0.090036,0.946354,0.339282
1630059096686,-0.090463,0.946964,0.338672
1630059096696,-0.09204899999999999,0.948306,0.338001
1630059096706,-0.091012,0.948489,0.337086
1630059096715,-0.091927,0.948184,0.336293
1630059096725,-0.093818,0.94916,0.335256
1630059096734,-0.093574,0.948794,0.334646
1630059096744,-0.092537,0.9478179999999999,0.33458499999999997
1630059096754,-0.091683,0.949099,0.33488999999999997
1630059096763,-0.092293,0.9484279999999999,0.334524
1630059096773,-0.092476,0.9465979999999999,0.334402
1630059096782,-0.09333,0.9475129999999999,0.333243
1630059096792,-0.092476,0.948611,0.331047
1630059096802,-0.092598,0.9496479999999999,0.330803
1630059096811,-0.09174399999999999,0.948916,0.330559
1630059096821,-0.09113399999999999,0.94855,0.330254
1630059096830,-0.091622,0.947086,0.331169
1630059096840,-0.090951,0.9462929999999999,0.331169
1630059096850,-0.08942599999999999,0.9455,0.331291
1630059096859,-0.089365,0.945805,0.33183999999999997
1630059096869,-0.089975,0.9450729999999999,0.331779
1630059096878,-0.089365,0.946659,0.331718
1630059096888,-0.089487,0.946781,0.332511
1630059096898,-0.08942599999999999,0.9459879999999999,0.333914
1630059096907,-0.090158,0.9459879999999999,0.334036
1630059096917,-0.090585,0.9472079999999999,0.334402
1630059096926,-0.08967,0.947879,0.334036
1630059096936,-0.090707,0.9481229999999999,0.334036
1630059096946,-0.09174399999999999,0.9472079999999999,0.333914
1630059096955,-0.090951,0.946781,0.333243
1630059096965,-0.09113399999999999,0.9478179999999999,0.332877
1630059096974,-0.091683,0.948001,0.332389
1630059096984,-0.091378,0.947635,0.331596
1630059096994,-0.092598,0.947269,0.332084
1630059097003,-0.093086,0.947757,0.331718
1630059097013,-0.093696,0.947269,0.332206
1630059097022,-0.092964,0.94794,0.332023
1630059097032,-0.092964,0.948184,0.33397499999999997
1630059097042,-0.09235399999999999,0.947452,0.333609
1630059097051,-0.091866,0.9465979999999999,0.333182
1630059097061,-0.092232,0.948306,0.333243
1630059097070,-0.092476,0.9472079999999999,0.333121
1630059097080,-0.092598,0.946537,0.333243
1630059097090,-0.092903,0.947391,0.332572
1630059097099,-0.09272,0.946476,0.33214499999999997
1630059097109,-0.093513,0.9453779999999999,0.332938
1630059097118,-0.092232,0.946537,0.333487
1630059097128,-0.091866,0.945256,0.334829
1630059097138,-0.092842,0.944524,0.334341
1630059097147,-0.093086,0.944524,0.336171
1630059097157,-0.093147,0.946659,0.335744
1630059097166,-0.092903,0.948184,0.335744
1630059097176,-0.093086,0.949587,0.3355
1630059097186,-0.093635,0.949892,0.334219
1630059097195,-0.094855,0.949465,0.334036
1630059097205,-0.09436699999999999,0.949709,0.334097
1630059097214,-0.095038,0.94611,0.333426
1630059097224,-0.09497699999999999,0.945195,0.334402
1630059097234,-0.094611,0.946842,0.332572
1630059097243,-0.093696,0.948611,0.330986
1630059097253,-0.09577,0.946232,0.33000999999999997
1630059097262,-0.095343,0.945195,0.329217
1630059097272,-0.095099,0.9450729999999999,0.329522
1630059097282,-0.096136,0.943487,0.330559
1630059097291,-0.095831,0.9429379999999999,0.331169
1630059097301,-0.095465,0.9450729999999999,0.332206
1630059097310,-0.095709,0.947574,0.33122999999999997
1630059097320,-0.095526,0.948794,0.332633
1630059097330,-0.096258,0.948184,0.334463
1630059097339,-0.096197,0.9478179999999999,0.335622
1630059097349,-0.096197,0.9475129999999999,0.336659
1630059097358,-0.095099,0.9478179999999999,0.33855
1630059097368,-0.095343,0.946415,0.338794
1630059097378,-0.09589199999999999,0.946232,0.338184
1630059097387,-0.095953,0.9469029999999999,0.337818
1630059097397,-0.096319,0.945439,0.336781
1630059097406,-0.095343,0.94672,0.336537
1630059097416,-0.095404,0.948062,0.336293
1630059097426,-0.094916,0.947452,0.335195
1630059097435,-0.09589199999999999,0.94672,0.334463
1630059097445,-0.096502,0.9459879999999999,0.334951
1630059097454,-0.096014,0.946476,0.336049
1630059097464,-0.095221,0.947391,0.33672
1630059097474,-0.09516,0.945866,0.337025
1630059097483,-0.096075,0.945622,0.337269
1630059097493,-0.096685,0.947086,0.336171
1630059097502,-0.095953,0.94916,0.333914
1630059097512,-0.095526,0.949099,0.334341
1630059097522,-0.09558699999999999,0.94794,0.332999
1630059097531,-0.09528199999999999,0.945622,0.334036
1630059097541,-0.096014,0.944524,0.33458499999999997
1630059097550,-0.094611,0.944524,0.33427999999999997
1630059097560,-0.09516,0.944829,0.334463
1630059097570,-0.095038,0.94489,0.334768
1630059097579,-0.093757,0.944646,0.335378
1630059097589,-0.095099,0.9462929999999999,0.335317
1630059097598,-0.094794,0.946781,0.335561
1630059097608,-0.09516,0.947269,0.33672
1630059097618,-0.096197,0.946049,0.336781
1630059097627,-0.096502,0.9456829999999999,0.336293
1630059097637,-0.096868,0.945012,0.33611
1630059097646,-0.096258,0.9450729999999999,0.334829
1630059097656,-0.096624,0.94428,0.334402
1630059097666,-0.096685,0.94428,0.334402
1630059097675,-0.096807,0.945012,0.333914
1630059097685,-0.097539,0.944524,0.333304
1630059097694,-0.09790499999999999,0.945317,0.332694
1630059097704,-0.09759999999999999,0.945256,0.33366999999999997
1630059097714,-0.097844,0.946964,0.334402
1630059097723,-0.098393,0.947086,0.334036
1630059097733,-0.09820999999999999,0.947452,0.334402
1630059097742,-0.097966,0.947269,0.335683
1630059097752,-0.098027,0.94855,0.335195
1630059097762,-0.097234,0.949221,0.335622
1630059097771,-0.097478,0.9487329999999999,0.336354
1630059097781,-0.097661,0.948184,0.335134
1630059097790,-0.097783,0.947696,0.334524
1630059097800,-0.097051,0.947574,0.334158
1630059097810,-0.096197,0.947452,0.334036
1630059097819,-0.095831,0.9459879999999999,0.334402
1630059097829,-0.095831,0.945744,0.335195
1630059097838,-0.095831,0.945256,0.335622
1630059097848,-0.09558699999999999,0.9453779999999999,0.335256
1630059097858,-0.096014,0.9447679999999999,0.334524
1630059097867,-0.096075,0.9456829999999999,0.333182
1630059097877,-0.09577,0.9465979999999999,0.333182
1630059097886,-0.095099,0.9478179999999999,0.332328
1630059097896,-0.095831,0.948611,0.332694
1630059097906,-0.09589199999999999,0.948794,0.331962
1630059097915,-0.095648,0.947452,0.330742
1630059097925,-0.096624,0.943731,0.330986
1630059097934,-0.095526,0.944341,0.33122999999999997
1630059097944,-0.095648,0.9469029999999999,0.330071
1630059097954,-0.09638,0.945561,0.329888
1630059097963,-0.09577,0.946232,0.329156
1630059097973,-0.095831,0.9487329999999999,0.330071
1630059097982,-0.096319,0.948794,0.332816
1630059097992,-0.09589199999999999,0.948184,0.334829
1630059098002,-0.096868,0.948916,0.33427999999999997
1630059098011,-0.095526,0.94977,0.33305999999999997
1630059098021,-0.096258,0.948672,0.331596
1630059098030,-0.095343,0.948184,0.330803
1630059098040,-0.095465,0.948062,0.332267
1630059098050,-0.096441,0.945622,0.332572
1630059098059,-0.095709,0.945134,0.333609
1630059098069,-0.093757,0.944585,0.33488999999999997
1630059098078,-0.093269,0.9444629999999999,0.335378
1630059098088,-0.092476,0.944707,0.335134
1630059098098,-0.094428,0.945256,0.335378
1630059098107,-0.093818,0.94611,0.335622
1630059098117,-0.09467199999999999,0.9481229999999999,0.335195
1630059098126,-0.095465,0.94916,0.335439
1630059098136,-0.097051,0.948855,0.335317
1630059098146,-0.097234,0.949099,0.333731
1630059098155,-0.098454,0.949831,0.333182
1630059098165,-0.097173,0.949892,0.332389
1630059098174,-0.09759999999999999,0.94855,0.33153499999999997
1630059098184,-0.098088,0.948611,0.331352
1630059098194,-0.099003,0.949465,0.327997
1630059098203,-0.098698,0.949709,0.325008
1630059098213,-0.099491,0.949099,0.324703
1630059098222,-0.098698,0.948306,0.322202
1630059098232,-0.098576,0.946659,0.322446
1630059098242,-0.099003,0.944036,0.324215
1630059098251,-0.097539,0.944524,0.32574
1630059098261,-0.096197,0.945805,0.325496
1630059098270,-0.096014,0.946537,0.326655
1630059098280,-0.096929,0.947879,0.326533
1630059098290,-0.09759999999999999,0.9487329999999999,0.32757
1630059098299,-0.098454,0.950014,0.32817999999999997
1630059098309,-0.097173,0.949282,0.327509
1630059098318,-0.098332,0.94855,0.327143
1630059098328,-0.098149,0.946842,0.327265
1630059098338,-0.09759999999999999,0.947086,0.326655
1630059098347,-0.09759999999999999,0.94855,0.326228
1630059098357,-0.097417,0.95038,0.325984
1630059098366,-0.097356,0.94977,0.326167
1630059098376,-0.098881,0.95038,0.325984
1630059098386,-0.098149,0.94977,0.326228
1630059098395,-0.09820999999999999,0.949831,0.32635
1630059098405,-0.098698,0.950624,0.326106
1630059098414,-0.09943,0.950136,0.326716
1630059098424,-0.099186,0.950197,0.326899
1630059098434,-0.09943,0.951966,0.328546
1630059098443,-0.099674,0.9526979999999999,0.328302
1630059098453,-0.100406,0.9499529999999999,0.328302
1630059098462,-0.099369,0.949709,0.32696
1630059098472,-0.099247,0.9493429999999999,0.326594
1630059098482,-0.098027,0.948672,0.327387
1630059098491,-0.099064,0.947452,0.326777
1630059098501,-0.097966,0.946842,0.326838
1630059098510,-0.097783,0.946659,0.327326
1630059098520,-0.097966,0.947269,0.326899
1630059098530,-0.09759999999999999,0.9475129999999999,0.32635
1630059098539,-0.097539,0.947025,0.325496
1630059098549,-0.097356,0.948245,0.325008
1630059098558,-0.09790499999999999,0.948367,0.325618
1630059098568,-0.09881999999999999,0.9490379999999999,0.325862
1630059098578,-0.09851499999999999,0.948855,0.323849
1630059098587,-0.10004,0.946232,0.32226299999999997
1630059098597,-0.09820999999999999,0.945134,0.323849
1630059098606,-0.099552,0.948672,0.322141
1630059098616,-0.100101,0.949282,0.323605
1630059098626,-0.10004,0.947025,0.323056
1630059098635,-0.099735,0.95038,0.323544
1630059098645,-0.099186,0.95221,0.32635
1630059098654,-0.100162,0.951966,0.326106
1630059098664,-0.100284,0.9516,0.326838
1630059098674,-0.098759,0.951051,0.326045
1630059098683,-0.098576,0.95099,0.325069
1630059098693,-0.098576,0.950624,0.325069
1630059098702,-0.099674,0.949099,0.323727
1630059098712,-0.099552,0.947086,0.324032
1630059098722,-0.099186,0.947086,0.323666
1630059098731,-0.098942,0.946537,0.324154
1630059098741,-0.09991799999999999,0.946964,0.325008
1630059098750,-0.099674,0.9493429999999999,0.325862
1630059098760,-0.099125,0.949892,0.326411
1630059098770,-0.099613,0.94977,0.326045
1630059098779,-0.101016,0.951112,0.324642
1630059098789,-0.100894,0.9511729999999999,0.323727
1630059098798,-0.10144299999999999,0.950319,0.323239
1630059098808,-0.10113799999999999,0.9505629999999999,0.323422
1630059098818,-0.101504,0.9514779999999999,0.32269
1630059098827,-0.101809,0.951966,0.32269
1630059098837,-0.100894,0.951417,0.322629
1630059098846,-0.101016,0.950746,0.32287299999999997
1630059098856,-0.10083299999999999,0.951234,0.324642
1630059098866,-0.099979,0.951661,0.321592
1630059098875,-0.100101,0.950929,0.319396
1630059098885,-0.100345,0.950502,0.320616
1630059098894,-0.100711,0.949099,0.318542
1630059098904,-0.10052799999999999,0.94611,0.319945
1630059098914,-0.099796,0.945317,0.320677
1630059098923,-0.098271,0.947635,0.321897
1630059098933,-0.097661,0.947696,0.32147
1630059098942,-0.097173,0.948062,0.322995
1630059098952,-0.09820999999999999,0.9496479999999999,0.32452
1630059098962,-0.098698,0.950319,0.324886
1630059098971,-0.098027,0.95038,0.325679
1630059098981,-0.098027,0.9502579999999999,0.326167
1630059098990,-0.097234,0.9502579999999999,0.325984
1630059099000,-0.097661,0.95099,0.326228
1630059099010,-0.097173,0.95038,0.32696
1630059099019,-0.097234,0.950197,0.32635
1630059099029,-0.097966,0.950014,0.325313
1630059099038,-0.096746,0.950136,0.325008
1630059099048,-0.09759999999999999,0.94855,0.323544
1630059099058,-0.097844,0.9493429999999999,0.324276
1630059099067,-0.097966,0.9496479999999999,0.324947
1630059099077,-0.098393,0.950197,0.324764
1630059099086,-0.09881999999999999,0.949831,0.324947
1630059099096,-0.098698,0.949404,0.325313
1630059099106,-0.098027,0.948977,0.325496
1630059099115,-0.098454,0.949587,0.325435
1630059099125,-0.098149,0.949404,0.325557
1630059099134,-0.09820999999999999,0.948367,0.325496
1630059099144,-0.09759999999999999,0.9496479999999999,0.325862
1630059099154,-0.098332,0.948001,0.325984
1630059099163,-0.097417,0.946659,0.326594
1630059099173,-0.097051,0.9478179999999999,0.327204
1630059099182,-0.097112,0.948611,0.327082
1630059099192,-0.097966,0.948489,0.327082
1630059099202,-0.097112,0.9490379999999999,0.326106
1630059099211,-0.098271,0.950319,0.325435
1630059099221,-0.09851499999999999,0.950685,0.324825
1630059099230,-0.097783,0.9514779999999999,0.324825
1630059099240,-0.09881999999999999,0.951295,0.325008
1630059099250,-0.098027,0.9493429999999999,0.324093
1630059099259,-0.099064,0.948001,0.323849
1630059099269,-0.097966,0.948672,0.32256799999999997
1630059099278,-0.097661,0.949892,0.320921
1630059099288,-0.098027,0.948367,0.321226
1630059099298,-0.098149,0.948184,0.32147
1630059099307,-0.097844,0.950197,0.32208
1630059099317,-0.09851499999999999,0.951112,0.323178
1630059099326,-0.099064,0.949282,0.324947
1630059099336,-0.098454,0.951356,0.326472
1630059099346,-0.097722,0.951905,0.325008
1630059099355,-0.09790499999999999,0.9516,0.323239
1630059099365,-0.09820999999999999,0.950197,0.323788
1630059099374,-0.098454,0.948977,0.323605
1630059099384,-0.098088,0.94916,0.323361
1630059099394,-0.09790499999999999,0.9496479999999999,0.324459
1630059099403,-0.096868,0.948062,0.326594
1630059099413,-0.095709,0.947696,0.328119
1630059099422,-0.09558699999999999,0.9472079999999999,0.32878999999999997
1630059099432,-0.095648,0.948672,0.328241
1630059099442,-0.096807,0.950014,0.326716
1630059099451,-0.097112,0.951295,0.325862
1630059099461,-0.098576,0.952454,0.325923
1630059099470,-0.099247,0.951844,0.324642
1630059099480,-0.09881999999999999,0.951356,0.324764
1630059099490,-0.09820999999999999,0.952454,0.324337
1630059099499,-0.09820999999999999,0.951295,0.325252
1630059099509,-0.09759999999999999,0.9508679999999999,0.324947
1630059099518,-0.097234,0.949099,0.324154
1630059099528,-0.096502,0.949099,0.325435
1630059099538,-0.096685,0.949587,0.323727
1630059099547,-0.097478,0.95099,0.321226
1630059099557,-0.097966,0.9508679999999999,0.32195799999999997
1630059099566,-0.098271,0.950929,0.32012799999999997
1630059099576,-0.097722,0.947574,0.321714
1630059099586,-0.097417,0.947147,0.322751
1630059099595,-0.09516,0.949221,0.325191
1630059099605,-0.094123,0.9496479999999999,0.324276
1630059099614,-0.094245,0.949282,0.32574
1630059099624,-0.094855,0.9493429999999999,0.325252
1630059099634,-0.094916,0.94916,0.325374
1630059099643,-0.094794,0.9496479999999999,0.32513
1630059099653,-0.09558699999999999,0.950319,0.325618
1630059099662,-0.095038,0.9520879999999999,0.325069
1630059099672,-0.095404,0.950441,0.32452
1630059099682,-0.09558699999999999,0.950014,0.324276
1630059099691,-0.095709,0.950014,0.323971
1630059099701,-0.096258,0.949282,0.324093
1630059099710,-0.096075,0.95038,0.32513
1630059099720,-0.095038,0.950319,0.324276
1630059099730,-0.09497699999999999,0.9496479999999999,0.323605
1630059099739,-0.096502,0.949404,0.323056
1630059099749,-0.09638,0.9520879999999999,0.323544
1630059099758,-0.09638,0.952454,0.322934
1630059099768,-0.097051,0.9511729999999999,0.322812
1630059099778,-0.096258,0.9505629999999999,0.323971
1630059099787,-0.095709,0.950441,0.32391
1630059099797,-0.096197,0.950441,0.323849
1630059099806,-0.096197,0.9502579999999999,0.322934
1630059099816,-0.096258,0.950319,0.322019
1630059099826,-0.097173,0.949709,0.321714
1630059099835,-0.097234,0.94977,0.320616
1630059099845,-0.096746,0.949404,0.321226
1630059099854,-0.09516,0.948672,0.32104299999999997
1630059099864,-0.09589199999999999,0.947574,0.321104
1630059099874,-0.095831,0.948184,0.32269
1630059099883,-0.095831,0.950197,0.323361
1630059099893,-0.095526,0.95099,0.323178
1630059099902,-0.095404,0.95099,0.323361
1630059099912,-0.096136,0.952027,0.323361
1630059099922,-0.096807,0.952271,0.322446
1630059099931,-0.09577,0.953552,0.32269
1630059099941,-0.09558699999999999,0.953491,0.322202
1630059099950,-0.096197,0.9508679999999999,0.321287
1630059099960,-0.096441,0.95099,0.321592
1630059099970,-0.09558699999999999,0.949404,0.321226
1630059099979,-0.09638,0.953186,0.31921299999999997
1630059099989,-0.096502,0.950014,0.318786
1630059099998,-0.096807,0.949709,0.317017
1630059100008,-0.097417,0.951051,0.31738299999999997
1630059100018,-0.096258,0.953064,0.318969
1630059100027,-0.096502,0.950136,0.320616
1630059100037,-0.096624,0.9502579999999999,0.320982
1630059100046,-0.096014,0.9517829999999999,0.321775
1630059100056,-0.09577,0.950441,0.321592
1630059100066,-0.095221,0.951051,0.322141
1630059100075,-0.095343,0.9508679999999999,0.323239
1630059100085,-0.096441,0.9499529999999999,0.322385
1630059100094,-0.095648,0.950136,0.32391
1630059100104,-0.094794,0.949404,0.324825
1630059100114,-0.09528199999999999,0.9493429999999999,0.326411
1630059100123,-0.095038,0.949709,0.326106
1630059100133,-0.095526,0.9508679999999999,0.324764
1630059100142,-0.096868,0.951661,0.323544
1630059100152,-0.096807,0.9516,0.323239
1630059100162,-0.098332,0.9520879999999999,0.32226299999999997
1630059100171,-0.097966,0.950685,0.32165299999999997
1630059100181,-0.098332,0.950319,0.32208
1630059100190,-0.09820999999999999,0.95099,0.320616
1630059100200,-0.09851499999999999,0.950441,0.321104
1630059100210,-0.098637,0.949282,0.320067
1630059100219,-0.098942,0.948062,0.319152
1630059100229,-0.098576,0.9481229999999999,0.320494
1630059100238,-0.099125,0.950746,0.320006
1630059100248,-0.09943,0.951966,0.316346
1630059100258,-0.099308,0.952332,0.317444
1630059100267,-0.097661,0.9505629999999999,0.31781
1630059100277,-0.097478,0.950624,0.31982299999999997
1630059100286,-0.096624,0.949709,0.32165299999999997
1630059100296,-0.096136,0.949221,0.320799
1630059100306,-0.095709,0.9505629999999999,0.32147
1630059100315,-0.09589199999999999,0.951234,0.321836
1630059100325,-0.09638,0.9516,0.321226
1630059100334,-0.096075,0.951234,0.32208
1630059100344,-0.096502,0.951356,0.3233
1630059100354,-0.09577,0.95282,0.32269
1630059100363,-0.096441,0.9517829999999999,0.322629
1630059100373,-0.09759999999999999,0.951295,0.322995
1630059100382,-0.096746,0.950746,0.322812
1630059100392,-0.097478,0.950685,0.321897
1630059100402,-0.09820999999999999,0.950441,0.321165
1630059100411,-0.09790499999999999,0.951051,0.32043299999999997
1630059100421,-0.097966,0.952515,0.320677
1630059100430,-0.09881999999999999,0.9517829999999999,0.320067
1630059100440,-0.097478,0.950807,0.320555
1630059100450,-0.099186,0.950685,0.320189
1630059100459,-0.09851499999999999,0.951295,0.320311
1630059100469,-0.099064,0.950014,0.320494
1630059100478,-0.099735,0.951112,0.320799
1630059100488,-0.099003,0.9514779999999999,0.319884
1630059100498,-0.100101,0.9496479999999999,0.32043299999999997
1630059100507,-0.099613,0.9508679999999999,0.32104299999999997
1630059100517,-0.099857,0.9502579999999999,0.32043299999999997
1630059100526,-0.099674,0.949892,0.31860299999999997
1630059100536,-0.098698,0.94916,0.319152
1630059100546,-0.098698,0.950136,0.32012799999999997
1630059100555,-0.099369,0.95099,0.320006
1630059100565,-0.09881999999999999,0.950075,0.32025
1630059100574,-0.098088,0.950319,0.321287
1630059100584,-0.098332,0.949404,0.32165299999999997
1630059100594,-0.098942,0.94977,0.322141
1630059100603,-0.098088,0.950075,0.322812
1630059100613,-0.097661,0.950502,0.322751
1630059100622,-0.09759999999999999,0.951844,0.323178
1630059100632,-0.097478,0.950685,0.323178
1630059100642,-0.098698,0.94977,0.321897
1630059100651,-0.09851499999999999,0.951051,0.323666
1630059100661,-0.09851499999999999,0.9516,0.323239
1630059100670,-0.098881,0.950746,0.322629
1630059100680,-0.097783,0.9511729999999999,0.324276
1630059100690,-0.098576,0.950197,0.323361
1630059100699,-0.099003,0.949465,0.324215
1630059100709,-0.099613,0.948977,0.32452
1630059100718,-0.099796,0.94977,0.323178
1630059100728,-0.10004,0.9514779999999999,0.323239
1630059100738,-0.100955,0.952576,0.321897
1630059100747,-0.10113799999999999,0.953674,0.321897
1630059100757,-0.10126,0.953735,0.322019
1630059100766,-0.100894,0.952149,0.320982
1630059100776,-0.100894,0.951722,0.321104
1630059100786,-0.100955,0.9505629999999999,0.321775
1630059100795,-0.099796,0.952515,0.320677
1630059100805,-0.099857,0.951966,0.32012799999999997
1630059100814,-0.099613,0.9508679999999999,0.317749
1630059100824,-0.098576,0.951234,0.31860299999999997
1630059100834,-0.099064,0.952027,0.318847
1630059100843,-0.099857,0.9496479999999999,0.319274
1630059100853,-0.098637,0.947879,0.32043299999999997
1630059100862,-0.099186,0.9487329999999999,0.320494
1630059100872,-0.099552,0.9502579999999999,0.319701
1630059100882,-0.099247,0.9508679999999999,0.320006
1630059100891,-0.09991799999999999,0.950014,0.320067
1630059100901,-0.099552,0.9505629999999999,0.320982
1630059100910,-0.099613,0.9496479999999999,0.322202
1630059100920,-0.099491,0.94977,0.323178
1630059100930,-0.099857,0.948001,0.323605
1630059100939,-0.099491,0.948306,0.324642
1630059100949,-0.099308,0.9502579999999999,0.323788
1630059100958,-0.099003,0.95221,0.323849
1630059100968,-0.099247,0.952027,0.323117
1630059100978,-0.100345,0.950685,0.32195799999999997
1630059100987,-0.101382,0.9508679999999999,0.322202
1630059100997,-0.102114,0.950807,0.320921
1630059101006,-0.102175,0.949892,0.32025
1630059101016,-0.101931,0.951356,0.318786
1630059101026,-0.103212,0.9516,0.318725
1630059101035,-0.102541,0.9516,0.31921299999999997
1630059101045,-0.103029,0.949892,0.319152
1630059101054,-0.102724,0.949709,0.31951799999999997
1630059101064,-0.102297,0.9517829999999999,0.316956
1630059101074,-0.10187,0.954406,0.316346
1630059101083,-0.103029,0.954406,0.31659
1630059101093,-0.103029,0.952942,0.315187
1630059101102,-0.102602,0.951051,0.31659
1630059101112,-0.100162,0.950197,0.31951799999999997
1630059101122,-0.10022299999999999,0.949587,0.319335
1630059101131,-0.100589,0.95099,0.31964
1630059101141,-0.099552,0.951295,0.319457
1630059101150,-0.09943,0.951234,0.318542
1630059101160,-0.099979,0.951356,0.31842
1630059101170,-0.099308,0.951661,0.31860299999999997
1630059101179,-0.100101,0.951356,0.318542
1630059101189,-0.099491,0.950746,0.318359
1630059101198,-0.10065,0.950502,0.318481
1630059101208,-0.100101,0.951051,0.318176
1630059101218,-0.101077,0.9502579999999999,0.317444
1630059101227,-0.100406,0.949892,0.3172
1630059101237,-0.10174799999999999,0.9493429999999999,0.317932
1630059101246,-0.101565,0.951051,0.317627
1630059101256,-0.102297,0.951234,0.318481
1630059101266,-0.103212,0.9514779999999999,0.318481
1630059101275,-0.10376099999999999,0.952576,0.317932
1630059101285,-0.103944,0.953125,0.31860299999999997
1630059101294,-0.103212,0.952942,0.31982299999999997
1630059101304,-0.1037,0.953247,0.31982299999999997
1630059101314,-0.103578,0.9536129999999999,0.320311
1630059101323,-0.10309,0.952149,0.318481
1630059101333,-0.104188,0.951112,0.317627
1630059101342,-0.1037,0.950807,0.31707799999999997
1630059101352,-0.104005,0.950197,0.316651
1630059101362,-0.1037,0.948306,0.316834
1630059101371,-0.103822,0.948916,0.31646799999999997
1630059101381,-0.104432,0.947757,0.316956
1630059101390,-0.104188,0.947635,0.317749
1630059101400,-0.103822,0.948855,0.317566
1630059101410,-0.105713,0.9493429999999999,0.31799299999999997
1630059101419,-0.105042,0.9496479999999999,0.318664
1630059101429,-0.105164,0.9514779999999999,0.31964
1630059101438,-0.105164,0.9505629999999999,0.319701
1630059101448,-0.105042,0.951295,0.320799
1630059101458,-0.105225,0.95282,0.321104
1630059101467,-0.10498099999999999,0.9526979999999999,0.32269
1630059101477,-0.104615,0.953186,0.322812
1630059101486,-0.103883,0.952332,0.32147
1630059101496,-0.103517,0.952515,0.322019
1630059101506,-0.104249,0.951966,0.321165
1630059101515,-0.10376099999999999,0.951722,0.32134799999999997
1630059101525,-0.103883,0.951051,0.320921
1630059101534,-0.10309,0.9516,0.32043299999999997
1630059101544,-0.10431,0.950502,0.320067
1630059101554,-0.104127,0.950441,0.32012799999999997
1630059101563,-0.103639,0.950197,0.320006
1630059101573,-0.104432,0.95038,0.319274
1630059101582,-0.10376099999999999,0.950197,0.319579
1630059101592,-0.10467599999999999,0.951112,0.31890799999999997
1630059101602,-0.105164,0.9490379999999999,0.320006
1630059101611,-0.103822,0.948916,0.31951799999999997
1630059101621,-0.10406599999999999,0.949282,0.320555
1630059101630,-0.103883,0.94855,0.320616
1630059101640,-0.10406599999999999,0.948611,0.320555
1630059101650,-0.104249,0.949587,0.32195799999999997
1630059101659,-0.104859,0.949709,0.320189
1630059101669,-0.105713,0.9514779999999999,0.319152
1630059101678,-0.105469,0.9523929999999999,0.31890799999999997
1630059101688,-0.105469,0.952454,0.31860299999999997
1630059101698,-0.10614,0.952637,0.317749
1630059101707,-0.105713,0.950624,0.317627
1630059101717,-0.10699399999999999,0.950014,0.31738299999999997
1630059101726,-0.106506,0.9520879999999999,0.318054
1630059101736,-0.10699399999999999,0.9533079999999999,0.317261
1630059101746,-0.106323,0.9499529999999999,0.316041
1630059101755,-0.106445,0.949892,0.31537
1630059101765,-0.10614,0.950136,0.315309
1630059101774,-0.107238,0.948306,0.316834
1630059101784,-0.10736,0.948184,0.318969
1630059101794,-0.107055,0.95038,0.32012799999999997
1630059101803,-0.105957,0.951661,0.32012799999999997
1630059101813,-0.10699399999999999,0.95038,0.318176
1630059101822,-0.10614,0.950014,0.318542
1630059101832,-0.10736,0.950441,0.31860299999999997
1630059101842,-0.10607899999999999,0.949404,0.32073799999999997
1630059101851,-0.106445,0.9496479999999999,0.32208
1630059101861,-0.10675,0.949099,0.32269
1630059101870,-0.107726,0.950014,0.32134799999999997
1630059101880,-0.106567,0.9514779999999999,0.322934
1630059101890,-0.108275,0.950014,0.322019
1630059101899,-0.108092,0.950502,0.321226
1630059101909,-0.108458,0.952515,0.32165299999999997
1630059101918,-0.108763,0.952515,0.320555
1630059101928,-0.108763,0.952881,0.320616
1630059101938,-0.110471,0.951966,0.31921299999999997
1630059101947,-0.10961699999999999,0.951661,0.31860299999999997
1630059101957,-0.108946,0.9516,0.318786
1630059101966,-0.10992199999999999,0.9514779999999999,0.316956
1630059101976,-0.109556,0.95099,0.31738299999999997
1630059101986,-0.108885,0.950014,0.317505
1630059101995,-0.10931199999999999,0.950502,0.31616299999999997
1630059102005,-0.10900699999999999,0.951112,0.313296
1630059102014,-0.108641,0.9517829999999999,0.313967
1630059102024,-0.10900699999999999,0.950502,0.312442
1630059102034,-0.109495,0.949892,0.312869
1630059102043,-0.109739,0.948367,0.313662
1630059102053,-0.10900699999999999,0.9496479999999999,0.314089
1630059102062,-0.107726,0.950197,0.315614
1630059102072,-0.107055,0.950624,0.31585799999999997
1630059102082,-0.10790899999999999,0.9511729999999999,0.315004
1630059102091,-0.108519,0.952454,0.315736
1630059102101,-0.107787,0.951905,0.31646799999999997
1630059102110,-0.108702,0.952149,0.31677299999999997
1630059102120,-0.10858,0.950685,0.31585799999999997
1630059102130,-0.10919,0.95099,0.315553
1630059102139,-0.109434,0.949587,0.314272
1630059102149,-0.109678,0.950502,0.313967
1630059102158,-0.10919,0.9508679999999999,0.313967
1630059102168,-0.109556,0.951234,0.314272
1630059102178,-0.109373,0.951661,0.313723
1630059102187,-0.10961699999999999,0.950624,0.313906
1630059102197,-0.110898,0.9516,0.313113
1630059102206,-0.111874,0.952027,0.313174
1630059102216,-0.11163,0.951417,0.313662
1630059102226,-0.111752,0.951905,0.313967
1630059102235,-0.111752,0.952759,0.314333
1630059102245,-0.11193499999999999,0.951844,0.313418
1630059102254,-0.112118,0.952332,0.313906
1630059102264,-0.112057,0.951844,0.313967
1630059102274,-0.112118,0.95221,0.313845
1630059102283,-0.111691,0.952637,0.313235
1630059102293,-0.112911,0.95099,0.312625
1630059102302,-0.112728,0.951234,0.311771
1630059102312,-0.112423,0.9523929999999999,0.312686
1630059102322,-0.112362,0.9520879999999999,0.312503
1630059102331,-0.111813,0.953186,0.312747
1630059102341,-0.111264,0.952454,0.313479
1630059102350,-0.111325,0.951417,0.31232
1630059102360,-0.112301,0.951844,0.312259
1630059102370,-0.111569,0.951966,0.31232
1630059102379,-0.112423,0.951356,0.310856
1630059102389,-0.111813,0.9508679999999999,0.311893
1630059102398,-0.11114199999999999,0.950685,0.312625
1630059102408,-0.111325,0.9502579999999999,0.312686
1630059102418,-0.111264,0.950502,0.313113
1630059102427,-0.11193499999999999,0.951356,0.312869
1630059102437,-0.111813,0.950136,0.313113
1630059102446,-0.112667,0.950807,0.314211
1630059102456,-0.112423,0.951661,0.31415
1630059102466,-0.11254499999999999,0.9520879999999999,0.313418
1630059102475,-0.110715,0.954284,0.313052
1630059102485,-0.110776,0.954406,0.313723
1630059102494,-0.111508,0.953552,0.313174
1630059102504,-0.111691,0.952942,0.311649
1630059102514,-0.110959,0.950746,0.31024599999999997
1630059102523,-0.110959,0.947574,0.311527
1630059102533,-0.111081,0.949526,0.3111
1630059102542,-0.111996,0.949709,0.31055099999999997
1630059102552,-0.112362,0.949465,0.309697
1630059102562,-0.111325,0.950624,0.310002
1630059102571,-0.111081,0.9526979999999999,0.312686
1630059102581,-0.11163,0.9526979999999999,0.313418
1630059102590,-0.112301,0.9526979999999999,0.31476
1630059102600,-0.111264,0.95465,0.315004
1630059102610,-0.11041,0.955077,0.315004
1630059102619,-0.110166,0.9536129999999999,0.31415
1630059102629,-0.10961699999999999,0.952637,0.315065
1630059102638,-0.110105,0.950807,0.315675
1630059102648,-0.10900699999999999,0.949892,0.316834
1630059102658,-0.108885,0.950136,0.31768799999999997
1630059102667,-0.108336,0.9496479999999999,0.318054
1630059102677,-0.108031,0.950502,0.318542
1630059102686,-0.108092,0.950502,0.317932
1630059102696,-0.107665,0.95099,0.319152
1630059102706,-0.107238,0.951051,0.31964
1630059102715,-0.108519,0.950929,0.318237
1630059102725,-0.108946,0.950197,0.31781
1630059102734,-0.108458,0.950136,0.31768799999999997
1630059102744,-0.109434,0.95099,0.31677299999999997
1630059102754,-0.10961699999999999,0.952332,0.315431
1630059102763,-0.109495,0.952332,0.316834
1630059102773,-0.109434,0.952332,0.31646799999999997
1630059102782,-0.10919,0.952271,0.31646799999999997
1630059102792,-0.109678,0.952149,0.316102
1630059102802,-0.10931199999999999,0.9536129999999999,0.314272
1630059102811,-0.1098,0.954101,0.312015
1630059102821,-0.110654,0.953735,0.312503
1630059102830,-0.110105,0.951112,0.31232
1630059102840,-0.110166,0.949892,0.313357
1630059102850,-0.1098,0.9490379999999999,0.312686
1630059102859,-0.108092,0.9508679999999999,0.314577
1630059102869,-0.107055,0.952576,0.315492
1630059102878,-0.107238,0.952759,0.315187
1630059102888,-0.10790899999999999,0.95221,0.314394
1630059102898,-0.108763,0.9517829999999999,0.313967
1630059102907,-0.109434,0.95099,0.314943
1630059102917,-0.108397,0.950746,0.314455
1630059102926,-0.108641,0.951234,0.315492
1630059102936,-0.108641,0.9520879999999999,0.315248
1630059102946,-0.107726,0.9505629999999999,0.314943
1630059102955,-0.108885,0.9511729999999999,0.313723
1630059102965,-0.10797,0.9511729999999999,0.313906
1630059102974,-0.108824,0.9505629999999999,0.313113
1630059102984,-0.109434,0.950075,0.31293
1630059102994,-0.109556,0.9508679999999999,0.312076
1630059103003,-0.11041,0.9516,0.312686
1630059103013,-0.110593,0.952759,0.31354
1630059103022,-0.110654,0.952637,0.31415
1630059103032,-0.110166,0.9520879999999999,0.314577
1630059103042,-0.10961699999999999,0.953064,0.31537
1630059103051,-0.108885,0.952576,0.315492
1630059103061,-0.108702,0.952576,0.31537
1630059103070,-0.10900699999999999,0.951844,0.316041
1630059103080,-0.107726,0.951295,0.316285
1630059103090,-0.108336,0.951234,0.31616299999999997
1630059103099,-0.108397,0.952027,0.314821
1630059103109,-0.10900699999999999,0.950624,0.314394
1630059103118,-0.109129,0.949709,0.313662
1630059103128,-0.107848,0.9502579999999999,0.314943
1630059103138,-0.108458,0.9499529999999999,0.31476
1630059103147,-0.108031,0.9499529999999999,0.315736
1630059103157,-0.108031,0.950502,0.316895
1630059103166,-0.107726,0.951051,0.317505
1630059103176,-0.107726,0.951722,0.317749
1630059103186,-0.10797,0.953369,0.317139
1630059103195,-0.10760399999999999,0.953247,0.3172
1630059103205,-0.107116,0.953247,0.316529
1630059103214,-0.108275,0.951966,0.316712
1630059103224,-0.108763,0.952332,0.316285
1630059103234,-0.107848,0.951905,0.314028
1630059103243,-0.108702,0.948794,0.313906
1630059103253,-0.107848,0.949709,0.312747
1630059103262,-0.108214,0.950746,0.312686
1630059103272,-0.108885,0.95038,0.313235
1630059103282,-0.10919,0.949099,0.312625
1630059103291,-0.108885,0.9514779999999999,0.31171
1630059103301,-0.108946,0.9523929999999999,0.311832
1630059103310,-0.110898,0.952881,0.314333
1630059103320,-0.11053199999999999,0.9523929999999999,0.31476
1630059103330,-0.10992199999999999,0.951905,0.315187
1630059103339,-0.108824,0.952149,0.314882
1630059103349,-0.108946,0.952271,0.314394
1630059103358,-0.110044,0.9517829999999999,0.315919
1630059103368,-0.110044,0.951234,0.31585799999999997
1630059103378,-0.109434,0.951722,0.316651
1630059103387,-0.108336,0.951234,0.31768799999999997
1630059103397,-0.108275,0.9502579999999999,0.317566
1630059103406,-0.108458,0.948794,0.31842
1630059103416,-0.108092,0.9484279999999999,0.318237
1630059103426,-0.108275,0.950746,0.317566
1630059103435,-0.109556,0.952149,0.31659
1630059103445,-0.110044,0.951905,0.315919
1630059103454,-0.109983,0.951051,0.315797
1630059103464,-0.11022699999999999,0.951844,0.316834
1630059103474,-0.110166,0.952576,0.316041
1630059103483,-0.11053199999999999,0.952332,0.315248
1630059103493,-0.11102,0.95221,0.315553
1630059103502,-0.11022699999999999,0.95221,0.315492
1630059103512,-0.11102,0.951051,0.315919
1630059103522,-0.11102,0.9508679999999999,0.31659
1630059103531,-0.110959,0.9520879999999999,0.315004
1630059103541,-0.110288,0.9536129999999999,0.313479
1630059103550,-0.110471,0.9526979999999999,0.31293
1630059103560,-0.110654,0.95221,0.31232
1630059103570,-0.11083699999999999,0.94977,0.313723
1630059103579,-0.110288,0.947269,0.313357
1630059103589,-0.10858,0.947391,0.314943
1630059103598,-0.108214,0.9490379999999999,0.315431
1630059103608,-0.108092,0.950929,0.315553
1630059103618,-0.10760399999999999,0.9517829999999999,0.315553
1630059103627,-0.10760399999999999,0.950929,0.31598
1630059103637,-0.108153,0.951356,0.31659
1630059103646,-0.108763,0.952027,0.317322
1630059103656,-0.108885,0.951356,0.318359
1630059103666,-0.10858,0.9502579999999999,0.31659
1630059103675,-0.108275,0.9496479999999999,0.316407
1630059103685,-0.10900699999999999,0.95038,0.316529
1630059103694,-0.108946,0.949465,0.315919
1630059103704,-0.109251,0.9496479999999999,0.315126
1630059103714,-0.109068,0.950075,0.31537
1630059103723,-0.108946,0.9508679999999999,0.315614
1630059103733,-0.109068,0.950929,0.31646799999999997
1630059103742,-0.108763,0.950319,0.31799299999999997
1630059103752,-0.108641,0.950807,0.31964
1630059103762,-0.107116,0.951722,0.321592
1630059103771,-0.10492,0.9516,0.324215
1630059103781,-0.102358,0.95282,0.32574
1630059103790,-0.100284,0.951722,0.328058
1630059103800,-0.098332,0.949465,0.328607
1630059103810,-0.097173,0.948184,0.33031499999999997
1630059103819,-0.096868,0.9490379999999999,0.33000999999999997
1630059103829,-0.096319,0.9487329999999999,0.329217
1630059103838,-0.096868,0.948794,0.329644
1630059103848,-0.097417,0.950502,0.329888
1630059103858,-0.098698,0.951722,0.33000999999999997
1630059103867,-0.099064,0.952027,0.329827
1630059103877,-0.099491,0.951905,0.330254
1630059103886,-0.10065,0.950502,0.33061999999999997
1630059103896,-0.100772,0.95038,0.330498
1630059103906,-0.101687,0.94977,0.327997
1630059103915,-0.101504,0.948672,0.327387
1630059103925,-0.10309,0.948062,0.324581
1630059103934,-0.10376099999999999,0.950014,0.322751
1630059103944,-0.107726,0.9487329999999999,0.32287299999999997
1630059103954,-0.10760399999999999,0.9517829999999999,0.320372
1630059103963,-0.10607899999999999,0.954162,0.320311
1630059103973,-0.10729899999999999,0.958371,0.325191
1630059103982,-0.102663,0.962275,0.330803
1630059103992,-0.107055,0.9566629999999999,0.330681
1630059104002,-0.107055,0.95099,0.330132
1630059104011,-0.104615,0.953735,0.327265
1630059104021,-0.105103,0.955931,0.323727
1630059104030,-0.105957,0.958737,0.31738299999999997
1630059104040,-0.10638399999999999,0.957517,0.319152
1630059104050,-0.10736,0.956175,0.32012799999999997
1630059104059,-0.106201,0.953857,0.324581
1630059104069,-0.103822,0.950624,0.329522
1630059104078,-0.099979,0.95343,0.330071
1630059104088,-0.097112,0.95587,0.329278
1630059104098,-0.096746,0.955809,0.32635
1630059104107,-0.094428,0.954772,0.323544
1630059104117,-0.094123,0.95343,0.318664
1630059104126,-0.093208,0.953979,0.313235
1630059104136,-0.091988,0.9563579999999999,0.306098
1630059104146,-0.092598,0.957761,0.29822899999999997
1630059104155,-0.095343,0.9587979999999999,0.289872
1630059104165,-0.099308,0.961604,0.282369
1630059104174,-0.102419,0.962214,0.276757
1630059104184,-0.104493,0.960872,0.273829
1630059104194,-0.105957,0.9621529999999999,0.268949
1630059104203,-0.105896,0.966728,0.269132
1630059104213,-0.10858,0.963983,0.27083999999999997
1630059104222,-0.1098,0.959774,0.268339
1630059104232,-0.108763,0.960567,0.264801
1630059104242,-0.108763,0.961482,0.261385
1630059104251,-0.110715,0.964471,0.25821299999999997
1630059104261,-0.110959,0.9678869999999999,0.252784
1630059104270,-0.11284999999999999,0.968436,0.245769
1630059104280,-0.113338,0.969046,0.24387799999999998
1630059104290,-0.114009,0.966484,0.23973
1630059104299,-0.114741,0.965264,0.237168
1630059104309,-0.112972,0.961726,0.237595
1630059104318,-0.112911,0.958371,0.242292
1630059104328,-0.1098,0.959042,0.242841
1630059104338,-0.107726,0.960445,0.24448799999999998
1630059104347,-0.10699399999999999,0.961299,0.245281
1630059104357,-0.10699399999999999,0.960384,0.247782
1630059104366,-0.104737,0.962275,0.249673
1630059104376,-0.103639,0.964105,0.253028
1630059104386,-0.103029,0.965813,0.254797
1630059104395,-0.10174799999999999,0.964044,0.260836
1630059104405,-0.099003,0.96075,0.264862
1630059104414,-0.099369,0.963129,0.267363
1630059104424,-0.098942,0.963007,0.270108
1630059104434,-0.098576,0.962275,0.271572
1630059104443,-0.096136,0.964776,0.276513
1630059104453,-0.096197,0.966606,0.278648
1630059104462,-0.096258,0.9663619999999999,0.283711
1630059104472,-0.095831,0.964532,0.287859
1630059104482,-0.093879,0.966301,0.289262
1630059104491,-0.094184,0.968009,0.290848
1630059104501,-0.093574,0.967033,0.2928
1630059104510,-0.093208,0.966301,0.292861
1630059104520,-0.094306,0.96624,0.29273899999999997
1630059104530,-0.094794,0.965508,0.293471
1630059104539,-0.093513,0.964227,0.292922
1630059104549,-0.093147,0.963861,0.29273899999999997
1630059104558,-0.093879,0.961116,0.291336
1630059104568,-0.094245,0.959835,0.288957
1630059104578,-0.093696,0.96014,0.288957
1630059104587,-0.09406199999999999,0.959835,0.288347
1630059104597,-0.09394,0.959652,0.289262
1630059104606,-0.093208,0.960689,0.289994
1630059104616,-0.093757,0.9594079999999999,0.290604
1630059104626,-0.09394,0.959591,0.292495
1630059104635,-0.09235399999999999,0.959591,0.29524
1630059104645,-0.090097,0.961177,0.29524
1630059104654,-0.089548,0.963007,0.295667
1630059104664,-0.088938,0.964349,0.295362
1630059104674,-0.087291,0.964593,0.296216
1630059104683,-0.087596,0.964959,0.29402
1630059104693,-0.088145,0.963617,0.292617
1630059104702,-0.08906,0.962946,0.291336
1630059104712,-0.088999,0.963373,0.289567
1630059104722,-0.08906,0.963312,0.289811
1630059104731,-0.08820599999999999,0.963007,0.288652
1630059104741,-0.087291,0.964349,0.28853
1630059104750,-0.086864,0.965691,0.288103
1630059104760,-0.087413,0.964715,0.28975
1630059104770,-0.085461,0.96563,0.288713
1630059104779,-0.086376,0.964898,0.288164
1630059104789,-0.086681,0.966118,0.287615
1630059104798,-0.085644,0.964898,0.287859
1630059104808,-0.085217,0.963617,0.287127
1630059104818,-0.084668,0.963007,0.288164
1630059104827,-0.084302,0.962824,0.288164
1630059104837,-0.082838,0.964837,0.289201
1630059104846,-0.081435,0.963495,0.290665
1630059104856,-0.08204499999999999,0.964349,0.289079
1630059104866,-0.080886,0.967033,0.288774
1630059104875,-0.080154,0.966911,0.288042
1630059104885,-0.07972699999999999,0.966606,0.286944
1630059104894,-0.079605,0.963678,0.285175
1630059104904,-0.07972699999999999,0.964166,0.284626
1630059104914,-0.078873,0.963068,0.285053
1630059104923,-0.078446,0.963373,0.284138
1630059104933,-0.078568,0.962702,0.28224699999999997
1630059104942,-0.077653,0.960811,0.282186
1630059104952,-0.077653,0.961909,0.282979
1630059104962,-0.07649399999999999,0.962031,0.28426
1630059104971,-0.07625,0.96136,0.285663
1630059104981,-0.076372,0.959774,0.286334
1630059104990,-0.076006,0.962397,0.287005
1630059105000,-0.074908,0.963373,0.287981
1630059105010,-0.075335,0.963617,0.288286
1630059105019,-0.074969,0.963678,0.289811
1630059105029,-0.074908,0.9627629999999999,0.289384
1630059105038,-0.075762,0.96258,0.28975
1630059105048,-0.07564,0.962946,0.289689
1630059105058,-0.076433,0.962702,0.289994
1630059105067,-0.077287,0.96258,0.289384
1630059105077,-0.07808,0.963556,0.28975
1630059105086,-0.080093,0.963312,0.288347
1630059105096,-0.08204499999999999,0.962702,0.287676
1630059105106,-0.084058,0.96197,0.285724
1630059105115,-0.0854,0.961055,0.286883
1630059105125,-0.086864,0.961482,0.287188
1630059105134,-0.086376,0.9594079999999999,0.290726
1630059105144,-0.085766,0.958371,0.29463
1630059105154,-0.082899,0.957639,0.297985
1630059105163,-0.0793,0.957395,0.300913
1630059105173,-0.076738,0.956724,0.301645
1630059105182,-0.073993,0.961116,0.300791
1630059105192,-0.073078,0.964654,0.302438
1630059105202,-0.071492,0.965813,0.301035
1630059105211,-0.072773,0.966301,0.30073
1630059105221,-0.07259,0.965813,0.302072
1630059105230,-0.073322,0.964349,0.304268
1630059105240,-0.07381,0.961787,0.304329
1630059105250,-0.073078,0.960811,0.30561
1630059105259,-0.073139,0.9618479999999999,0.30536599999999997
1630059105269,-0.072651,0.962946,0.30439
1630059105278,-0.072956,0.964532,0.302621
1630059105288,-0.073322,0.9624579999999999,0.299693
1630059105298,-0.073322,0.962275,0.29768
1630059105307,-0.073749,0.960506,0.294752
1630059105317,-0.074298,0.96075,0.292312
1630059105326,-0.07417599999999999,0.960811,0.290787
1630059105336,-0.07417599999999999,0.959652,0.291702
1630059105346,-0.075335,0.95831,0.291824
1630059105355,-0.074847,0.9572729999999999,0.292495
1630059105365,-0.074847,0.956236,0.29524
1630059105374,-0.073383,0.9569679999999999,0.29548399999999997
1630059105384,-0.071675,0.959652,0.296033
1630059105394,-0.070211,0.962702,0.295972
1630059105403,-0.069052,0.964166,0.298168
1630059105413,-0.06740499999999999,0.964044,0.301096
1630059105422,-0.068259,0.961116,0.301645
1630059105432,-0.068137,0.961116,0.302926
1630059105442,-0.068198,0.960262,0.303902
1630059105451,-0.067832,0.959042,0.304085
1630059105461,-0.06649,0.959286,0.30567099999999997
1630059105470,-0.066917,0.96075,0.305427
1630059105480,-0.066063,0.9603229999999999,0.30561
1630059105490,-0.064355,0.960872,0.30567099999999997
1630059105499,-0.064294,0.961299,0.304939
1630059105509,-0.062525,0.960811,0.305915
1630059105518,-0.061915,0.959469,0.305488
1630059105528,-0.062098,0.957334,0.304268
1630059105538,-0.060939,0.9587979999999999,0.304573
1630059105547,-0.059536,0.959469,0.305793
1630059105557,-0.05917,0.960872,0.30622
1630059105566,-0.058926,0.960262,0.308233
1630059105576,-0.057645,0.959835,0.30933099999999997
1630059105586,-0.058133,0.960567,0.30963599999999997
1630059105595,-0.056486,0.9627629999999999,0.311405
1630059105605,-0.056059,0.962946,0.312015
1630059105614,-0.056608,0.961421,0.312259
1630059105624,-0.055083,0.96014,0.312442
1630059105634,-0.054107,0.9600179999999999,0.3111
1630059105643,-0.055144,0.959225,0.311405
1630059105653,-0.054534,0.959225,0.311832
1630059105662,-0.053801999999999996,0.960201,0.31354
1630059105672,-0.0549,0.961421,0.313723
1630059105682,-0.054717,0.9606279999999999,0.314394
1630059105691,-0.055144,0.9587979999999999,0.313784
1630059105701,-0.055754,0.958859,0.314516
1630059105710,-0.05429,0.9594079999999999,0.314333
1630059105720,-0.05368,0.957212,0.316407
1630059105730,-0.05368,0.957212,0.317871
1630059105739,-0.054168,0.957944,0.318176
1630059105749,-0.053436,0.959469,0.31860299999999997
1630059105758,-0.053924,0.959286,0.316529
1630059105768,-0.055449,0.958432,0.313967
1630059105778,-0.055754,0.957456,0.312686
1630059105787,-0.055876,0.9591029999999999,0.31024599999999997
1630059105797,-0.055265999999999996,0.96075,0.30866
1630059105806,-0.056119999999999996,0.958737,0.306098
1630059105816,-0.056303,0.955382,0.305305
1630059105826,-0.056791,0.95587,0.30439
1630059105835,-0.055632,0.958676,0.305122
1630059105845,-0.055998,0.9597129999999999,0.30506099999999997
1630059105854,-0.056119999999999996,0.95709,0.305854
1630059105864,-0.055205,0.9563579999999999,0.304024
1630059105874,-0.053496999999999996,0.959896,0.30378
1630059105883,-0.053009,0.961726,0.306403
1630059105893,-0.051606,0.9603229999999999,0.309148
1630059105902,-0.049837,0.960994,0.30988
1630059105912,-0.049166,0.961177,0.309819
1630059105922,-0.048068,0.962092,0.308843
1630059105931,-0.047519,0.962092,0.30811099999999997
1630059105941,-0.046848,0.959652,0.309148
1630059105950,-0.046604,0.959835,0.309514
1630059105960,-0.045933,0.959591,0.309819
1630059105970,-0.045201,0.959957,0.309575
1630059105979,-0.045445,0.96136,0.310734
1630059105989,-0.045323,0.959896,0.310307
1630059105998,-0.046055,0.96136,0.30988
1630059106008,-0.045628,0.96136,0.308172
1630059106018,-0.04697,0.961726,0.30750099999999997
1630059106027,-0.047335999999999996,0.96136,0.30561
1630059106037,-0.04758,0.96075,0.304634
1630059106046,-0.048494999999999996,0.960811,0.30414599999999997
1630059106056,-0.049409999999999996,0.960689,0.302438
1630059106066,-0.051118,0.961055,0.301096
1630059106075,-0.051118,0.959957,0.299998
1630059106085,-0.051301,0.9606279999999999,0.299571
1630059106094,-0.050752,0.960262,0.298656
1630059106104,-0.050508,0.96075,0.299266
1630059106114,-0.052521,0.9621529999999999,0.298351
1630059106123,-0.05124,0.962092,0.296826
1630059106133,-0.052337999999999996,0.961726,0.296826
1630059106142,-0.052337999999999996,0.960872,0.296216
1630059106152,-0.052032999999999996,0.96014,0.296521
1630059106162,-0.051972,0.95892,0.296887
1630059106171,-0.049958999999999996,0.959164,0.297497
1630059106181,-0.049776,0.960567,0.29768
1630059106190,-0.050752,0.962336,0.29761899999999997
1630059106200,-0.049898,0.964166,0.299632
1630059106210,-0.050263999999999996,0.963983,0.301828
1630059106219,-0.049532,0.96563,0.302743
1630059106229,-0.049104999999999996,0.964593,0.302499
1630059106238,-0.049471,0.9638,0.302316
1630059106248,-0.049532,0.963129,0.301401
1630059106258,-0.049898,0.963556,0.300364
1630059106267,-0.048799999999999996,0.965325,0.300303
1630059106277,-0.048739,0.9663619999999999,0.298412
1630059106286,-0.048373,0.964288,0.298961
1630059106296,-0.049227,0.964654,0.29853399999999997
1630059106306,-0.048617,0.963434,0.299083
1630059106315,-0.047335999999999996,0.962519,0.300242
1630059106325,-0.048434,0.961299,0.29951
1630059106334,-0.047945999999999996,0.962214,0.299388
1630059106344,-0.048068,0.961421,0.299998
1630059106354,-0.047702,0.961421,0.298961
1630059106363,-0.048556,0.961604,0.297863
1630059106373,-0.047702,0.961604,0.297558
1630059106382,-0.04697,0.961421,0.29951
1630059106392,-0.048007,0.961726,0.299144
1630059106402,-0.047702,0.960811,0.299144
1630059106411,-0.048129,0.960689,0.299571
1630059106421,-0.04819,0.96075,0.299266
1630059106430,-0.048251,0.962092,0.299205
1630059106440,-0.049715,0.9627629999999999,0.29829
1630059106450,-0.049288,0.962092,0.2989
1630059106459,-0.049349,0.961909,0.299693
1630059106469,-0.047945999999999996,0.962946,0.300181
1630059106478,-0.048312,0.961177,0.299937
1630059106488,-0.047945999999999996,0.961421,0.298778
1630059106498,-0.047397,0.960689,0.299205
1630059106507,-0.047275,0.962824,0.299693
1630059106517,-0.04575,0.961909,0.300364
1630059106526,-0.046238,0.961299,0.301096
1630059106536,-0.045262,0.96075,0.300425
1630059106546,-0.045323,0.962031,0.30134
1630059106555,-0.045566999999999996,0.963129,0.30134
1630059106565,-0.045506,0.96258,0.301889
1630059106574,-0.044835,0.964105,0.301218
1630059106584,-0.04514,0.965386,0.300486
1630059106594,-0.045566999999999996,0.965386,0.301767
1630059106603,-0.045018,0.96502,0.299571
1630059106613,-0.045811,0.962946,0.298473
1630059106622,-0.04575,0.961482,0.298656
1630059106632,-0.046482,0.963373,0.299083
1630059106642,-0.047397,0.964044,0.298046
1630059106651,-0.048068,0.962641,0.297985
1630059106661,-0.048556,0.964288,0.298656
1630059106670,-0.048494999999999996,0.965996,0.298107
1630059106680,-0.049288,0.965874,0.296582
1630059106690,-0.048922,0.96624,0.298656
1630059106699,-0.049227,0.965569,0.298717
1630059106709,-0.047763,0.965569,0.298656
1630059106718,-0.047458,0.964166,0.29822899999999997
1630059106728,-0.047214,0.964166,0.298168
1630059106738,-0.047945999999999996,0.962946,0.299266
1630059106747,-0.047458,0.963068,0.299632
1630059106757,-0.047702,0.9612379999999999,0.297863
1630059106766,-0.047092,0.961177,0.29829
1630059106776,-0.046787,0.962031,0.29951
1630059106786,-0.046604,0.9618479999999999,0.300608
1630059106795,-0.046604,0.962885,0.299266
1630059106805,-0.047030999999999996,0.964288,0.299876
1630059106814,-0.047945999999999996,0.963373,0.299083
1630059106824,-0.048739,0.962702,0.298473
1630059106834,-0.049409999999999996,0.964166,0.297985
1630059106843,-0.050691,0.964532,0.296826
1630059106853,-0.051057,0.96563,0.29670399999999997
1630059106862,-0.051422999999999996,0.965203,0.296765
1630059106872,-0.051118,0.964715,0.295728
1630059106882,-0.050325,0.964044,0.295728
1630059106891,-0.049958999999999996,0.963495,0.295728
1630059106901,-0.049349,0.963434,0.294935
1630059106910,-0.049593,0.961604,0.29402
1630059106920,-0.05002,0.96136,0.29426399999999997
1630059106930,-0.049288,0.96136,0.293532
1630059106939,-0.049471,0.959286,0.29273899999999997
1630059106949,-0.050447,0.957761,0.292922
1630059106958,-0.049471,0.95953,0.295118
1630059106968,-0.047702,0.961482,0.294752
1630059106978,-0.048678,0.96319,0.295728
1630059106987,-0.049044,0.9663619999999999,0.295301
1630059106997,-0.048312,0.9678869999999999,0.295606
1630059107006,-0.048068,0.966118,0.29707
1630059107016,-0.047458,0.965813,0.298717
1630059107026,-0.046787,0.96441,0.299449
1630059107035,-0.047092,0.964898,0.29829
1630059107045,-0.046055,0.964349,0.298717
1630059107054,-0.046665,0.963922,0.298778
1630059107064,-0.046299,0.964166,0.29792399999999997
1630059107074,-0.046055,0.965508,0.297253
1630059107083,-0.046299,0.964471,0.297558
1630059107093,-0.047153,0.965386,0.296948
1630059107102,-0.047640999999999996,0.963251,0.296338
1630059107112,-0.04819,0.96441,0.296033
1630059107122,-0.048678,0.96624,0.296826
1630059107131,-0.048129,0.9654469999999999,0.296521
1630059107141,-0.049532,0.96502,0.295606
1630059107150,-0.049044,0.963556,0.295911
1630059107160,-0.049104999999999996,0.964654,0.29463
1630059107170,-0.048983,0.964898,0.295057
1630059107179,-0.049349,0.964898,0.29524
1630059107189,-0.050263999999999996,0.964532,0.294752
1630059107198,-0.050508,0.964715,0.293471
1630059107208,-0.050996,0.965264,0.29402
1630059107218,-0.05063,0.964532,0.29365399999999997
1630059107227,-0.050508,0.963922,0.294081
1630059107237,-0.050325,0.962702,0.294386
1630059107246,-0.050203,0.962946,0.295118
1630059107256,-0.049715,0.962702,0.294081
1630059107266,-0.047945999999999996,0.9615429999999999,0.294813
1630059107275,-0.047763,0.961482,0.294935
1630059107285,-0.04758,0.960872,0.29585
1630059107294,-0.048678,0.960811,0.29548399999999997
1630059107304,-0.047092,0.9621529999999999,0.29639899999999997
1630059107314,-0.047275,0.963129,0.296521
1630059107323,-0.047702,0.963251,0.295301
1630059107333,-0.048129,0.964166,0.29402
1630059107342,-0.048556,0.964044,0.294508
1630059107352,-0.048494999999999996,0.965081,0.29365399999999997
1630059107362,-0.048007,0.963129,0.292922
1630059107371,-0.049715,0.962336,0.29219
1630059107381,-0.048861,0.963739,0.29273899999999997
1630059107390,-0.049409999999999996,0.964776,0.292007
1630059107400,-0.050568999999999996,0.964227,0.291092
1630059107410,-0.05063,0.964044,0.288957
1630059107419,-0.051179,0.9672769999999999,0.28792
1630059107429,-0.050935,0.9675819999999999,0.289506
1630059107438,-0.051057,0.967826,0.291824
1630059107448,-0.051057,0.967765,0.291397
1630059107458,-0.049288,0.967094,0.291946
1630059107467,-0.048556,0.966789,0.291824
1630059107477,-0.049227,0.96624,0.29097
1630059107486,-0.048861,0.966789,0.290177
1630059107496,-0.048617,0.96563,0.289506
1630059107506,-0.049044,0.964654,0.29036
1630059107515,-0.047824,0.963617,0.29243399999999997
1630059107525,-0.047092,0.962641,0.29304399999999997
1630059107534,-0.047030999999999996,0.962824,0.29341
1630059107544,-0.047092,0.963129,0.293471
1630059107554,-0.04758,0.963983,0.292251
1630059107563,-0.048983,0.964837,0.291092
1630059107573,-0.048983,0.965996,0.291824
1630059107582,-0.048861,0.967033,0.29158
1630059107592,-0.049166,0.9672769999999999,0.29097
1630059107602,-0.049898,0.967948,0.288896
1630059107611,-0.051179,0.968436,0.289262
1630059107621,-0.049227,0.968436,0.28914
1630059107630,-0.049349,0.966911,0.288164
1630059107640,-0.049288,0.9651419999999999,0.288286
1630059107650,-0.049593,0.96502,0.28853
1630059107659,-0.04819,0.965264,0.288713
1630059107669,-0.048922,0.965691,0.286334
1630059107678,-0.049044,0.968009,0.284504
1630059107688,-0.049593,0.966606,0.284565
1630059107698,-0.049044,0.965813,0.284748
1630059107707,-0.04758,0.963129,0.285724
1630059107717,-0.045933,0.96258,0.2867
1630059107726,-0.046848,0.963556,0.287737
1630059107736,-0.045262,0.9654469999999999,0.288957
1630059107746,-0.045566999999999996,0.965691,0.290604
1630059107755,-0.045201,0.966606,0.290848
1630059107765,-0.045201,0.96624,0.291214
1630059107774,-0.045201,0.965569,0.292312
1630059107784,-0.045201,0.96563,0.291946
1630059107794,-0.045871999999999996,0.966545,0.291092
1630059107803,-0.046299,0.9663619999999999,0.290238
1630059107813,-0.045933,0.9669719999999999,0.288347
1630059107822,-0.045933,0.966606,0.288042
1630059107832,-0.047335999999999996,0.966484,0.288408
1630059107842,-0.047092,0.9657519999999999,0.287615
1630059107851,-0.047335999999999996,0.9657519999999999,0.287676
1630059107861,-0.048129,0.966606,0.287615
1630059107870,-0.048922,0.967704,0.287249
1630059107880,-0.049044,0.96746,0.28731
1630059107890,-0.049166,0.967033,0.286822
1630059107899,-0.049898,0.96685,0.28731
1630059107909,-0.049958999999999996,0.965813,0.287005
1630059107918,-0.049532,0.96685,0.286761
1630059107928,-0.049471,0.966484,0.287371
1630059107938,-0.048494999999999996,0.964654,0.288164
1630059107947,-0.048739,0.9654469999999999,0.28792
1630059107957,-0.048129,0.965508,0.28792
1630059107966,-0.048007,0.964837,0.287615
1630059107976,-0.048068,0.965508,0.288225
1630059107986,-0.047335999999999996,0.9657519999999999,0.288774
1630059107995,-0.047763,0.966118,0.289628
1630059108005,-0.047519,0.966301,0.289323
1630059108014,-0.046665,0.967094,0.288591
1630059108024,-0.047275,0.968619,0.287493
1630059108034,-0.04758,0.967704,0.28731
1630059108043,-0.048007,0.967033,0.287798
1630059108053,-0.048373,0.96746,0.288164
1630059108062,-0.04819,0.966911,0.288347
1630059108072,-0.04819,0.966301,0.288286
1630059108082,-0.047030999999999996,0.96624,0.289872
1630059108091,-0.048251,0.965203,0.290299
1630059108101,-0.048007,0.96502,0.29097
1630059108110,-0.047945999999999996,0.9663619999999999,0.290787
1630059108120,-0.047335999999999996,0.966728,0.290787
1630059108130,-0.047885,0.96624,0.288408
1630059108139,-0.048861,0.96624,0.287676
1630059108149,-0.048799999999999996,0.96685,0.287676
1630059108158,-0.050263999999999996,0.966911,0.287676
