timestamp,ax,ay,az
1630059603015,-0.021228,-0.042151,-0.9840519999999999
1630059603025,-0.020557,-0.042456,-0.985516
1630059603034,-0.019947,-0.043676,-0.9861869999999999
1630059603044,-0.018788,-0.045201,-0.987041
1630059603054,-0.017446,-0.047397,-0.987651
1630059603063,-0.015799,-0.050081,-0.988627
1630059603073,-0.014579,-0.052155,-0.988505
1630059603082,-0.01464,-0.052765,-0.990518
1630059603092,-0.014029999999999999,-0.054168,-0.9900909999999999
1630059603102,-0.015127999999999999,-0.055083,-0.989237
1630059603111,-0.014213,-0.055632,-0.990762
1630059603121,-0.014395999999999999,-0.057645,-0.9916159999999999
1630059603130,-0.012688,-0.061061,-0.993202
1630059603140,-0.012505,-0.063562,-0.99369
1630059603150,-0.011712,-0.062708,-0.995703
1630059603159,-0.011346,-0.061549,-0.994422
1630059603169,-0.013359,-0.062647,-0.994483
1630059603178,-0.012322,-0.060756,-0.994788
1630059603188,-0.012505,-0.06161,-0.993873
1630059603198,-0.011712,-0.060634,-0.993019
1630059603207,-0.010919,-0.061,-0.993202
1630059603217,-0.010065,-0.062891,-0.992409
1630059603226,-0.007808,-0.06466,-0.989847
1630059603236,-0.0064659999999999995,-0.064904,-0.9894809999999999
1630059603246,-0.006771,-0.064843,-0.990213
1630059603255,-0.004941,-0.064294,-0.992165
1630059603265,-0.004575,-0.065331,-0.990762
1630059603274,-0.002928,-0.064111,-0.992348
1630059603284,-0.002928,-0.064355,-0.991799
1630059603294,-0.002013,-0.063074,-0.99186
1630059603303,-0.002379,-0.063257,-0.9913109999999999
1630059603313,-0.001281,-0.064599,-0.991433
1630059083603,-0.124745,0.13725,-0.979599
1630059083612,-0.124745,0.13419999999999999,-0.976488
1630059083622,-0.124684,0.131821,-0.97295
1630059083632,-0.125172,0.133224,-0.97173
1630059083641,-0.124806,0.133468,-0.972096
1630059083651,-0.125294,0.133468,-0.973316
1630059083660,-0.12383,0.135054,-0.97539
1630059083670,-0.12364699999999999,0.136152,-0.9758169999999999
1630059083680,-0.122427,0.135054,-0.9761219999999999
1630059083689,-0.12224399999999999,0.132065,-0.974719
1630059083699,-0.122305,0.131638,-0.9742919999999999
1630059083708,-0.122061,0.130906,-0.972584
1630059083718,-0.120597,0.130113,-0.972706
1630059083728,-0.120902,0.13115,-0.971791
1630059083737,-0.12023099999999999,0.132004,-0.972218
1630059083747,-0.12193899999999999,0.133285,-0.973011
1630059083756,-0.121695,0.134993,-0.9742919999999999
1630059083766,-0.122732,0.134017,-0.975268
1630059083776,-0.122061,0.134688,-0.973621
1630059083785,-0.123098,0.134139,-0.972645
1630059083795,-0.12315899999999999,0.133712,-0.973621
1630059083804,-0.122976,0.133895,-0.973865
1630059083814,-0.122061,0.13602999999999998,-0.97417
1630059083824,-0.122671,0.133346,-0.971974
1630059083833,-0.124684,0.133041,-0.972096
1630059083843,-0.123708,0.137616,-0.972706
1630059083852,-0.123037,0.138104,-0.972828
1630059083862,-0.121817,0.137311,-0.97356
1630059083872,-0.121451,0.136213,-0.97173
1630059083881,-0.122488,0.135298,-0.970998
1630059083891,-0.12224399999999999,0.135847,-0.970144
1630059083900,-0.12261,0.136457,-0.9706319999999999
1630059083910,-0.122488,0.136823,-0.970266
1630059083920,-0.122,0.135542,-0.971364
1630059083929,-0.122,0.13572499999999998,-0.972096
1630059083939,-0.121573,0.136274,-0.97356
1630059083948,-0.121146,0.13602999999999998,-0.97539
1630059083958,-0.120414,0.135664,-0.976366
1630059083968,-0.121268,0.134566,-0.977098
1630059083977,-0.121268,0.135176,-0.9770369999999999
1630059083987,-0.12139,0.134688,-0.9782569999999999
1630059083996,-0.12078,0.13298,-0.977769
1630059084006,-0.122122,0.134017,-0.975695
1630059084016,-0.12261,0.134932,-0.97478
1630059084025,-0.123464,0.136152,-0.973133
1630059084035,-0.122366,0.136884,-0.97356
1630059084044,-0.123586,0.137616,-0.972645
1630059084054,-0.123769,0.13786,-0.971669
1630059084064,-0.12383,0.136701,-0.972523
1630059084073,-0.123281,0.137128,-0.9718519999999999
1630059084083,-0.122915,0.137738,-0.9706319999999999
1630059084092,-0.12315899999999999,0.137433,-0.970266
1630059084102,-0.124074,0.137616,-0.9699
1630059084112,-0.12395199999999999,0.138165,-0.97173
1630059084121,-0.123342,0.138348,-0.973804
1630059084131,-0.124806,0.137982,-0.97295
1630059084140,-0.12456199999999999,0.138104,-0.972096
1630059084150,-0.124074,0.137372,-0.972584
1630059084160,-0.122976,0.137433,-0.972645
1630059084169,-0.123708,0.137494,-0.9724619999999999
1630059084179,-0.12425699999999999,0.13725,-0.9730719999999999
1630059084188,-0.123708,0.138165,-0.97234
1630059084198,-0.123281,0.137433,-0.972401
1630059084208,-0.122488,0.137982,-0.972218
1630059084217,-0.12364699999999999,0.138348,-0.972218
1630059084227,-0.12425699999999999,0.139141,-0.972096
1630059084236,-0.123342,0.13908,-0.973011
1630059084246,-0.12315899999999999,0.138897,-0.9730719999999999
1630059084256,-0.12395199999999999,0.138958,-0.972218
1630059084265,-0.124623,0.139324,-0.9727669999999999
1630059084275,-0.124928,0.14005599999999999,-0.9727669999999999
1630059084284,-0.124196,0.139629,-0.9730719999999999
1630059084294,-0.12364699999999999,0.139446,-0.970754
1630059084304,-0.123708,0.139507,-0.9715469999999999
1630059084313,-0.123708,0.139202,-0.970449
1630059084323,-0.12383,0.139507,-0.969351
1630059084332,-0.124013,0.139629,-0.9694119999999999
1630059084342,-0.122793,0.138592,-0.970815
1630059084352,-0.122732,0.138287,-0.9724619999999999
1630059084361,-0.12322,0.138226,-0.973804
1630059084371,-0.123037,0.13908,-0.973499
1630059084380,-0.12395199999999999,0.137738,-0.9736819999999999
1630059084390,-0.124745,0.13786,-0.973133
1630059084400,-0.124135,0.137006,-0.9715469999999999
1630059084409,-0.124989,0.135542,-0.972401
1630059084419,-0.123769,0.13847,-0.974048
1630059084428,-0.12425699999999999,0.138653,-0.9733769999999999
1630059084438,-0.12444,0.13847,-0.972584
1630059084448,-0.124989,0.139385,-0.973743
1630059084457,-0.124806,0.137555,-0.971364
1630059084467,-0.124684,0.13847,-0.97234
1630059084476,-0.124318,0.138714,-0.971303
1630059084486,-0.125172,0.136884,-0.970266
1630059084496,-0.126026,0.13663999999999998,-0.971303
1630059084505,-0.127002,0.139141,-0.971913
1630059084515,-0.125172,0.142435,-0.974536
1630059084524,-0.126148,0.14213,-0.9745969999999999
1630059084534,-0.125538,0.139873,-0.972584
1630059084544,-0.126941,0.136579,-0.970144
1630059084553,-0.12688,0.136762,-0.969656
1630059084563,-0.126026,0.13847,-0.973133
1630059084572,-0.125782,0.138226,-0.976793
1630059084582,-0.12505,0.14066599999999999,-0.9739869999999999
1630059084592,-0.12486699999999999,0.142984,-0.972523
1630059084601,-0.126514,0.143899,-0.9767319999999999
1630059084611,-0.124623,0.139629,-0.9813069999999999
1630059084620,-0.120414,0.122366,-0.982893
1630059084630,-0.110593,0.110898,-0.9846619999999999
1630059084640,-0.096136,0.097051,-0.9900909999999999
1630059084649,-0.075335,0.081008,-1.000156
1630059084659,-0.052337999999999996,0.064721,-1.007049
1630059084668,-0.04575,0.078202,-0.99186
1630059084678,-0.059657999999999996,0.094794,-0.962031
1630059084688,-0.082411,0.09991799999999999,-0.952576
1630059084697,-0.089609,0.105042,-0.959347
1630059084707,-0.08662,0.106811,-0.934825
1630059084716,-0.079971,0.11577799999999999,-0.911462
1630059084726,-0.07686,0.12749,-0.901641
1630059084736,-0.082838,0.149999,-0.892857
1630059084745,-0.081252,0.157624,-0.890356
1630059084755,-0.080764,0.15311,-0.8809009999999999
1630059084764,-0.082167,0.149206,-0.868457
1630059084774,-0.07564,0.137921,-0.855525
1630059084784,-0.069601,0.132553,-0.829051
1630059084793,-0.05856,0.12749,-0.80337
1630059084803,-0.060573,0.120963,-0.7381
1630059084812,-0.060451,0.112484,-0.709552
1630059084822,-0.054778,0.085156,-0.716445
1630059084832,-0.030927,0.060511999999999996,-0.789157
1630059084841,-0.00915,0.025131999999999998,-0.837774
1630059084851,0.016897,-0.026413,-0.944524
1630059084860,0.076921,-0.10607899999999999,-1.110505
1630059084870,0.140544,-0.19215,-1.214998
1630059084880,0.184342,-0.25315,-1.27917
1630059084889,0.185074,-0.266875,-1.293993
1630059084899,0.168482,-0.22942099999999999,-1.27795
1630059084908,0.131699,-0.17873,-1.287466
1630059084918,0.097722,-0.140178,-1.333826
1630059084928,0.061854,-0.167689,-1.350052
1630059084937,0.05917,-0.220515,-1.3635329999999999
1630059084947,0.068259,-0.281393,-1.351028
1630059084956,0.083936,-0.301706,-1.328763
1630059084966,0.064538,-0.263581,-1.262822
1630059084976,0.049715,-0.191235,-1.200602
1630059084985,0.03294,-0.128832,-1.139175
1630059084995,0.014945,-0.091073,-1.082201
1630059085004,0.00366,-0.055754,-1.045418
1630059085014,-0.01586,-0.017079999999999998,-0.9964959999999999
1630059085024,-0.044042,0.026352,-0.9344589999999999
1630059085033,-0.068259,0.051484,-0.892369
1630059085043,-0.088145,0.060756,-0.8641869999999999
1630059085052,-0.10004,0.056119999999999996,-0.848388
1630059085062,-0.12017,0.045628,-0.8291729999999999
1630059085072,-0.130052,0.049532,-0.837774
1630059085081,-0.131028,0.063684,-0.845216
1630059085091,-0.122122,0.07618899999999999,-0.851743
1630059085100,-0.11223999999999999,0.081801,-0.861198
1630059085110,-0.111447,0.097966,-0.85949
1630059085120,-0.119194,0.133224,-0.8313079999999999
1630059085129,-0.133834,0.146034,-0.795257
1630059085139,-0.147803,0.141703,-0.764757
1630059085148,-0.170007,0.11712,-0.745725
1630059085158,-0.180743,0.092781,-0.753045
1630059085168,-0.183671,0.059962999999999995,-0.751215
1630059085177,-0.177876,0.034099,-0.75762
1630059085187,-0.15853899999999999,0.017263,-0.770552
1630059085196,-0.145912,0.012017,-0.7914749999999999
1630059085206,-0.12871,0.010187,-0.835944
1630059085216,-0.110654,-0.00915,-0.868457
1630059085225,-0.097966,-0.03538,-0.882365
1630059085235,-0.086986,-0.063806,-0.894077
1630059085244,-0.07076,-0.068442,-0.908046
1630059085254,-0.05307,-0.078324,-0.948306
1630059085264,-0.039833,-0.092415,-0.992348
1630059085273,-0.014823,-0.118157,-1.0474919999999999
1630059085283,0.009028,-0.144875,-1.084153
1630059085292,0.013542,-0.162565,-1.134356
1630059085302,0.015799,-0.177083,-1.196515
1630059085312,0.012199999999999999,-0.177388,-1.22671
1630059085321,0.002562,-0.175192,-1.2415939999999999
1630059085331,-0.006588,-0.163785,-1.244766
1630059085340,-0.018178,-0.148535,-1.240435
1630059085350,-0.029158,-0.132736,-1.233115
1630059085360,-0.034648,-0.110105,-1.2339689999999999
1630059085369,-0.037515,-0.088755,-1.2391539999999999
1630059085379,-0.039467,-0.06831999999999999,-1.236958
1630059085388,-0.043066,-0.030866,-1.21939
1630059085398,-0.052155,0.006771,-1.1828509999999999
1630059085408,-0.058743,0.035075,-1.138809
1630059085417,-0.064843,0.055998,-1.0897649999999999
1630059085427,-0.075823,0.079971,-1.036268
1630059085436,-0.086864,0.098881,-0.981368
1630059085446,-0.09759999999999999,0.11345999999999999,-0.930555
1630059085456,-0.10376099999999999,0.13176,-0.898408
1630059085465,-0.107665,0.147193,-0.8723
1630059085475,-0.110288,0.16097899999999998,-0.852963
1630059085484,-0.10467599999999999,0.167567,-0.836676
1630059085494,-0.097234,0.170922,-0.8310029999999999
1630059085504,-0.093635,0.17324,-0.8306979999999999
1630059085513,-0.092476,0.170678,-0.83448
1630059085523,-0.088633,0.17580199999999999,-0.839909
1630059085532,-0.0915,0.185379,-0.834846
1630059085542,-0.090097,0.192577,-0.8343579999999999
1630059085552,-0.092964,0.198189,-0.824537
1630059085561,-0.093147,0.20258099999999998,-0.8124589999999999
1630059085571,-0.093086,0.195749,-0.805993
1630059085580,-0.09235399999999999,0.18422,-0.805505
1630059085590,-0.085705,0.17025099999999999,-0.817644
1630059085600,-0.07679899999999999,0.160186,-0.844972
1630059085609,-0.068686,0.151036,-0.867847
1630059085619,-0.061915,0.147071,-0.9046299999999999
1630059085628,-0.055998,0.142374,-0.9444629999999999
1630059085638,-0.053619,0.13115,-0.977891
1630059085648,-0.055144,0.114314,-0.987712
1630059085657,-0.06447699999999999,0.098332,-0.9980209999999999
1630059085667,-0.070821,0.081679,-1.01504
1630059085676,-0.07063799999999999,0.071858,-1.0413919999999999
1630059085686,-0.066429,0.057828,-1.074393
1630059085696,-0.061671,0.04514,-1.110505
1630059085705,-0.056119999999999996,0.035746,-1.147898
1630059085715,-0.055937,0.034159999999999996,-1.194685
1630059085724,-0.061183,0.040077,-1.248914
1630059085734,-0.058926,0.033306,-1.297104
1630059085744,-0.055449,0.01464,-1.323517
1630059085753,-0.053496999999999996,-0.019032,-1.339682
1630059085763,-0.047945999999999996,-0.048434,-1.349198
1630059085772,-0.052277,-0.070089,-1.352126
1630059085782,-0.055998,-0.082289,-1.365607
1630059085792,-0.049532,-0.087962,-1.374025
1630059085801,-0.027206,-0.102724,-1.367376
1630059085811,-0.008601,-0.134078,-1.339743
1630059085820,-0.000244,-0.148718,-1.3230899999999999
1630059085830,0.012688,-0.16994599999999999,-1.309914
1630059085840,0.0305,-0.185562,-1.281854
1630059085849,0.044042,-0.196969,-1.252208
1630059085859,0.058621,-0.20935199999999998,-1.213046
1630059085868,0.072102,-0.22197899999999998,-1.166625
1630059085878,0.078812,-0.228201,-1.115324
1630059085888,0.086864,-0.233142,-1.060546
1630059085897,0.103273,-0.228384,-1.005158
1630059085907,0.125416,-0.225334,-0.953186
1630059085916,0.154269,-0.235216,-0.898896
1630059085926,0.181109,-0.239059,-0.844606
1630059085936,0.18971,-0.23912,-0.796904
1630059085945,0.193797,-0.24326799999999998,-0.7582909999999999
1630059085955,0.188551,-0.270779,-0.704916
1630059085964,0.183244,-0.311893,-0.660264
1630059085974,0.188795,-0.35624,-0.635132
1630059085984,0.215879,-0.388692,-0.636535
1630059085993,0.240828,-0.402783,-0.657153
1630059086003,0.25864,-0.399184,-0.700768
1630059086012,0.27938,-0.39283999999999997,-0.7394419999999999
1630059086022,0.292983,-0.40272199999999997,-0.751825
1630059086032,0.300425,-0.430843,-0.743346
1630059086041,0.304268,-0.456097,-0.723704
1630059086051,0.301645,-0.46372199999999997,-0.708454
1630059086060,0.303658,-0.47543399999999997,-0.697535
1630059086070,0.310063,-0.502701,-0.680272
1630059086080,0.319335,-0.5307,-0.690276
1630059086089,0.32104299999999997,-0.541131,-0.7083929999999999
1630059086099,0.323056,-0.5416799999999999,-0.717421
1630059086108,0.322019,-0.539118,-0.7269369999999999
1630059086118,0.322995,-0.527528,-0.741821
1630059086128,0.330498,-0.519659,-0.753472
1630059086137,0.332267,-0.525088,-0.758779
1630059086147,0.323788,-0.52826,-0.760487
1630059086156,0.317932,-0.531432,-0.7552409999999999
1630059086166,0.305305,-0.530456,-0.7613409999999999
1630059086176,0.287676,-0.528138,-0.7677459999999999
1630059086185,0.275354,-0.536739,-0.782752
1630059086195,0.261202,-0.536068,-0.8042239999999999
1630059086204,0.250466,-0.526491,-0.820267
1630059086214,0.246562,-0.513803,-0.847168
1630059086224,0.256871,-0.469883,-0.893528
1630059086233,0.277123,-0.430477,-0.9286639999999999
1630059086243,0.30597599999999997,-0.433832,-0.925858
1630059086252,0.32147,-0.487024,-0.892491
1630059086262,0.31476,-0.541192,-0.853024
1630059086272,0.30012,-0.546499,-0.818498
1630059086281,0.290543,-0.52033,-0.793122
1630059086291,0.291214,-0.484279,-0.7671359999999999
1630059086300,0.264252,-0.45872,-0.73261
1630059086310,0.22014899999999998,-0.442189,-0.6944239999999999
1630059086320,0.194834,-0.428342,-0.651358
1630059086329,0.173972,-0.407968,-0.63379
1630059086339,0.181902,-0.392962,-0.651114
1630059086348,0.213622,-0.398147,-0.67527
1630059086358,0.261141,-0.416752,-0.701012
1630059086368,0.294081,-0.446093,-0.706014
1630059086377,0.313418,-0.491294,-0.698633
1630059086387,0.316102,-0.532042,-0.686433
1630059086396,0.327692,-0.534909,-0.7038179999999999
1630059086406,0.350262,-0.503494,-0.7406619999999999
1630059086416,0.373503,-0.469395,-0.7674409999999999
1630059086425,0.381372,-0.450302,-0.7607309999999999
1630059086435,0.374845,-0.43163599999999996,-0.731634
1630059086444,0.360876,-0.395463,-0.7047329999999999
1630059086454,0.349713,-0.357216,-0.67405
1630059086464,0.327021,-0.297985,-0.65453
1630059086473,0.312198,-0.268888,-0.660386
1630059086483,0.304634,-0.252967,-0.676734
1630059086492,0.299388,-0.2562,-0.690398
1630059086502,0.300303,-0.278587,-0.69723
1630059086512,0.308172,-0.318542,-0.696132
1630059086521,0.313174,-0.362462,-0.693143
1630059086531,0.307135,-0.392413,-0.696498
1630059086540,0.296521,-0.39192499999999997,-0.706624
1630059086550,0.286578,-0.374052,-0.733586
1630059086560,0.259921,-0.314638,-0.766404
1630059086569,0.226798,-0.253638,-0.7746999999999999
1630059086579,0.219661,-0.238449,-0.747128
1630059086588,0.227286,-0.264191,-0.711016
1630059086598,0.221125,-0.288164,-0.686616
1630059086608,0.21899,-0.31598,-0.6810039999999999
1630059086617,0.218563,-0.33855,-0.681675
1630059086627,0.22447999999999999,-0.362218,-0.709064
1630059086636,0.237656,-0.379542,-0.779458
1630059086646,0.262788,-0.409737,-0.85461
1630059086656,0.28346699999999997,-0.447191,-0.9222589999999999
1630059086665,0.287371,-0.47031,-0.9864919999999999
1630059086675,0.287066,-0.478972,-1.0380369999999999
1630059086684,0.299205,-0.487634,-1.069696
1630059086694,0.299876,-0.487512,-1.053104
1630059086704,0.28621199999999997,-0.474275,-1.022299
1630059086713,0.256505,-0.452681,-0.997838
1630059086723,0.235399,-0.441945,-0.982466
1630059086732,0.223382,-0.439566,-0.9813069999999999
1630059086742,0.212585,-0.424072,-1.000095
1630059086752,0.194773,-0.392413,-1.01748
1630059086761,0.176168,-0.37027,-1.050542
1630059086771,0.158173,-0.34892,-1.077504
1630059086780,0.133712,-0.330254,-1.124352
1630059086790,0.116632,-0.315004,-1.183583
1630059086800,0.113582,-0.29822899999999997,-1.242021
1630059086809,0.112667,-0.289567,-1.294603
1630059086819,0.110044,-0.289628,-1.342061
1630059086828,0.103273,-0.298839,-1.36884
1630059086838,0.098759,-0.290726,-1.388055
1630059086848,0.094123,-0.27236499999999997,-1.393484
1630059086857,0.089182,-0.248697,-1.385249
1630059086867,0.084607,-0.23247099999999998,-1.354261
1630059086876,0.075213,-0.219356,-1.307108
1630059086886,0.07063799999999999,-0.195444,-1.248243
1630059086896,0.064843,-0.18781899999999999,-1.20475
1630059086905,0.069784,-0.18727,-1.184437
1630059086915,0.071126,-0.180499,-1.168089
1630059086924,0.084912,-0.185074,-1.136186
1630059086934,0.098576,-0.205936,-1.0918999999999999
1630059086944,0.092964,-0.194956,-1.047858
1630059086953,0.081374,-0.180377,-0.99918
1630059086963,0.067344,-0.162077,-0.9539179999999999
1630059086972,0.046543,-0.138836,-0.915427
1630059086982,0.027327999999999998,-0.117364,-0.886818
1630059086992,0.018239,-0.100955,-0.869128
1630059087001,0.0062829999999999995,-0.079605,-0.8565619999999999
1630059087011,-0.013054,-0.054839,-0.8492419999999999
1630059087020,-0.015616,-0.046482,-0.848266
1630059087030,-0.025436999999999998,-0.030012,-0.841251
1630059087040,-0.041236,-0.014701,-0.821853
1630059087049,-0.048068,-0.015006,-0.808677
1630059087059,-0.052094,-0.021899,-0.8036139999999999
1630059087068,-0.0549,-0.024522,-0.811178
1630059087078,-0.054595,-0.030560999999999998,-0.8261229999999999
1630059087088,-0.058682,-0.032208,-0.851011
1630059087097,-0.06539199999999999,-0.026352,-0.8842559999999999
1630059087107,-0.067832,-0.031171,-0.920917
1630059087116,-0.071736,-0.038735,-0.942816
1630059087126,-0.073017,-0.043371,-0.951112
1630059087136,-0.07063799999999999,-0.034526,-0.955016
1630059087145,-0.066368,-0.024278,-0.94977
1630059087155,-0.063562,-0.016592,-0.946842
1630059087164,-0.063623,-0.007259,-0.942999
1630059087174,-0.06831999999999999,-0.001952,-0.937265
1630059087184,-0.068991,-0.0046359999999999995,-0.9394
1630059087193,-0.068137,-0.011712,-0.9426329999999999
1630059087203,-0.063196,-0.027694,-0.943365
1630059087212,-0.058133,-0.046604,-0.936472
1630059087222,-0.054655999999999996,-0.061366,-0.935191
1630059087232,-0.049409999999999996,-0.06709999999999999,-0.935923
1630059087241,-0.047702,-0.069357,-0.93879
1630059087251,-0.042761,-0.064599,-0.946354
1630059087260,-0.03843,-0.06344,-0.958615
1630059087270,-0.034465,-0.067344,-0.963617
1630059087280,-0.033854999999999996,-0.067161,-0.974658
1630059087289,-0.033245,-0.06831999999999999,-0.986858
1630059087299,-0.03172,-0.076616,-0.99857
1630059087308,-0.027206,-0.085339,-1.008208
1630059087318,-0.024644,-0.090097,-1.013576
1630059087328,-0.028121,-0.088389,-1.017602
1630059087337,-0.030683,-0.086132,-1.021018
1630059087347,-0.035258,-0.076738,-1.024861
1630059087356,-0.040626,-0.067893,-1.030656
1630059087366,-0.048922,-0.064599,-1.031449
1630059087376,-0.055937,-0.060146,-1.03578
1630059087385,-0.061732,-0.056729999999999996,-1.0450519999999999
1630059087395,-0.065941,-0.05307,-1.050969
1630059087404,-0.067527,-0.048617,-1.055239
1630059087414,-0.07198,-0.042943999999999996,-1.05835
1630059087424,-0.081069,-0.044835,-1.050969
1630059087433,-0.086132,-0.040565,-1.04249
1630059087443,-0.09174399999999999,-0.038857,-1.032059
1630059087452,-0.09698999999999999,-0.037942,-1.021323
1630059087462,-0.099308,-0.04026,-1.01443
1630059087472,-0.103517,-0.036356,-1.008696
1630059087481,-0.10284599999999999,-0.038246999999999996,-1.001742
1630059087491,-0.104493,-0.046116,-0.991189
1630059087500,-0.106323,-0.050081,-0.985699
1630059087510,-0.111325,-0.052337999999999996,-0.9846619999999999
1630059087520,-0.11840099999999999,-0.051057,-0.986004
1630059087529,-0.12688,-0.045994,-0.988139
1630059087539,-0.132309,-0.027572,-0.990152
1630059087548,-0.145424,-0.013359,-0.982893
1630059087558,-0.15433,-0.006039,-0.970876
1630059087568,-0.16036899999999998,-0.0028669999999999998,-0.962214
1630059087577,-0.164883,-0.0032329999999999998,-0.952637
1630059087587,-0.165554,-0.000366,-0.952271
1630059087596,-0.167506,0.0030499999999999998,-0.953796
1630059087606,-0.167933,0.005856,-0.96197
1630059087616,-0.16775,0.0064659999999999995,-0.97539
1630059087625,-0.167933,0.012444,-0.9894809999999999
1630059087635,-0.168543,0.025863999999999998,-0.995825
1630059087644,-0.174155,0.037393,-0.9958859999999999
1630059087654,-0.180865,0.040565,-0.994239
1630059087664,-0.18287799999999999,0.036234,-0.988444
1630059087673,-0.183976,0.033977,-0.98515
1630059087683,-0.184647,0.033245,-0.986553
1630059087692,-0.186111,0.036356,-0.99796
1630059087702,-0.187514,0.037271,-1.00589
1630059087712,-0.187575,0.036173,-1.008025
1630059087721,-0.189405,0.033549999999999996,-1.005646
1630059087731,-0.191357,0.033489,-1.003206
1630059087740,-0.193614,0.028791999999999998,-1.006866
1630059087750,-0.191113,0.020435,-1.012112
1630059087760,-0.18666,0.016714,-1.017907
1630059087769,-0.187636,0.020007999999999998,-1.022116
1630059087779,-0.188978,0.020618,-1.021994
1630059087788,-0.190686,0.020557,-1.018395
1630059087798,-0.190747,0.017811999999999998,-1.013027
1630059087808,-0.18873399999999999,0.016653,-1.00345
1630059087817,-0.186355,0.01952,-0.994605
1630059087827,-0.182817,0.02501,-0.989664
1630059087836,-0.17976699999999998,0.031964,-0.983991
1630059087846,-0.17671699999999999,0.033245,-0.975634
1630059087856,-0.17330099999999998,0.036173,-0.96929
1630059087865,-0.171227,0.039833,-0.961299
1630059087875,-0.167628,0.046176999999999996,-0.957212
1630059087884,-0.162626,0.049776,-0.953064
1630059087894,-0.156892,0.052337999999999996,-0.95099
1630059087904,-0.154086,0.062403,-0.9505629999999999
1630059087913,-0.153659,0.07124799999999999,-0.951112
1630059087923,-0.153842,0.079056,-0.950014
1630059087932,-0.152195,0.081496,-0.94428
1630059087942,-0.151036,0.076067,-0.936777
1630059087952,-0.14804699999999998,0.077348,-0.935252
1630059087961,-0.14091,0.076067,-0.933788
1630059087971,-0.135908,0.080154,-0.933788
1630059087980,-0.129686,0.07942199999999999,-0.929518
1630059087990,-0.125843,0.07911699999999999,-0.926651
1630059088000,-0.11809599999999999,0.069723,-0.920002
1630059088009,-0.113582,0.060207,-0.917806
1630059088019,-0.10614,0.054229,-0.921893
1630059088028,-0.101565,0.047275,-0.9237839999999999
1630059088038,-0.10345599999999999,0.050691,-0.931592
1630059088048,-0.105896,0.061549,-0.937692
1630059088057,-0.104737,0.078263,-0.945927
1630059088067,-0.104737,0.094794,-0.955809
1630059088076,-0.100467,0.106811,-0.96319
1630059088086,-0.097356,0.11895,-0.9745969999999999
1630059088096,-0.095648,0.126819,-0.98515
1630059088105,-0.090768,0.126636,-0.989298
1630059088115,-0.088633,0.130357,-0.9977159999999999
1630059088124,-0.079605,0.134932,-1.006195
1630059088134,-0.069174,0.128283,-1.011441
1630059088144,-0.061915,0.125416,-1.013576
1630059088153,-0.052826,0.114802,-1.00711
1630059088163,-0.047030999999999996,0.110593,-1.006073
1630059088172,-0.039162,0.111691,-1.010526
1630059088182,-0.02928,0.111813,-1.017602
1630059088192,-0.017995,0.10315099999999999,-1.012478
1630059088201,-0.021838,0.105469,-1.010587
1630059088211,-0.027877,0.108275,-1.000705
1630059088220,-0.026535,0.102114,-0.9943
1630059088230,-0.021167,0.089975,-0.990945
1630059088240,-0.013786,0.07686,-0.9937509999999999
1630059088249,-0.008662,0.068808,-1.000644
1630059088259,-0.006405,0.065941,-1.012783
1630059088268,-0.001952,0.058255,-1.012356
1630059088278,-0.005612,0.042883,-1.007964
1630059088288,-0.013054,0.021106,-0.992165
1630059088297,-0.029951,-0.001037,-0.971059
1630059088307,-0.04209,-0.017324,-0.956297
1630059088316,-0.049715,-0.024704999999999998,-0.9609329999999999
1630059088326,-0.055693,-0.014945,-0.9785619999999999
1630059088336,-0.058498999999999995,0.007503,-1.002962
1630059088345,-0.060207,0.013603,-1.010404
1630059088355,-0.058926,0.011956,-1.009062
1630059088364,-0.061061,0.012017,-1.003206
1630059088374,-0.068808,0.0062829999999999995,-1.00589
1630059088384,-0.077775,-0.0053679999999999995,-1.018639
1630059088393,-0.083387,-0.014823,-1.023153
1630059088403,-0.084912,-0.024644,-1.017602
1630059088412,-0.081252,-0.02013,-1.003877
1630059088422,-0.073993,-0.011773,-0.979904
1630059088432,-0.070516,-0.0059169999999999995,-0.951966
1630059088441,-0.06740499999999999,-0.008905999999999999,-0.930128
1630059088451,-0.064904,-0.008967,-0.917623
1630059088460,-0.066917,-0.008662,-0.913963
1630059088470,-0.063379,-0.009394,-0.916281
1630059088480,-0.057706,-0.0051849999999999995,-0.921283
1630059088489,-0.061244,-0.006771,-0.928481
1630059088499,-0.061549,-0.011467999999999999,-0.936716
1630059088508,-0.066124,-0.014213,-0.943914
1630059088518,-0.071492,-0.0026839999999999998,-0.9609329999999999
1630059088528,-0.071431,0.011956,-0.979416
1630059088537,-0.07015,0.030317,-1.000339
1630059088547,-0.065697,0.041419,-1.015833
1630059088556,-0.063013,0.039223,-1.021262
1630059088566,-0.063501,0.033245,-1.0267519999999999
1630059088576,-0.064538,0.035318999999999996,-1.0392569999999999
1630059088585,-0.066856,0.042212,-1.061339
1630059088595,-0.066673,0.060085,-1.0827499999999999
1630059088604,-0.067649,0.081557,-1.10166
1630059088614,-0.069113,0.09991799999999999,-1.103795
1630059088624,-0.070577,0.111569,-1.093364
1630059088633,-0.075884,0.128893,-1.078968
1630059088643,-0.079971,0.129625,-1.060729
1630059088652,-0.089243,0.112484,-1.0309
1630059088662,-0.098088,0.090768,-1.001681
1630059088672,-0.105286,0.07618899999999999,-0.973926
1630059088681,-0.108763,0.069418,-0.951051
1630059088691,-0.110776,0.0732,-0.937387
1630059088700,-0.112118,0.083021,-0.934276
1630059088710,-0.11669299999999999,0.093879,-0.937143
1630059088720,-0.120048,0.096075,-0.941169
1630059088729,-0.125294,0.090768,-0.94245
1630059088739,-0.128466,0.069723,-0.940132
1630059088748,-0.137128,0.044469,-0.940437
1630059088758,-0.146705,0.015921,-0.9417179999999999
1630059088768,-0.15390299999999998,-0.00366,-0.951356
1630059088777,-0.15799,-0.017263,-0.963861
1630059088787,-0.158356,-0.01647,-0.978074
1630059088796,-0.157868,-0.0073809999999999995,-0.988444
1630059088806,-0.153171,0.00915,-0.995398
1630059088816,-0.147254,0.033184,-1.002474
1630059088825,-0.146766,0.048251,-1.010099
1630059088835,-0.152561,0.049409999999999996,-1.006683
1630059088844,-0.155672,0.043981,-0.998875
1630059088854,-0.163785,0.027389,-0.989542
1630059088864,-0.173118,0.0062829999999999995,-0.98393
1630059088873,-0.180011,-0.008173999999999999,-0.975756
1630059088883,-0.181536,-0.015616,-0.9782569999999999
1630059088892,-0.181048,-0.017324,-0.9903959999999999
1630059088902,-0.180377,-0.015006,-1.004121
1630059088912,-0.17946199999999998,-0.01464,-1.017297
1630059088921,-0.18440299999999998,-0.018849,-1.019493
1630059088931,-0.188246,-0.016531,-1.023702
1630059088940,-0.196176,-0.020923,-1.025776
1630059088950,-0.210511,-0.027327999999999998,-1.021689
1630059088960,-0.220088,-0.035563,-1.022055
1630059088969,-0.227957,-0.034282,-1.02602
1630059088979,-0.236131,-0.028182,-1.028826
1630059088988,-0.240828,-0.029523999999999998,-1.038403
1630059088998,-0.249246,-0.028121,-1.047248
1630059089008,-0.259799,-0.0070149999999999995,-1.063169
1630059089017,-0.267485,0.02013,-1.076406
1630059089027,-0.274805,0.062525,-1.073722
1630059089036,-0.269986,0.100955,-1.048834
1630059089046,-0.254553,0.128039,-1.013637
1630059089056,-0.236009,0.142862,-0.987224
1630059089065,-0.213256,0.14335,-0.974719
1630059089075,-0.197274,0.131211,-0.963495
1630059089084,-0.181231,0.115656,-0.9600179999999999
1630059089094,-0.167079,0.10284599999999999,-0.965874
1630059089104,-0.156404,0.099491,-0.970144
1630059089113,-0.142984,0.106872,-0.9700219999999999
1630059089123,-0.13047899999999998,0.121512,-0.965508
1630059089132,-0.119987,0.135298,-0.955016
1630059089142,-0.11022699999999999,0.15677,-0.943792
1630059089152,-0.102114,0.165432,-0.932568
1630059089161,-0.09497699999999999,0.16043,-0.920185
1630059089171,-0.084485,0.149389,-0.9137799999999999
1630059089180,-0.067954,0.132126,-0.915732
1630059089190,-0.052094,0.126514,-0.927932
1630059089200,-0.037393,0.123464,-0.939644
1630059089209,-0.021471999999999998,0.124135,-0.948977
1630059089219,-0.0060999999999999995,0.130967,-0.953979
1630059089228,-0.001098,0.143777,-0.9459879999999999
1630059089238,0.00732,0.14945,-0.929335
1630059089248,0.011773,0.15189,-0.910364
1630059089257,0.016287,0.14652199999999999,-0.903532
1630059089267,0.019459,0.139446,-0.9046299999999999
1630059089276,0.02318,0.137189,-0.908229
1630059089286,0.026595999999999998,0.13847,-0.921588
1630059089296,0.03172,0.143899,-0.940986
1630059089305,0.0366,0.140239,-0.950624
1630059089315,0.043737,0.135237,-0.954894
1630059089324,0.045445,0.130357,-0.9587979999999999
1630059089334,0.048007,0.12383,-0.967765
1630059089344,0.051972,0.119804,-0.9767319999999999
1630059089353,0.052155,0.12834399999999999,-0.9825269999999999
1630059089363,0.053375,0.14249599999999998,-0.978989
1630059089372,0.056974,0.155489,-0.972828
1630059089382,0.060085,0.163968,-0.970815
1630059089392,0.06344,0.162748,-0.967704
1630059089401,0.067832,0.155672,-0.966545
1630059089411,0.073505,0.145119,-0.976305
1630059089420,0.073383,0.136518,-0.988688
1630059089430,0.075579,0.133346,-0.997289
1630059089440,0.078263,0.138409,-0.99918
1630059089449,0.077531,0.149999,-0.996679
1630059089459,0.076006,0.167933,-0.9919209999999999
1630059089468,0.077165,0.182085,-0.991494
1630059089478,0.078507,0.195932,-0.9855769999999999
1630059089488,0.079361,0.20557,-0.9828319999999999
1630059089497,0.078202,0.208681,-0.9837469999999999
1630059089507,0.074786,0.193431,-0.983381
1630059089516,0.072956,0.164944,-0.984845
1630059089526,0.068259,0.13908,-0.985211
1630059089536,0.068137,0.127368,-0.988383
1630059089545,0.067466,0.128161,-0.9946659999999999
1630059089555,0.065026,0.133346,-0.997472
1630059089564,0.06405,0.14835199999999998,-0.99064
1630059089574,0.061793,0.174582,-0.986126
1630059089584,0.053314,0.198494,-0.980331
1630059089593,0.045933,0.216306,-0.977403
1630059089603,0.038491,0.22021,-0.973621
1630059089612,0.030012,0.212524,-0.966728
1630059089622,0.023241,0.196908,-0.955504
1630059089632,0.019947,0.18409799999999998,-0.946964
1630059089641,0.015677,0.177205,-0.936777
1630059089651,0.011041,0.176778,-0.925065
1630059089660,0.0057339999999999995,0.187453,-0.915793
1630059089670,-0.002562,0.198311,-0.911523
1630059089680,-0.008235,0.20349599999999998,-0.916281
1630059089689,-0.014335,0.194102,-0.926773
1630059089699,-0.019398,0.17702199999999998,-0.932568
1630059089708,-0.030622,0.155611,-0.9335439999999999
1630059089718,-0.041297,0.132248,-0.9335439999999999
1630059089728,-0.052704,0.117364,-0.93147
1630059089737,-0.062708,0.116022,-0.9283589999999999
1630059089747,-0.07417599999999999,0.129015,-0.9301889999999999
1630059089756,-0.083875,0.14274,-0.93696
1630059089766,-0.093513,0.157197,-0.94367
1630059089776,-0.100955,0.1708,-0.950746
1630059089785,-0.110166,0.17946199999999998,-0.956785
1630059089795,-0.116144,0.184769,-0.963068
1630059089804,-0.122671,0.187758,-0.965996
1630059089814,-0.126514,0.188795,-0.965508
1630059089824,-0.13359,0.191235,-0.9615429999999999
1630059089833,-0.142435,0.197274,-0.96014
1630059089843,-0.149694,0.202093,-0.962885
1630059089852,-0.15853899999999999,0.211609,-0.965935
1630059089862,-0.171288,0.219905,-0.9703269999999999
1630059089872,-0.182207,0.229543,-0.971303
1630059089881,-0.19032,0.238754,-0.969168
1630059089891,-0.201849,0.249551,-0.965081
1630059089900,-0.21215799999999999,0.261202,-0.960384
1630059089910,-0.2196,0.277489,-0.95831
1630059089920,-0.226371,0.292312,-0.957822
1630059089929,-0.236619,0.303658,-0.952454
1630059089939,-0.244976,0.311039,-0.9490379999999999
1630059089948,-0.252418,0.314211,-0.951844
1630059089958,-0.25729799999999997,0.31646799999999997,-0.955626
1630059089968,-0.26352,0.314577,-0.960994
1630059089977,-0.264862,0.316224,-0.964227
1630059089987,-0.263825,0.317139,-0.959042
1630059089996,-0.265899,0.31659,-0.951234
1630059090006,-0.267241,0.314394,-0.940559
1630059090016,-0.267668,0.312137,-0.930433
1630059090025,-0.269742,0.30567099999999997,-0.922625
1630059090035,-0.270108,0.299815,-0.915366
1630059090044,-0.272487,0.296582,-0.906582
1630059090054,-0.27358499999999997,0.291397,-0.8970049999999999
1630059090064,-0.274256,0.289079,-0.8885259999999999
1630059090073,-0.273524,0.288286,-0.884744
1630059090083,-0.27419499999999997,0.28365,-0.8827309999999999
1630059090092,-0.27694,0.275903,-0.883158
1630059090102,-0.279685,0.269132,-0.885354
1630059090112,-0.279685,0.262239,-0.890478
1630059090121,-0.280905,0.255834,-0.8948699999999999
1630059090131,-0.28072199999999997,0.247782,-0.8982249999999999
1630059090140,-0.281454,0.23863199999999998,-0.900116
1630059090150,-0.282186,0.226493,-0.899262
1630059090160,-0.280539,0.21801399999999999,-0.901702
1630059090169,-0.280051,0.209596,-0.906033
1630059090179,-0.279197,0.2074,-0.914695
1630059090188,-0.278221,0.20136099999999998,-0.922015
1630059090198,-0.279258,0.203618,-0.930006
1630059090208,-0.28041699999999997,0.202032,-0.934032
1630059090217,-0.285724,0.202337,-0.9323239999999999
1630059090227,-0.293471,0.205509,-0.9289689999999999
1630059090236,-0.298717,0.205387,-0.9222589999999999
1630059090246,-0.300364,0.20252,-0.923052
1630059090256,-0.297741,0.206668,-0.927688
1630059090265,-0.293776,0.213622,-0.9375089999999999
1630059090275,-0.291214,0.22265,-0.94977
1630059090284,-0.292983,0.228323,-0.95831
1630059090294,-0.298168,0.229848,-0.959591
1630059090304,-0.30750099999999997,0.235399,-0.952027
1630059090313,-0.315553,0.240828,-0.939522
1630059090323,-0.323056,0.24851399999999998,-0.927383
1630059090332,-0.327631,0.252906,-0.919148
1630059090342,-0.326716,0.253638,-0.916159
1630059090352,-0.32134799999999997,0.25559,-0.916098
1630059090361,-0.312564,0.260836,-0.917562
1630059090371,-0.304085,0.262666,-0.918477
1630059090380,-0.294203,0.255102,-0.909998
1630059090390,-0.283894,0.244854,-0.9003599999999999
1630059090400,-0.275964,0.23119,-0.8906
1630059090409,-0.273402,0.216184,-0.884439
1630059090419,-0.269437,0.20496,-0.883097
1630059090428,-0.265411,0.198982,-0.887062
1630059090438,-0.26352,0.198189,-0.893711
1630059090448,-0.263947,0.20618,-0.900177
1630059090457,-0.263642,0.214354,-0.906826
1630059090467,-0.2623,0.2135,-0.909754
1630059090476,-0.261324,0.211914,-0.9107299999999999
1630059090486,-0.259677,0.210145,-0.9113399999999999
1630059090496,-0.257176,0.210755,-0.916586
1630059090505,-0.255285,0.211304,-0.92415
1630059090515,-0.251747,0.215269,-0.9292739999999999
1630059090524,-0.248392,0.220393,-0.934642
1630059090534,-0.247172,0.22691999999999998,-0.939705
1630059090544,-0.24357299999999998,0.22875,-0.945134
1630059090553,-0.23863199999999998,0.232105,-0.9465979999999999
1630059090563,-0.23399599999999998,0.228384,-0.9490379999999999
1630059090572,-0.23094599999999998,0.228384,-0.949526
1630059090582,-0.227408,0.225456,-0.947025
1630059090592,-0.221186,0.224297,-0.945622
1630059090601,-0.216794,0.224907,-0.9456829999999999
1630059090611,-0.210572,0.225517,-0.947391
1630059090620,-0.207644,0.221491,-0.9516
1630059090630,-0.20496,0.21289,-0.951112
1630059090640,-0.20496,0.201544,-0.9502579999999999
1630059090649,-0.203557,0.187209,-0.950929
1630059090659,-0.205387,0.176839,-0.9533079999999999
1630059090668,-0.20599699999999999,0.174094,-0.951356
1630059090678,-0.20691199999999998,0.17116599999999998,-0.950624
1630059090688,-0.206058,0.177754,-0.957944
1630059090697,-0.206485,0.186599,-0.962519
1630059090707,-0.205021,0.197457,-0.96807
1630059090716,-0.201178,0.20599699999999999,-0.975451
1630059090726,-0.200507,0.209169,-0.978318
1630059090736,-0.199287,0.210084,-0.97844
1630059090745,-0.198372,0.206363,-0.9797819999999999
1630059090755,-0.200385,0.206363,-0.978684
1630059090764,-0.20014099999999999,0.198189,-0.974658
1630059090774,-0.200873,0.194712,-0.969656
1630059090784,-0.203618,0.194773,-0.96258
1630059090793,-0.206241,0.194346,-0.956175
1630059090803,-0.207339,0.196176,-0.95038
1630059090812,-0.208254,0.197884,-0.947391
1630059090822,-0.208254,0.199714,-0.9450729999999999
1630059090832,-0.206058,0.199104,-0.9435479999999999
1630059090841,-0.207888,0.196969,-0.938729
1630059090851,-0.207583,0.193858,-0.934703
1630059090860,-0.20782699999999998,0.192394,-0.931043
1630059090870,-0.205387,0.192821,-0.9292739999999999
1630059090880,-0.20557,0.189893,-0.930128
1630059090889,-0.203862,0.188246,-0.929518
1630059090899,-0.20288599999999998,0.186294,-0.931775
1630059090908,-0.201727,0.185135,-0.9347639999999999
1630059090918,-0.199592,0.183976,-0.940437
1630059090928,-0.199226,0.179096,-0.942755
1630059090937,-0.19794499999999998,0.1769,-0.945744
1630059090947,-0.197091,0.176534,-0.94794
1630059090956,-0.198982,0.174704,-0.9490379999999999
1630059090966,-0.197152,0.176229,-0.948184
1630059090976,-0.19641999999999998,0.173667,-0.947147
1630059090985,-0.197884,0.17580199999999999,-0.946415
1630059090995,-0.199043,0.174155,-0.945317
1630059091004,-0.197823,0.175131,-0.9459879999999999
1630059091014,-0.19550499999999998,0.174216,-0.949831
1630059091024,-0.193187,0.172935,-0.957456
1630059091033,-0.189893,0.169031,-0.963373
1630059091043,-0.184952,0.17055599999999999,-0.9697169999999999
1630059091052,-0.18318299999999998,0.169458,-0.9712419999999999
1630059091062,-0.179279,0.168238,-0.970754
1630059091072,-0.176168,0.166347,-0.968558
1630059091081,-0.17299599999999998,0.169214,-0.9678869999999999
1630059091091,-0.175375,0.165127,-0.964288
1630059091100,-0.17330099999999998,0.162504,-0.9606279999999999
1630059091110,-0.172264,0.16348,-0.96197
1630059091120,-0.1708,0.164334,-0.964166
1630059091129,-0.169458,0.160552,-0.965325
1630059091139,-0.167689,0.160186,-0.96685
1630059091148,-0.167018,0.159515,-0.9706319999999999
1630059091158,-0.167384,0.154452,-0.9688019999999999
1630059091168,-0.165249,0.15207299999999999,-0.96868
1630059091177,-0.163724,0.153354,-0.970205
1630059091187,-0.165066,0.151158,-0.966301
1630059091196,-0.163602,0.148413,-0.965935
1630059091206,-0.15982,0.146766,-0.967155
1630059091216,-0.16067399999999998,0.144814,-0.964227
1630059091225,-0.159576,0.14396,-0.96441
1630059091235,-0.159881,0.143167,-0.963922
1630059091244,-0.159088,0.142557,-0.965569
1630059091254,-0.157563,0.141947,-0.966301
1630059091264,-0.158478,0.136823,-0.963068
1630059091273,-0.157014,0.138775,-0.96441
1630059091283,-0.156282,0.140727,-0.965569
1630059091292,-0.156038,0.139629,-0.9621529999999999
1630059091302,-0.15481799999999998,0.138775,-0.963922
1630059091312,-0.153049,0.13786,-0.965386
1630059091321,-0.153964,0.132431,-0.9654469999999999
1630059091331,-0.152866,0.130418,-0.965813
1630059091340,-0.150243,0.126941,-0.9681919999999999
1630059091350,-0.149816,0.126209,-0.967948
1630059091360,-0.149938,0.12456199999999999,-0.96746
1630059091369,-0.149633,0.124196,-0.967704
1630059091379,-0.148596,0.121146,-0.967704
1630059091388,-0.145912,0.119194,-0.969534
1630059091398,-0.144448,0.11608299999999999,-0.969534
1630059091408,-0.144021,0.115351,-0.9712419999999999
1630059091417,-0.142252,0.114558,-0.973255
1630059091427,-0.139812,0.113826,-0.973926
1630059091436,-0.138592,0.112362,-0.97356
1630059091446,-0.137006,0.11053199999999999,-0.9749019999999999
1630059091456,-0.13633499999999998,0.109068,-0.974719
1630059091465,-0.134688,0.107421,-0.975878
1630059091475,-0.133956,0.10668899999999999,-0.976305
1630059091484,-0.133834,0.10638399999999999,-0.97661
1630059091494,-0.131699,0.104005,-0.978684
1630059091504,-0.131821,0.1037,-0.979416
1630059091513,-0.13054,0.10205299999999999,-0.981063
1630059091523,-0.13017399999999998,0.101504,-0.980209
1630059091532,-0.128893,0.100711,-0.9803919999999999
1630059091542,-0.129808,0.102175,-0.982344
1630059091552,-0.128405,0.10187,-0.980636
1630059091561,-0.128222,0.103273,-0.981124
1630059091571,-0.127673,0.102724,-0.981856
1630059091580,-0.128466,0.102602,-0.980514
1630059091590,-0.127734,0.10309,-0.978379
1630059091600,-0.128039,0.103212,-0.97783
1630059091609,-0.12749,0.10406599999999999,-0.978623
1630059091619,-0.127734,0.105652,-0.980514
1630059091628,-0.126941,0.10729899999999999,-0.983564
1630059091638,-0.127429,0.10607899999999999,-0.981551
1630059091648,-0.126514,0.102968,-0.980148
1630059091657,-0.127063,0.100284,-0.9773419999999999
1630059091667,-0.126697,0.10113799999999999,-0.977403
1630059091676,-0.12566,0.102663,-0.978806
1630059091686,-0.12456199999999999,0.102602,-0.9800869999999999
1630059091696,-0.12364699999999999,0.10248,-0.978501
1630059091705,-0.122732,0.101382,-0.977769
1630059091715,-0.121512,0.10052799999999999,-0.976854
1630059091724,-0.120902,0.099613,-0.9770369999999999
1630059091734,-0.12078,0.098027,-0.9773419999999999
1630059091744,-0.11962099999999999,0.098088,-0.9770369999999999
1630059091753,-0.118889,0.096441,-0.97905
1630059091763,-0.118584,0.097722,-0.978135
1630059091772,-0.119133,0.095465,-0.976854
1630059091782,-0.118645,0.096441,-0.977281
1630059091792,-0.118279,0.09467199999999999,-0.978196
1630059091801,-0.116205,0.094489,-0.980209
1630059091811,-0.11577799999999999,0.09467199999999999,-0.979233
1630059091820,-0.115595,0.092903,-0.978684
1630059091830,-0.116266,0.093452,-0.97966
1630059091840,-0.115656,0.094428,-0.983015
1630059091849,-0.117547,0.091866,-0.9797819999999999
1630059091859,-0.118218,0.09394,-0.9806969999999999
1630059091868,-0.118035,0.094794,-0.982893
1630059091878,-0.116815,0.094611,-0.982344
1630059091888,-0.114436,0.09406199999999999,-0.9828319999999999
1630059091897,-0.115412,0.09333,-0.982405
1630059091907,-0.112667,0.09174399999999999,-0.982161
1630059091916,-0.113094,0.091378,-0.9803919999999999
1630059091926,-0.112423,0.092171,-0.980453
1630059091936,-0.113216,0.093818,-0.982161
1630059091945,-0.11193499999999999,0.093452,-0.982039
1630059091955,-0.111081,0.092903,-0.981368
1630059091964,-0.11102,0.094184,-0.981185
1630059091974,-0.111081,0.093086,-0.981185
1630059091984,-0.110349,0.093635,-0.981124
1630059091993,-0.110166,0.092964,-0.981063
1630059092003,-0.110288,0.093086,-0.982039
1630059092012,-0.11022699999999999,0.09211,-0.981185
1630059092022,-0.108641,0.091012,-0.98149
1630059092032,-0.109556,0.09113399999999999,-0.980514
1630059092041,-0.108641,0.092598,-0.979294
1630059092051,-0.104615,0.096014,-0.9821
1630059092060,-0.106323,0.097417,-0.98088
1630059092070,-0.106323,0.098149,-0.98027
1630059092080,-0.106262,0.097966,-0.979416
1630059092089,-0.106567,0.099247,-0.978989
1630059092099,-0.10919,0.099613,-0.975756
1630059092108,-0.11083699999999999,0.100772,-0.97539
1630059092118,-0.110654,0.099735,-0.975146
1630059092128,-0.110471,0.101565,-0.9782569999999999
1630059092137,-0.10919,0.102419,-0.978928
1630059092147,-0.110166,0.10376099999999999,-0.977159
1630059092156,-0.110654,0.104188,-0.975146
1630059092166,-0.11053199999999999,0.102419,-0.97539
1630059092176,-0.111203,0.101504,-0.974109
1630059092185,-0.111325,0.099796,-0.972889
1630059092195,-0.111447,0.09991799999999999,-0.975451
1630059092204,-0.111386,0.10065,-0.978928
1630059092214,-0.110959,0.102541,-0.981185
1630059092224,-0.109739,0.101565,-0.985699
1630059092233,-0.109983,0.100955,-0.984296
1630059092243,-0.110105,0.101687,-0.9828319999999999
1630059092252,-0.11053199999999999,0.09881999999999999,-0.979843
1630059092262,-0.110105,0.099857,-0.98271
1630059092272,-0.110288,0.100467,-0.981856
1630059092281,-0.109678,0.099552,-0.979721
1630059092291,-0.109068,0.09943,-0.9797819999999999
1630059092300,-0.109495,0.099247,-0.97966
1630059092310,-0.108092,0.09698999999999999,-0.980819
1630059092320,-0.10736,0.097478,-0.982588
1630059092329,-0.105957,0.098149,-0.983381
1630059092339,-0.10729899999999999,0.098271,-0.982588
1630059092348,-0.107238,0.098454,-0.98149
1630059092358,-0.108641,0.09881999999999999,-0.979904
1630059092368,-0.106445,0.097112,-0.97966
1630059092377,-0.10675,0.09820999999999999,-0.980148
1630059092387,-0.105591,0.099186,-0.98027
1630059092396,-0.10675,0.10083299999999999,-0.980148
1630059092406,-0.106567,0.101687,-0.980209
1630059092416,-0.106201,0.10004,-0.980514
1630059092425,-0.107421,0.101931,-0.979355
1630059092435,-0.10931199999999999,0.101931,-0.976305
1630059092444,-0.11053199999999999,0.100589,-0.977281
1630059092454,-0.109861,0.102968,-0.97783
1630059092464,-0.112179,0.10126,-0.978623
1630059092473,-0.110715,0.102114,-0.981246
1630059092483,-0.111691,0.10144299999999999,-0.980514
1630059092492,-0.111203,0.10144299999999999,-0.978074
1630059092502,-0.112911,0.10144299999999999,-0.975329
1630059092512,-0.113399,0.102114,-0.975329
1630059092521,-0.114192,0.101382,-0.975878
1630059092531,-0.11376499999999999,0.10205299999999999,-0.978013
1630059092540,-0.113582,0.102236,-0.9770369999999999
1630059092550,-0.114131,0.104005,-0.977464
1630059092560,-0.114253,0.103517,-0.979599
1630059092569,-0.11547299999999999,0.102785,-0.976549
1630059092579,-0.11486299999999999,0.102785,-0.976793
1630059092588,-0.115046,0.103578,-0.978196
1630059092598,-0.114741,0.10345599999999999,-0.978074
1630059092608,-0.114985,0.104493,-0.97905
1630059092617,-0.11547299999999999,0.104737,-0.97966
1630059092627,-0.11547299999999999,0.10498099999999999,-0.9797819999999999
1630059092636,-0.117059,0.10376099999999999,-0.979843
1630059092646,-0.11712,0.10467599999999999,-0.979538
1630059092656,-0.116327,0.10315099999999999,-0.979111
1630059092665,-0.114741,0.103334,-0.978501
1630059092675,-0.11468,0.103029,-0.978745
1630059092684,-0.11406999999999999,0.102968,-0.9782569999999999
1630059092694,-0.114192,0.102419,-0.978684
1630059092704,-0.114802,0.10205299999999999,-0.977708
1630059092713,-0.114619,0.10248,-0.977281
1630059092723,-0.114375,0.10174799999999999,-0.975573
1630059092732,-0.11486299999999999,0.102236,-0.9755119999999999
1630059092742,-0.115534,0.103212,-0.9739869999999999
1630059092752,-0.116571,0.10498099999999999,-0.973133
1630059092761,-0.118218,0.105652,-0.973865
1630059092771,-0.117913,0.10736,-0.974719
1630059092780,-0.117913,0.10553,-0.976488
1630059092790,-0.118218,0.105103,-0.97783
1630059092800,-0.119682,0.104554,-0.979294
1630059092809,-0.11895,0.105652,-0.981795
1630059092819,-0.118767,0.10699399999999999,-0.982893
1630059092828,-0.119133,0.10736,-0.9831369999999999
1630059092838,-0.11962099999999999,0.106262,-0.981978
1630059092848,-0.118889,0.103883,-0.981063
1630059092857,-0.119438,0.101687,-0.977708
1630059092867,-0.11809599999999999,0.100467,-0.976305
1630059092876,-0.118218,0.10113799999999999,-0.975695
1630059092886,-0.117364,0.100772,-0.976244
1630059092896,-0.11779099999999999,0.09943,-0.97783
1630059092905,-0.11699799999999999,0.099613,-0.978684
1630059092915,-0.116815,0.099308,-0.979965
1630059092924,-0.116632,0.099796,-0.979538
1630059092934,-0.11712,0.099979,-0.979599
1630059092944,-0.116144,0.099552,-0.979294
1630059092953,-0.115534,0.095709,-0.978745
1630059092963,-0.116571,0.096807,-0.97783
1630059092972,-0.116449,0.096014,-0.976244
1630059092982,-0.114558,0.096258,-0.976488
1630059092992,-0.115961,0.096502,-0.977098
1630059093001,-0.115595,0.097112,-0.977586
1630059093011,-0.115534,0.096441,-0.977891
1630059093020,-0.11486299999999999,0.097112,-0.977464
1630059093030,-0.1159,0.096746,-0.978135
1630059093040,-0.115534,0.09759999999999999,-0.98088
1630059093049,-0.116571,0.097112,-0.978318
1630059093059,-0.116266,0.096014,-0.980941
1630059093068,-0.116144,0.097539,-0.981368
1630059093078,-0.11699799999999999,0.097234,-0.981063
1630059093088,-0.116632,0.097112,-0.9806969999999999
1630059093097,-0.117486,0.096807,-0.9797819999999999
1630059093107,-0.117974,0.095404,-0.978684
1630059093116,-0.118035,0.095953,-0.979843
1630059093126,-0.117059,0.095831,-0.979843
1630059093136,-0.11651,0.09698999999999999,-0.980514
1630059093145,-0.117181,0.095343,-0.978806
1630059093155,-0.116449,0.094611,-0.979111
1630059093164,-0.115656,0.094184,-0.978928
1630059093174,-0.114741,0.094855,-0.980453
1630059093184,-0.115046,0.096075,-0.979538
1630059093193,-0.114924,0.096624,-0.982039
1630059093203,-0.115229,0.097722,-0.980819
1630059093212,-0.117669,0.097783,-0.9810019999999999
1630059093222,-0.11651,0.097722,-0.982344
1630059093232,-0.113521,0.096197,-0.983198
1630059093241,-0.11315499999999999,0.095099,-0.980209
1630059093251,-0.114253,0.09455,-0.9785619999999999
1630059093260,-0.114436,0.095526,-0.979294
1630059093270,-0.113643,0.097722,-0.981368
1630059093280,-0.11315499999999999,0.09790499999999999,-0.98149
1630059093289,-0.114619,0.099064,-0.9794769999999999
1630059093299,-0.11529,0.098881,-0.976976
1630059093308,-0.115534,0.09991799999999999,-0.977098
1630059093318,-0.113826,0.098393,-0.976976
1630059093328,-0.112728,0.098454,-0.979599
1630059093337,-0.112606,0.098027,-0.979538
1630059093347,-0.112789,0.097539,-0.979599
1630059093356,-0.111386,0.09729499999999999,-0.9810019999999999
1630059093366,-0.11254499999999999,0.09759999999999999,-0.9803919999999999
1630059093376,-0.111996,0.098576,-0.981795
1630059093385,-0.112179,0.097722,-0.981429
1630059093395,-0.112179,0.097844,-0.979538
1630059093404,-0.113033,0.09790499999999999,-0.976366
1630059093414,-0.11345999999999999,0.10083299999999999,-0.978196
1630059093424,-0.113826,0.101931,-0.979416
1630059093433,-0.114497,0.10174799999999999,-0.97844
1630059093443,-0.11468,0.102175,-0.976061
1630059093452,-0.113521,0.101931,-0.97783
1630059093462,-0.112301,0.101016,-0.98088
1630059093472,-0.109983,0.1037,-0.984845
1630059093481,-0.111264,0.10577399999999999,-0.98454
1630059093491,-0.111264,0.103578,-0.981978
1630059093500,-0.110593,0.104554,-0.9813069999999999
1630059093510,-0.110654,0.10437099999999999,-0.9810019999999999
1630059093520,-0.110654,0.104737,-0.979111
1630059093529,-0.10900699999999999,0.105713,-0.977708
1630059093539,-0.107848,0.106201,-0.977769
1630059093548,-0.106018,0.106323,-0.979538
1630059093558,-0.10675,0.103273,-0.978684
1630059093568,-0.106018,0.103395,-0.979599
1630059093577,-0.103639,0.101687,-0.979233
1630059093587,-0.103517,0.101809,-0.980758
1630059093596,-0.103395,0.101077,-0.981856
1630059093606,-0.103822,0.100467,-0.9810019999999999
1630059093616,-0.103029,0.099674,-0.980758
1630059093625,-0.10406599999999999,0.09790499999999999,-0.977708
1630059093635,-0.103273,0.09790499999999999,-0.976305
1630059093644,-0.10431,0.098942,-0.97478
1630059093654,-0.105225,0.098576,-0.975146
1630059093664,-0.104493,0.100467,-0.973621
1630059093673,-0.105225,0.101016,-0.9749019999999999
1630059093683,-0.104615,0.10309,-0.976366
1630059093692,-0.107055,0.102968,-0.97478
1630059093702,-0.108153,0.103578,-0.976
1630059093712,-0.108885,0.10498099999999999,-0.977098
1630059093721,-0.107726,0.105225,-0.979355
1630059093731,-0.10668899999999999,0.104615,-0.9782569999999999
1630059093740,-0.10675,0.102907,-0.980026
1630059093750,-0.106018,0.102541,-0.979111
1630059093760,-0.105469,0.100467,-0.979538
1630059093769,-0.105347,0.098942,-0.980331
1630059093779,-0.10498099999999999,0.096929,-0.9791719999999999
1630059093788,-0.10467599999999999,0.095099,-0.980209
1630059093798,-0.104249,0.09455,-0.981429
1630059093808,-0.10467599999999999,0.094245,-0.980575
1630059093817,-0.10406599999999999,0.094733,-0.9810019999999999
1630059093827,-0.103517,0.094306,-0.983381
1630059093836,-0.103212,0.093025,-0.9822219999999999
1630059093846,-0.10406599999999999,0.094489,-0.983869
1630059093856,-0.10315099999999999,0.095404,-0.983015
1630059093865,-0.104127,0.095038,-0.981795
1630059093875,-0.10345599999999999,0.095953,-0.982466
1630059093884,-0.103822,0.09558699999999999,-0.981429
1630059093894,-0.10376099999999999,0.096075,-0.981551
1630059093904,-0.10431,0.096868,-0.9810019999999999
1630059093913,-0.103822,0.098149,-0.980758
1630059093923,-0.10309,0.097966,-0.979538
1630059093932,-0.10345599999999999,0.09851499999999999,-0.980209
1630059093942,-0.103822,0.097234,-0.9797819999999999
1630059093952,-0.10315099999999999,0.096136,-0.9779519999999999
1630059093961,-0.102968,0.096258,-0.97844
1630059093971,-0.102724,0.09516,-0.9794769999999999
1630059093980,-0.101992,0.09558699999999999,-0.981124
1630059093990,-0.102358,0.094794,-0.982344
1630059094000,-0.101809,0.094184,-0.981978
1630059094009,-0.102663,0.093757,-0.981185
1630059094019,-0.102663,0.092842,-0.9813069999999999
1630059094028,-0.102785,0.093025,-0.9816119999999999
1630059094038,-0.101626,0.09528199999999999,-0.982039
1630059094048,-0.10315099999999999,0.09436699999999999,-0.978806
1630059094057,-0.102663,0.096258,-0.9797819999999999
1630059094067,-0.102907,0.096197,-0.980026
1630059094076,-0.10437099999999999,0.096014,-0.976976
1630059094086,-0.105103,0.095953,-0.975024
1630059094096,-0.104798,0.095526,-0.976915
1630059094105,-0.10492,0.096136,-0.979416
1630059094115,-0.104127,0.099796,-0.983198
1630059094124,-0.105042,0.100589,-0.985089
1630059094134,-0.105103,0.09881999999999999,-0.985516
1630059094144,-0.106018,0.09638,-0.983015
1630059094153,-0.103639,0.094306,-0.982405
1630059094163,-0.10467599999999999,0.09436699999999999,-0.979721
1630059094172,-0.1037,0.09467199999999999,-0.9797819999999999
1630059094182,-0.102602,0.094184,-0.979233
1630059094192,-0.102114,0.094184,-0.9806969999999999
1630059094201,-0.101992,0.094855,-0.9810019999999999
1630059094211,-0.101321,0.094245,-0.981856
1630059094220,-0.10052799999999999,0.09406199999999999,-0.983259
1630059094230,-0.100894,0.093452,-0.982283
1630059094240,-0.101077,0.094001,-0.98149
1630059094249,-0.100406,0.09272,-0.980148
1630059094259,-0.100162,0.094245,-0.978318
1630059094268,-0.100467,0.094184,-0.978684
1630059094278,-0.100772,0.093818,-0.9791719999999999
1630059094288,-0.099613,0.093696,-0.979294
1630059094297,-0.100772,0.093025,-0.981185
1630059094307,-0.100162,0.09174399999999999,-0.981734
1630059094316,-0.099674,0.092293,-0.984113
1630059094326,-0.101809,0.092415,-0.9821
1630059094336,-0.102175,0.093208,-0.9816119999999999
1630059094345,-0.102541,0.096502,-0.983076
1630059094355,-0.103334,0.097844,-0.982771
1630059094364,-0.102785,0.09759999999999999,-0.982893
1630059094374,-0.10345599999999999,0.098149,-0.982039
1630059094384,-0.102907,0.097356,-0.980575
1630059094393,-0.102785,0.096075,-0.9785619999999999
1630059094403,-0.102419,0.096624,-0.9779519999999999
1630059094412,-0.102907,0.096075,-0.978318
1630059094422,-0.102968,0.096868,-0.977464
1630059094432,-0.103517,0.097478,-0.976549
1630059094441,-0.103395,0.098759,-0.976915
1630059094451,-0.103639,0.099552,-0.977586
1630059094460,-0.104127,0.099613,-0.979416
1630059094470,-0.104554,0.10004,-0.980514
1630059094480,-0.10437099999999999,0.097966,-0.982039
1630059094489,-0.103639,0.097173,-0.9831369999999999
1630059094499,-0.102541,0.095831,-0.98454
1630059094508,-0.10248,0.094916,-0.983625
1630059094518,-0.103212,0.095343,-0.983076
1630059094528,-0.10187,0.09577,-0.982466
1630059094537,-0.102419,0.095831,-0.982649
1630059094547,-0.10126,0.097783,-0.981429
1630059094556,-0.100589,0.097783,-0.980636
1630059094566,-0.10144299999999999,0.099186,-0.97905
1630059094576,-0.10126,0.097844,-0.976244
1630059094585,-0.10083299999999999,0.096746,-0.9773419999999999
1630059094595,-0.10126,0.096746,-0.977525
1630059094604,-0.101809,0.096136,-0.97722
1630059094614,-0.101565,0.096563,-0.977769
1630059094624,-0.101382,0.096014,-0.977464
1630059094633,-0.10126,0.09436699999999999,-0.979355
1630059094643,-0.10065,0.09516,-0.979294
1630059094652,-0.101809,0.096136,-0.980453
1630059094662,-0.102724,0.097417,-0.981978
1630059094672,-0.102236,0.097722,-0.980636
1630059094681,-0.103029,0.099857,-0.98027
1630059094691,-0.102358,0.097844,-0.9813069999999999
1630059094700,-0.10248,0.09638,-0.979294
1630059094710,-0.102541,0.096624,-0.977281
1630059094720,-0.10284599999999999,0.096868,-0.97783
1630059094729,-0.10113799999999999,0.09729499999999999,-0.980819
1630059094739,-0.100772,0.099247,-0.98332
1630059094748,-0.100406,0.098698,-0.984601
1630059094758,-0.10004,0.096075,-0.98332
1630059094768,-0.100406,0.092598,-0.980026
1630059094777,-0.09991799999999999,0.09174399999999999,-0.978928
1630059094787,-0.099308,0.091927,-0.979538
1630059094796,-0.097844,0.09235399999999999,-0.980331
1630059094806,-0.097478,0.091927,-0.9821
1630059094816,-0.097783,0.0915,-0.980636
1630059094825,-0.09881999999999999,0.09235399999999999,-0.981368
1630059094835,-0.097966,0.0915,-0.981734
1630059094844,-0.096746,0.090341,-0.984174
1630059094854,-0.097844,0.090585,-0.9825269999999999
1630059094864,-0.097478,0.09089,-0.982954
1630059094873,-0.099064,0.09265899999999999,-0.982466
1630059094883,-0.099552,0.09333,-0.981978
1630059094892,-0.099186,0.09394,-0.982344
1630059094902,-0.099735,0.093696,-0.983808
1630059094912,-0.098332,0.093452,-0.983564
1630059094921,-0.099674,0.093025,-0.982588
1630059094931,-0.099979,0.09265899999999999,-0.983198
1630059094940,-0.098637,0.09211,-0.9843569999999999
1630059094950,-0.100589,0.088694,-0.980514
1630059094960,-0.10004,0.091195,-0.98088
1630059094969,-0.10113799999999999,0.091012,-0.982039
1630059094979,-0.100711,0.092537,-0.9822219999999999
1630059094988,-0.100894,0.094001,-0.9831369999999999
1630059094998,-0.10174799999999999,0.093696,-0.982405
1630059095008,-0.101077,0.09174399999999999,-0.9816119999999999
1630059095017,-0.10065,0.090158,-0.978928
1630059095027,-0.10083299999999999,0.089792,-0.978684
1630059095036,-0.10004,0.091378,-0.9819169999999999
1630059095046,-0.099552,0.09174399999999999,-0.9813069999999999
1630059095056,-0.099247,0.091988,-0.982283
1630059095065,-0.099186,0.090646,-0.98149
1630059095075,-0.098393,0.08820599999999999,-0.980026
1630059095084,-0.098881,0.08784,-0.980331
1630059095094,-0.097722,0.087474,-0.981368
1630059095104,-0.098454,0.08723,-0.982161
1630059095113,-0.099064,0.086925,-0.9822219999999999
1630059095123,-0.099003,0.086986,-0.98271
1630059095132,-0.098271,0.086986,-0.983625
1630059095142,-0.099491,0.087535,-0.982954
1630059095152,-0.098576,0.087413,-0.983808
1630059095161,-0.09943,0.087047,-0.983198
1630059095171,-0.099064,0.087718,-0.981734
1630059095180,-0.099552,0.088694,-0.9819169999999999
1630059095190,-0.100162,0.088999,-0.981124
1630059095200,-0.097966,0.088572,-0.9819169999999999
1630059095209,-0.098393,0.08881599999999999,-0.979233
1630059095219,-0.099308,0.090646,-0.981124
1630059095228,-0.098454,0.088328,-0.981063
1630059095238,-0.097112,0.087474,-0.978928
1630059095248,-0.099247,0.087047,-0.97844
1630059095257,-0.099186,0.087657,-0.979355
1630059095267,-0.099247,0.08723,-0.9828319999999999
1630059095276,-0.098454,0.08784,-0.9837469999999999
1630059095286,-0.098149,0.087596,-0.983564
1630059095296,-0.098637,0.086986,-0.983564
1630059095305,-0.099186,0.085705,-0.984174
1630059095315,-0.099491,0.086559,-0.981978
1630059095324,-0.100101,0.086742,-0.9803919999999999
1630059095334,-0.100284,0.08588799999999999,-0.981368
1630059095344,-0.099247,0.086864,-0.982954
1630059095353,-0.099247,0.08851099999999999,-0.985699
1630059095363,-0.09881999999999999,0.090341,-0.98881
1630059095372,-0.098881,0.088755,-0.988322
1630059095382,-0.099491,0.085034,-0.984479
1630059095392,-0.100467,0.084668,-0.981063
1630059095401,-0.099735,0.086071,-0.980026
1630059095411,-0.098027,0.08680299999999999,-0.981185
1630059095420,-0.098637,0.08820599999999999,-0.981551
1630059095430,-0.098698,0.087779,-0.98088
1630059095440,-0.100284,0.087962,-0.980331
1630059095449,-0.098393,0.087962,-0.9821
1630059095459,-0.09790499999999999,0.087718,-0.982893
1630059095468,-0.098454,0.088145,-0.98271
1630059095478,-0.097783,0.087718,-0.981734
1630059095488,-0.097966,0.087962,-0.980636
1630059095497,-0.098637,0.08784,-0.981124
1630059095507,-0.097478,0.086376,-0.9810019999999999
1630059095516,-0.09729499999999999,0.08784,-0.981795
1630059095526,-0.097234,0.08845,-0.979965
1630059095536,-0.098942,0.088938,-0.979355
1630059095545,-0.097722,0.088633,-0.978745
1630059095555,-0.097783,0.087474,-0.982405
1630059095564,-0.09790499999999999,0.08851099999999999,-0.981734
1630059095574,-0.099369,0.08723,-0.979904
1630059095584,-0.098576,0.088328,-0.9813069999999999
1630059095593,-0.099369,0.090341,-0.981063
1630059095603,-0.099308,0.091256,-0.982405
1630059095612,-0.099064,0.092598,-0.98271
1630059095622,-0.100101,0.091378,-0.98149
1630059095632,-0.10065,0.088023,-0.980758
1630059095641,-0.10144299999999999,0.087596,-0.979721
1630059095651,-0.099979,0.088084,-0.9806969999999999
1630059095660,-0.099003,0.087474,-0.982405
1630059095670,-0.10004,0.088084,-0.982466
1630059095680,-0.10004,0.08851099999999999,-0.982283
1630059095689,-0.099674,0.088877,-0.9825269999999999
1630059095699,-0.099552,0.090158,-0.982466
1630059095708,-0.10083299999999999,0.089609,-0.9816119999999999
1630059095718,-0.100345,0.08942599999999999,-0.981429
1630059095728,-0.10004,0.089304,-0.981551
1630059095737,-0.09943,0.086742,-0.982344
1630059095747,-0.09881999999999999,0.086742,-0.98271
1630059095756,-0.09943,0.08784,-0.981978
1630059095766,-0.10022299999999999,0.088328,-0.983076
1630059095776,-0.098759,0.088877,-0.9837469999999999
1630059095785,-0.099857,0.08845,-0.98271
1630059095795,-0.099552,0.08851099999999999,-0.982344
1630059095804,-0.098698,0.088633,-0.980758
1630059095814,-0.099064,0.088938,-0.979843
1630059095824,-0.099369,0.088999,-0.980209
1630059095833,-0.098698,0.08845,-0.9797819999999999
1630059095843,-0.098942,0.08881599999999999,-0.978989
1630059095852,-0.10083299999999999,0.089182,-0.977708
1630059095862,-0.101504,0.08906,-0.978928
1630059095872,-0.10205299999999999,0.08851099999999999,-0.97844
1630059095881,-0.102419,0.090402,-0.981185
1630059095891,-0.10205299999999999,0.09089,-0.980758
1630059095900,-0.101809,0.089975,-0.981551
1630059095910,-0.10174799999999999,0.091805,-0.982466
1630059095920,-0.10284599999999999,0.090158,-0.981795
1630059095929,-0.103334,0.089975,-0.979233
1630059095939,-0.103639,0.090768,-0.979233
1630059095948,-0.10309,0.089914,-0.980026
1630059095958,-0.10187,0.090097,-0.98149
1630059095968,-0.102541,0.09272,-0.984174
1630059095977,-0.101504,0.09333,-0.986431
1630059095987,-0.10187,0.0915,-0.9834419999999999
1630059095996,-0.102907,0.089365,-0.981673
1630059096006,-0.102602,0.08851099999999999,-0.979355
1630059096016,-0.10187,0.088389,-0.980026
1630059096025,-0.10174799999999999,0.08790099999999999,-0.980758
1630059096035,-0.101077,0.088267,-0.981673
1630059096044,-0.099796,0.087474,-0.9822219999999999
1630059096054,-0.099369,0.086864,-0.983198
1630059096064,-0.099552,0.088267,-0.983198
1630059096073,-0.099674,0.087291,-0.981978
1630059096083,-0.099369,0.08723,-0.981795
1630059096092,-0.10052799999999999,0.086925,-0.981246
1630059096102,-0.099308,0.087962,-0.9816119999999999
1630059096112,-0.099552,0.087169,-0.980514
1630059096121,-0.100589,0.089243,-0.981185
1630059096131,-0.100772,0.09028,-0.980941
1630059096140,-0.101382,0.089487,-0.981246
1630059096150,-0.101077,0.089182,-0.982161
1630059096160,-0.100406,0.088572,-0.98149
1630059096169,-0.100955,0.090219,-0.9843569999999999
1630059096179,-0.102358,0.090219,-0.981978
1630059096188,-0.103883,0.088877,-0.980453
1630059096198,-0.102419,0.090402,-0.981124
1630059096208,-0.102907,0.09028,-0.980575
1630059096217,-0.103639,0.092598,-0.981368
1630059096227,-0.103578,0.093025,-0.9821
1630059096236,-0.103944,0.092232,-0.9816119999999999
1630059096246,-0.104249,0.09174399999999999,-0.981246
1630059096256,-0.105042,0.0915,-0.980209
1630059096265,-0.104432,0.091195,-0.980514
1630059096275,-0.10406599999999999,0.091073,-0.98088
1630059096284,-0.104432,0.090829,-0.9800869999999999
1630059096294,-0.105286,0.091561,-0.979721
1630059096304,-0.104798,0.091988,-0.9797819999999999
1630059096313,-0.10467599999999999,0.09333,-0.980575
1630059096323,-0.10431,0.093635,-0.9803919999999999
1630059096332,-0.10431,0.092232,-0.980453
1630059096342,-0.105713,0.090951,-0.979965
1630059096352,-0.104554,0.090463,-0.981124
1630059096361,-0.104127,0.090158,-0.980514
1630059096371,-0.103273,0.087596,-0.981185
1630059096380,-0.103944,0.089243,-0.9794769999999999
1630059096390,-0.104798,0.08845,-0.979904
1630059096400,-0.104188,0.088572,-0.981795
1630059096409,-0.105042,0.091012,-0.98149
1630059096419,-0.104798,0.091561,-0.983076
1630059096428,-0.10467599999999999,0.092232,-0.981063
1630059096438,-0.104493,0.092293,-0.9821
1630059096448,-0.103578,0.090219,-0.981368
1630059096457,-0.104005,0.090829,-0.9816119999999999
1630059096467,-0.103822,0.088999,-0.98149
1630059096476,-0.102724,0.088084,-0.9831369999999999
1630059096486,-0.10248,0.088999,-0.9822219999999999
1630059096496,-0.10187,0.088145,-0.981795
1630059096505,-0.102541,0.087291,-0.981185
1630059096515,-0.103334,0.08790099999999999,-0.98088
1630059096524,-0.102358,0.087962,-0.980758
1630059096534,-0.102724,0.08973099999999999,-0.9806969999999999
1630059096544,-0.10431,0.09113399999999999,-0.980758
1630059096553,-0.102968,0.092171,-0.98271
1630059096563,-0.104737,0.092232,-0.9816119999999999
1630059096572,-0.105103,0.092964,-0.980148
1630059096582,-0.105225,0.093879,-0.977769
1630059096592,-0.10607899999999999,0.09528199999999999,-0.977708
1630059096601,-0.10614,0.096441,-0.979111
1630059096611,-0.105164,0.098088,-0.982954
1630059096620,-0.104554,0.098698,-0.9831369999999999
1630059096630,-0.106628,0.09729499999999999,-0.981673
1630059096640,-0.107116,0.095221,-0.98088
1630059096649,-0.107055,0.093757,-0.980819
1630059096659,-0.10431,0.091927,-0.980514
1630059096668,-0.104127,0.09211,-0.98027
1630059096678,-0.103212,0.092415,-0.980514
1630059096688,-0.102541,0.093635,-0.9800869999999999
1630059096697,-0.102419,0.09436699999999999,-0.980819
1630059096707,-0.101931,0.093635,-0.980453
1630059096716,-0.101626,0.09528199999999999,-0.980514
1630059096726,-0.101565,0.09467199999999999,-0.979904
1630059096736,-0.10126,0.094306,-0.979965
1630059096745,-0.101321,0.09333,-0.979538
1630059096755,-0.10174799999999999,0.093391,-0.979843
1630059096764,-0.100894,0.09467199999999999,-0.979904
1630059096774,-0.101626,0.09455,-0.980331
1630059096784,-0.102114,0.094184,-0.9806969999999999
1630059096793,-0.101626,0.093757,-0.980148
1630059096803,-0.101809,0.09455,-0.98088
1630059096812,-0.10144299999999999,0.09467199999999999,-0.984296
1630059096822,-0.102907,0.09638,-0.983564
1630059096832,-0.103883,0.093574,-0.980758
1630059096841,-0.103822,0.096441,-0.98149
1630059096851,-0.105408,0.096258,-0.9797819999999999
1630059096860,-0.105652,0.096685,-0.981795
1630059096870,-0.104615,0.098088,-0.981368
1630059096880,-0.106323,0.097661,-0.980026
1630059096889,-0.106933,0.097417,-0.9797819999999999
1630059096899,-0.106262,0.097539,-0.9779519999999999
1630059096908,-0.106567,0.097478,-0.97844
1630059096918,-0.10699399999999999,0.096807,-0.977525
1630059096928,-0.107787,0.097234,-0.978074
1630059096937,-0.106811,0.097783,-0.97783
1630059096947,-0.10668899999999999,0.096929,-0.978745
1630059096956,-0.105591,0.096868,-0.978684
1630059096966,-0.10675,0.097051,-0.979294
1630059096976,-0.105896,0.097112,-0.98088
1630059096985,-0.10577399999999999,0.09698999999999999,-0.9797819999999999
1630059096995,-0.105713,0.096075,-0.9806969999999999
1630059097004,-0.106018,0.095831,-0.979843
1630059097014,-0.105896,0.094733,-0.97966
1630059097024,-0.10553,0.095404,-0.9800869999999999
1630059097033,-0.10498099999999999,0.094855,-0.980514
1630059097043,-0.106201,0.096136,-0.9816119999999999
1630059097052,-0.10699399999999999,0.096868,-0.980758
1630059097062,-0.10614,0.09698999999999999,-0.979965
1630059097072,-0.107238,0.09638,-0.979904
1630059097081,-0.106628,0.095648,-0.9803919999999999
1630059097091,-0.107238,0.094916,-0.979416
1630059097100,-0.107177,0.094733,-0.978928
1630059097110,-0.106323,0.095404,-0.981429
1630059097120,-0.107543,0.096258,-0.9806969999999999
1630059097129,-0.10668899999999999,0.096319,-0.9803919999999999
1630059097139,-0.10790899999999999,0.096136,-0.978928
1630059097148,-0.10668899999999999,0.095648,-0.9791719999999999
1630059097158,-0.105591,0.094794,-0.977891
1630059097168,-0.106262,0.095343,-0.97844
1630059097177,-0.106933,0.09638,-0.980209
1630059097187,-0.106018,0.096807,-0.981795
1630059097196,-0.10675,0.09698999999999999,-0.982466
1630059097206,-0.107055,0.095953,-0.981185
1630059097216,-0.10858,0.09577,-0.98149
1630059097225,-0.108702,0.095099,-0.981124
1630059097235,-0.108275,0.09558699999999999,-0.981246
1630059097244,-0.107665,0.09516,-0.981429
1630059097254,-0.10614,0.096136,-0.982344
1630059097264,-0.107238,0.096197,-0.982588
1630059097273,-0.108275,0.094306,-0.980941
1630059097283,-0.107665,0.094916,-0.978806
1630059097292,-0.108092,0.095953,-0.979538
1630059097302,-0.108153,0.095953,-0.980148
1630059097312,-0.107055,0.09759999999999999,-0.982161
1630059097321,-0.10699399999999999,0.100894,-0.982344
1630059097331,-0.108397,0.100345,-0.981673
1630059097340,-0.108336,0.09759999999999999,-0.979965
1630059097350,-0.10858,0.095831,-0.977525
1630059097360,-0.10900699999999999,0.09698999999999999,-0.9764269999999999
1630059097369,-0.108153,0.097539,-0.977098
1630059097379,-0.107421,0.09698999999999999,-0.97722
1630059097388,-0.105286,0.096868,-0.978806
1630059097398,-0.10614,0.097051,-0.978318
1630059097408,-0.104859,0.096624,-0.9800869999999999
1630059097417,-0.104554,0.096807,-0.981795
1630059097427,-0.10553,0.095953,-0.981795
1630059097436,-0.104432,0.09516,-0.981978
1630059097446,-0.106018,0.092293,-0.98149
1630059097456,-0.104188,0.093757,-0.9816119999999999
1630059097465,-0.10437099999999999,0.092781,-0.98149
1630059097475,-0.104859,0.092476,-0.9816119999999999
1630059097484,-0.105225,0.093757,-0.980636
1630059097494,-0.105652,0.094184,-0.98149
1630059097504,-0.105957,0.093452,-0.98149
1630059097513,-0.105652,0.093879,-0.9816119999999999
1630059097523,-0.105591,0.09516,-0.982405
1630059097532,-0.106811,0.095465,-0.98088
1630059097542,-0.10760399999999999,0.095404,-0.98027
1630059097552,-0.10729899999999999,0.095831,-0.979965
1630059097561,-0.108031,0.095709,-0.980636
1630059097571,-0.107116,0.096502,-0.980941
1630059097580,-0.10614,0.096136,-0.982344
1630059097590,-0.106628,0.096075,-0.980514
1630059097600,-0.10638399999999999,0.09558699999999999,-0.97966
1630059097609,-0.107055,0.095038,-0.979355
1630059097619,-0.107116,0.095526,-0.978196
1630059097628,-0.107055,0.095953,-0.978623
1630059097638,-0.106262,0.095465,-0.980148
1630059097648,-0.105957,0.09698999999999999,-0.980453
1630059097657,-0.10699399999999999,0.098332,-0.9797819999999999
1630059097667,-0.106933,0.097844,-0.979233
1630059097676,-0.106262,0.098149,-0.980026
1630059097686,-0.10498099999999999,0.097173,-0.98027
1630059097696,-0.105957,0.096502,-0.979111
1630059097705,-0.104798,0.095404,-0.979294
1630059097715,-0.10498099999999999,0.09516,-0.978135
1630059097724,-0.10492,0.094855,-0.977281
1630059097734,-0.10467599999999999,0.095465,-0.97844
1630059097744,-0.105042,0.096075,-0.9794769999999999
1630059097753,-0.104432,0.097478,-0.980026
1630059097763,-0.103883,0.096136,-0.982039
1630059097772,-0.104615,0.097051,-0.980941
1630059097782,-0.105286,0.098088,-0.981124
1630059097792,-0.10638399999999999,0.097417,-0.981734
1630059097801,-0.10577399999999999,0.096868,-0.9810019999999999
1630059097811,-0.10638399999999999,0.09638,-0.980514
1630059097820,-0.105896,0.097356,-0.9810019999999999
1630059097830,-0.10607899999999999,0.097112,-0.979904
1630059097840,-0.105896,0.096746,-0.9797819999999999
1630059097849,-0.106506,0.096929,-0.979416
1630059097859,-0.106628,0.096014,-0.978928
1630059097868,-0.105103,0.094916,-0.979233
1630059097878,-0.105286,0.094611,-0.9794769999999999
1630059097888,-0.105286,0.096746,-0.980941
1630059097897,-0.106567,0.096929,-0.980331
1630059097907,-0.106262,0.09589199999999999,-0.9794769999999999
1630059097916,-0.107665,0.096502,-0.9794769999999999
1630059097926,-0.10858,0.096868,-0.981368
1630059097936,-0.108824,0.09558699999999999,-0.982161
1630059097945,-0.109251,0.09820999999999999,-0.982954
1630059097955,-0.109495,0.099674,-0.981673
1630059097964,-0.109434,0.101199,-0.981368
1630059097974,-0.10931199999999999,0.099247,-0.979599
1630059097984,-0.109373,0.099247,-0.9782569999999999
1630059097993,-0.110044,0.100345,-0.976366
1630059098003,-0.10992199999999999,0.099979,-0.97661
1630059098012,-0.1098,0.098149,-0.977525
1630059098022,-0.108336,0.09991799999999999,-0.981429
1630059098032,-0.10638399999999999,0.100345,-0.985516
1630059098041,-0.10668899999999999,0.099491,-0.984418
1630059098051,-0.10760399999999999,0.096746,-0.981429
1630059098060,-0.108763,0.095465,-0.978074
1630059098070,-0.10668899999999999,0.094001,-0.97905
1630059098080,-0.105591,0.095648,-0.97905
1630059098089,-0.105713,0.094916,-0.981124
1630059098099,-0.105469,0.096319,-0.9806969999999999
1630059098108,-0.105347,0.094123,-0.9794769999999999
1630059098118,-0.10553,0.093391,-0.9806969999999999
1630059098128,-0.104554,0.094001,-0.980819
1630059098137,-0.10498099999999999,0.096014,-0.9803919999999999
1630059098147,-0.106262,0.095404,-0.978684
1630059098156,-0.106506,0.097356,-0.980026
1630059098166,-0.10614,0.098454,-0.979843
1630059098176,-0.106323,0.099064,-0.9776469999999999
1630059098185,-0.106933,0.099857,-0.978928
1630059098195,-0.10675,0.099125,-0.979538
1630059098204,-0.106262,0.098942,-0.9803919999999999
1630059098214,-0.106262,0.09759999999999999,-0.979904
1630059098224,-0.10675,0.098332,-0.981856
1630059098233,-0.10760399999999999,0.09820999999999999,-0.979843
1630059098243,-0.109373,0.098149,-0.978989
1630059098252,-0.10900699999999999,0.100284,-0.981246
1630059098262,-0.110288,0.102114,-0.981246
1630059098272,-0.110044,0.1037,-0.9816119999999999
1630059098281,-0.109434,0.103334,-0.980148
1630059098291,-0.10961699999999999,0.102968,-0.979233
1630059098300,-0.111081,0.102968,-0.978318
1630059098310,-0.1098,0.104188,-0.9758169999999999
1630059098320,-0.11163,0.1037,-0.9749019999999999
1630059098329,-0.110593,0.104493,-0.9745969999999999
1630059098339,-0.11083699999999999,0.10498099999999999,-0.974963
1630059098348,-0.111874,0.105652,-0.9761219999999999
1630059098358,-0.110959,0.105347,-0.976366
1630059098368,-0.110959,0.106323,-0.97844
1630059098377,-0.10992199999999999,0.105408,-0.980636
1630059098387,-0.110898,0.104188,-0.9813069999999999
1630059098396,-0.11083699999999999,0.10315099999999999,-0.9810019999999999
1630059098406,-0.111081,0.10205299999999999,-0.981429
1630059098416,-0.109495,0.102297,-0.9819169999999999
1630059098425,-0.109556,0.102236,-0.981124
1630059098435,-0.109251,0.101687,-0.980819
1630059098444,-0.10961699999999999,0.102663,-0.9791719999999999
1630059098454,-0.109495,0.104005,-0.980331
1630059098464,-0.108946,0.103883,-0.981368
1630059098473,-0.108885,0.10406599999999999,-0.980331
1630059098483,-0.10919,0.105652,-0.980026
1630059098492,-0.108763,0.106323,-0.9797819999999999
1630059098502,-0.108763,0.105591,-0.977586
1630059098512,-0.110105,0.104493,-0.976549
1630059098521,-0.109678,0.103334,-0.976671
1630059098531,-0.10858,0.101809,-0.976488
1630059098540,-0.107543,0.102297,-0.97722
1630059098550,-0.107726,0.102907,-0.977159
1630059098560,-0.108641,0.10284599999999999,-0.976976
1630059098569,-0.109434,0.102724,-0.976488
1630059098579,-0.109983,0.102541,-0.977464
1630059098588,-0.109739,0.102907,-0.978501
1630059098598,-0.10992199999999999,0.103578,-0.980453
1630059098608,-0.111508,0.10638399999999999,-0.981551
1630059098617,-0.111508,0.107421,-0.9800869999999999
1630059098627,-0.11102,0.108885,-0.97905
1630059098636,-0.11254499999999999,0.106811,-0.9752069999999999
1630059098646,-0.112667,0.107055,-0.975878
1630059098656,-0.110715,0.108885,-0.975634
1630059098665,-0.11114199999999999,0.108946,-0.976183
1630059098675,-0.111386,0.10961699999999999,-0.978013
1630059098684,-0.111081,0.10900699999999999,-0.979294
1630059098694,-0.110715,0.10900699999999999,-0.9813069999999999
1630059098704,-0.109373,0.10858,-0.982771
1630059098713,-0.110654,0.10607899999999999,-0.980575
1630059098723,-0.1098,0.103273,-0.978684
1630059098732,-0.109861,0.102541,-0.977159
1630059098742,-0.10919,0.103639,-0.9773419999999999
1630059098752,-0.108458,0.105103,-0.9791719999999999
1630059098761,-0.108702,0.106018,-0.978684
1630059098771,-0.10900699999999999,0.10638399999999999,-0.977403
1630059098780,-0.107848,0.105225,-0.978074
1630059098790,-0.107848,0.105042,-0.9782569999999999
1630059098800,-0.108214,0.10553,-0.979721
1630059098809,-0.108702,0.107116,-0.978745
1630059098819,-0.109068,0.107055,-0.978989
1630059098828,-0.1098,0.10729899999999999,-0.97783
1630059098838,-0.109373,0.10790899999999999,-0.978013
1630059098848,-0.11022699999999999,0.109251,-0.9773419999999999
1630059098857,-0.109861,0.108824,-0.9767319999999999
1630059098867,-0.1098,0.109129,-0.978074
1630059098876,-0.110166,0.108702,-0.978013
1630059098886,-0.10992199999999999,0.107787,-0.978806
1630059098896,-0.109983,0.108275,-0.981856
1630059098905,-0.11223999999999999,0.106018,-0.977098
1630059098915,-0.111813,0.10607899999999999,-0.9773419999999999
1630059098924,-0.111813,0.108214,-0.977708
1630059098934,-0.110654,0.11022699999999999,-0.978806
1630059098944,-0.10931199999999999,0.110166,-0.979355
1630059098953,-0.11114199999999999,0.109739,-0.9779519999999999
1630059098963,-0.11193499999999999,0.108092,-0.97661
1630059098972,-0.111569,0.105652,-0.9749019999999999
1630059098982,-0.11114199999999999,0.105286,-0.975024
1630059098992,-0.111203,0.105652,-0.977098
1630059099001,-0.110166,0.106811,-0.976854
1630059099011,-0.110349,0.106933,-0.9773419999999999
1630059099020,-0.11114199999999999,0.106506,-0.9785619999999999
1630059099030,-0.111752,0.106201,-0.978806
1630059099040,-0.110471,0.106506,-0.979294
1630059099049,-0.110715,0.105225,-0.9797819999999999
1630059099059,-0.109739,0.103395,-0.981368
1630059099068,-0.10931199999999999,0.102602,-0.980331
1630059099078,-0.10931199999999999,0.103029,-0.9813069999999999
1630059099088,-0.108763,0.102236,-0.980209
1630059099097,-0.108824,0.10205299999999999,-0.980148
1630059099107,-0.109068,0.102968,-0.978989
1630059099116,-0.10961699999999999,0.102907,-0.979843
1630059099126,-0.10900699999999999,0.10284599999999999,-0.978623
1630059099136,-0.10931199999999999,0.1037,-0.978135
1630059099145,-0.108641,0.103517,-0.9773419999999999
1630059099155,-0.1098,0.104493,-0.9785619999999999
1630059099164,-0.108702,0.10668899999999999,-0.977525
1630059099174,-0.108885,0.105957,-0.976488
1630059099184,-0.108946,0.105408,-0.9770369999999999
1630059099193,-0.108824,0.105225,-0.97661
1630059099203,-0.108519,0.103334,-0.9773419999999999
1630059099212,-0.107665,0.103639,-0.9785619999999999
1630059099222,-0.108641,0.10376099999999999,-0.97844
1630059099232,-0.108702,0.102907,-0.978989
1630059099241,-0.109373,0.102541,-0.978623
1630059099251,-0.1098,0.10315099999999999,-0.979111
1630059099260,-0.109861,0.10187,-0.979904
1630059099270,-0.10961699999999999,0.10315099999999999,-0.9810019999999999
1630059099280,-0.109739,0.105042,-0.981551
1630059099289,-0.110715,0.104798,-0.979904
1630059099299,-0.11053199999999999,0.10614,-0.979233
1630059099308,-0.111752,0.10492,-0.97783
1630059099318,-0.11163,0.105347,-0.977098
1630059099328,-0.110593,0.10577399999999999,-0.977708
1630059099337,-0.111996,0.105713,-0.97722
1630059099347,-0.110959,0.106445,-0.979111
1630059099356,-0.110654,0.108458,-0.981368
1630059099366,-0.11163,0.10931199999999999,-0.982405
1630059099376,-0.110288,0.108397,-0.983503
1630059099385,-0.110959,0.105469,-0.97966
1630059099395,-0.111081,0.103883,-0.97661
1630059099404,-0.110715,0.10309,-0.975573
1630059099414,-0.109739,0.104432,-0.976488
1630059099424,-0.109556,0.104432,-0.9770369999999999
1630059099433,-0.10900699999999999,0.105225,-0.978318
1630059099443,-0.1098,0.104432,-0.978135
1630059099452,-0.108153,0.10284599999999999,-0.980453
1630059099462,-0.107055,0.101992,-0.979721
1630059099472,-0.108031,0.103029,-0.980331
1630059099481,-0.10900699999999999,0.10309,-0.978196
1630059099491,-0.108153,0.103212,-0.9785619999999999
1630059099500,-0.108641,0.10431,-0.97783
1630059099510,-0.108946,0.10467599999999999,-0.978501
1630059099520,-0.108946,0.10431,-0.978623
1630059099529,-0.108763,0.103395,-0.979721
1630059099539,-0.109251,0.101992,-0.979233
1630059099548,-0.108946,0.101321,-0.979294
1630059099558,-0.108641,0.101321,-0.980758
1630059099568,-0.107848,0.101504,-0.981124
1630059099577,-0.109495,0.10205299999999999,-0.9794769999999999
1630059099587,-0.111264,0.101565,-0.978745
1630059099596,-0.112301,0.10498099999999999,-0.97966
1630059099606,-0.111264,0.105408,-0.978989
1630059099616,-0.11102,0.10607899999999999,-0.97844
1630059099625,-0.110715,0.105347,-0.979233
1630059099635,-0.111386,0.103944,-0.978013
1630059099644,-0.111264,0.102724,-0.976671
1630059099654,-0.11223999999999999,0.102968,-0.975634
1630059099664,-0.112118,0.103578,-0.976061
1630059099673,-0.112057,0.10467599999999999,-0.9770369999999999
1630059099683,-0.111752,0.104432,-0.978745
1630059099692,-0.11223999999999999,0.104432,-0.979538
1630059099702,-0.11254499999999999,0.10376099999999999,-0.9803919999999999
1630059099712,-0.111691,0.103822,-0.980148
1630059099721,-0.111996,0.103578,-0.9803919999999999
1630059099731,-0.11163,0.102236,-0.9797819999999999
1630059099740,-0.112118,0.10187,-0.9800869999999999
1630059099750,-0.110654,0.101504,-0.980819
1630059099760,-0.11102,0.101321,-0.980575
1630059099769,-0.111386,0.102175,-0.978745
1630059099779,-0.112057,0.102785,-0.978501
1630059099788,-0.111508,0.10309,-0.978806
1630059099798,-0.112118,0.102724,-0.978318
1630059099808,-0.112484,0.102968,-0.978013
1630059099817,-0.112423,0.1037,-0.977891
1630059099827,-0.112118,0.103273,-0.977586
1630059099836,-0.111813,0.10345599999999999,-0.976854
1630059099846,-0.112179,0.103517,-0.9779519999999999
1630059099856,-0.111996,0.103273,-0.979233
1630059099865,-0.11193499999999999,0.10284599999999999,-0.978501
1630059099875,-0.112606,0.102236,-0.979294
1630059099884,-0.112728,0.102724,-0.978684
1630059099894,-0.11163,0.102114,-0.9779519999999999
1630059099904,-0.112362,0.102358,-0.977464
1630059099913,-0.112972,0.103334,-0.977525
1630059099923,-0.112911,0.103944,-0.9779519999999999
1630059099932,-0.112972,0.10492,-0.977769
1630059099942,-0.114497,0.10431,-0.977708
1630059099952,-0.11406999999999999,0.10376099999999999,-0.9782569999999999
1630059099961,-0.114558,0.103639,-0.979233
1630059099971,-0.114497,0.10467599999999999,-0.9806969999999999
1630059099980,-0.11486299999999999,0.104737,-0.979843
1630059099990,-0.114741,0.105286,-0.9788669999999999
1630059100000,-0.115107,0.10498099999999999,-0.98088
1630059100009,-0.114497,0.103212,-0.981673
1630059100019,-0.11529,0.104615,-0.9797819999999999
1630059100028,-0.114741,0.104432,-0.976671
1630059100038,-0.11486299999999999,0.103273,-0.976671
1630059100048,-0.114375,0.10437099999999999,-0.978196
1630059100057,-0.11376499999999999,0.105957,-0.979538
1630059100067,-0.113277,0.106567,-0.98088
1630059100076,-0.113216,0.105652,-0.981124
1630059100086,-0.113643,0.103944,-0.979111
1630059100096,-0.11406999999999999,0.103029,-0.9770369999999999
1630059100105,-0.114558,0.102297,-0.976549
1630059100115,-0.113887,0.104188,-0.977464
1630059100124,-0.112301,0.102907,-0.978074
1630059100134,-0.112911,0.103822,-0.977891
1630059100144,-0.112118,0.103639,-0.9782569999999999
1630059100153,-0.112057,0.103822,-0.978379
1630059100163,-0.111569,0.103944,-0.979111
1630059100172,-0.11223999999999999,0.104737,-0.978318
1630059100182,-0.111813,0.10467599999999999,-0.975756
1630059100192,-0.11102,0.103883,-0.97844
1630059100201,-0.11223999999999999,0.102724,-0.976061
1630059100211,-0.111386,0.1037,-0.9770369999999999
1630059100220,-0.111264,0.10376099999999999,-0.978379
1630059100230,-0.111447,0.10498099999999999,-0.97905
1630059100240,-0.111264,0.10284599999999999,-0.9773419999999999
1630059100249,-0.111752,0.103639,-0.9779519999999999
1630059100259,-0.111386,0.10205299999999999,-0.97722
1630059100268,-0.112057,0.10376099999999999,-0.978684
1630059100278,-0.11223999999999999,0.10406599999999999,-0.979599
1630059100288,-0.114314,0.102724,-0.977159
1630059100297,-0.11315499999999999,0.105164,-0.977403
1630059100307,-0.114619,0.10467599999999999,-0.97722
1630059100316,-0.113704,0.10577399999999999,-0.978501
1630059100326,-0.114741,0.10675,-0.9797819999999999
1630059100336,-0.11516799999999999,0.10614,-0.978196
1630059100345,-0.115412,0.10492,-0.977525
1630059100355,-0.115595,0.105225,-0.97722
1630059100364,-0.1159,0.104859,-0.9776469999999999
1630059100374,-0.115107,0.105225,-0.9788669999999999
1630059100384,-0.114985,0.104615,-0.97844
1630059100393,-0.114924,0.10638399999999999,-0.9797819999999999
1630059100403,-0.115351,0.10492,-0.9794769999999999
1630059100412,-0.114802,0.105286,-0.979965
1630059100422,-0.114253,0.104798,-0.980209
1630059100432,-0.113704,0.10577399999999999,-0.980758
1630059100441,-0.113826,0.105164,-0.980331
1630059100451,-0.113704,0.103944,-0.979599
1630059100460,-0.113338,0.1037,-0.97844
1630059100470,-0.113094,0.103334,-0.9785619999999999
1630059100480,-0.112911,0.10467599999999999,-0.977586
1630059100489,-0.112728,0.10431,-0.976488
1630059100499,-0.112972,0.104249,-0.976854
1630059100508,-0.112789,0.105469,-0.976915
1630059100518,-0.112606,0.104798,-0.977708
1630059100528,-0.112972,0.105591,-0.978196
1630059100537,-0.11284999999999999,0.105591,-0.976915
1630059100547,-0.11345999999999999,0.10577399999999999,-0.976854
1630059100556,-0.112972,0.105347,-0.977769
1630059100566,-0.112728,0.106323,-0.976915
1630059100576,-0.11284999999999999,0.105957,-0.9776469999999999
1630059100585,-0.113094,0.10406599999999999,-0.976976
1630059100595,-0.113582,0.10498099999999999,-0.977708
1630059100604,-0.113216,0.105225,-0.976671
1630059100614,-0.113521,0.105469,-0.978318
1630059100624,-0.114314,0.105896,-0.978928
1630059100633,-0.112789,0.10498099999999999,-0.978806
1630059100643,-0.112362,0.104615,-0.97844
1630059100652,-0.11223999999999999,0.104859,-0.9779519999999999
1630059100662,-0.111447,0.103883,-0.978379
1630059100672,-0.112362,0.104432,-0.978928
1630059100681,-0.11223999999999999,0.105408,-0.978928
1630059100691,-0.11284999999999999,0.106506,-0.9791719999999999
1630059100700,-0.11254499999999999,0.105957,-0.978196
1630059100710,-0.112972,0.10498099999999999,-0.9791719999999999
1630059100720,-0.112179,0.105896,-0.978318
1630059100729,-0.111752,0.104615,-0.97905
1630059100739,-0.110898,0.105103,-0.979294
1630059100748,-0.110166,0.105225,-0.980026
1630059100758,-0.110654,0.105408,-0.978745
1630059100768,-0.111996,0.104798,-0.97722
1630059100777,-0.111813,0.105042,-0.976976
1630059100787,-0.112911,0.104188,-0.9770369999999999
1630059100796,-0.112118,0.10492,-0.978806
1630059100806,-0.112667,0.10553,-0.977586
1630059100816,-0.112789,0.105957,-0.979538
1630059100825,-0.11284999999999999,0.105652,-0.9791719999999999
1630059100835,-0.113094,0.105042,-0.980148
1630059100844,-0.11376499999999999,0.105591,-0.978501
1630059100854,-0.114253,0.10492,-0.9773419999999999
1630059100864,-0.114009,0.10553,-0.9797819999999999
1630059100873,-0.114314,0.10638399999999999,-0.980148
1630059100883,-0.113887,0.108641,-0.982954
1630059100892,-0.11406999999999999,0.108885,-0.9821
1630059100902,-0.114009,0.10614,-0.980453
1630059100912,-0.115107,0.105164,-0.976915
1630059100921,-0.115656,0.105896,-0.975634
1630059100931,-0.114253,0.105286,-0.975695
1630059100940,-0.112972,0.10607899999999999,-0.977098
1630059100950,-0.113887,0.107238,-0.977586
1630059100960,-0.112911,0.107421,-0.9773419999999999
1630059100969,-0.113826,0.10790899999999999,-0.9779519999999999
1630059100979,-0.111874,0.107726,-0.9785619999999999
1630059100988,-0.113094,0.10699399999999999,-0.977891
1630059100998,-0.112423,0.10614,-0.976366
1630059101008,-0.112728,0.105896,-0.976366
1630059101017,-0.113521,0.105408,-0.977403
1630059101027,-0.112728,0.106506,-0.975268
1630059101036,-0.11193499999999999,0.10638399999999999,-0.976
1630059101046,-0.11254499999999999,0.105896,-0.975756
1630059101056,-0.112667,0.106323,-0.9773419999999999
1630059101065,-0.11284999999999999,0.106323,-0.978318
1630059101075,-0.113094,0.105164,-0.977464
1630059101084,-0.113399,0.106201,-0.97905
1630059101094,-0.111813,0.106506,-0.98271
1630059101104,-0.11406999999999999,0.105408,-0.979843
1630059101113,-0.115656,0.105957,-0.9788669999999999
1630059101123,-0.115412,0.107055,-0.979294
1630059101132,-0.1159,0.107848,-0.9782569999999999
1630059101142,-0.115534,0.10858,-0.978135
1630059101152,-0.11486299999999999,0.110044,-0.979416
1630059101161,-0.116876,0.109861,-0.9785619999999999
1630059101171,-0.117974,0.110044,-0.976488
1630059101180,-0.117486,0.109495,-0.9773419999999999
1630059101190,-0.11773,0.10919,-0.9761219999999999
1630059101200,-0.117669,0.108336,-0.976061
1630059101209,-0.117974,0.108824,-0.977403
1630059101219,-0.117913,0.109129,-0.976976
1630059101228,-0.118462,0.109373,-0.977281
1630059101238,-0.117425,0.108641,-0.97844
1630059101248,-0.117364,0.108763,-0.979233
1630059101257,-0.117913,0.109251,-0.978501
1630059101267,-0.117181,0.10858,-0.9782569999999999
1630059101276,-0.115839,0.107543,-0.977403
1630059101286,-0.11516799999999999,0.108763,-0.979721
1630059101296,-0.11516799999999999,0.10858,-0.979111
1630059101305,-0.11638799999999999,0.109373,-0.9782569999999999
1630059101315,-0.117974,0.111508,-0.977403
1630059101324,-0.117425,0.1098,-0.977281
1630059101334,-0.117364,0.110105,-0.978745
1630059101344,-0.11577799999999999,0.11114199999999999,-0.97905
1630059101353,-0.116937,0.111203,-0.979355
1630059101363,-0.116571,0.11114199999999999,-0.9785619999999999
1630059101372,-0.116327,0.10919,-0.977891
1630059101382,-0.115839,0.108092,-0.977586
1630059101392,-0.116022,0.107665,-0.976915
1630059101401,-0.115107,0.106567,-0.9752069999999999
1630059101411,-0.113887,0.107482,-0.9773419999999999
1630059101420,-0.113216,0.10729899999999999,-0.978318
1630059101430,-0.11406999999999999,0.107543,-0.977708
1630059101440,-0.11376499999999999,0.10668899999999999,-0.97722
1630059101449,-0.11345999999999999,0.107665,-0.975329
1630059101459,-0.113948,0.10760399999999999,-0.976061
1630059101468,-0.114558,0.108702,-0.976976
1630059101478,-0.114375,0.109068,-0.9758169999999999
1630059101488,-0.114436,0.10992199999999999,-0.9755119999999999
1630059101497,-0.11486299999999999,0.110898,-0.976854
1630059101507,-0.11468,0.111081,-0.97783
1630059101516,-0.114558,0.109678,-0.977708
1630059101526,-0.11468,0.109861,-0.9779519999999999
1630059101536,-0.11577799999999999,0.109556,-0.978684
1630059101545,-0.114253,0.109739,-0.97966
1630059101555,-0.11529,0.10900699999999999,-0.9797819999999999
1630059101564,-0.115595,0.108763,-0.9788669999999999
1630059101574,-0.115839,0.108458,-0.977891
1630059101584,-0.115961,0.10931199999999999,-0.979355
1630059101593,-0.115351,0.10961699999999999,-0.9788669999999999
1630059101603,-0.11608299999999999,0.1098,-0.978806
1630059101612,-0.11577799999999999,0.108763,-0.9785619999999999
1630059101622,-0.114985,0.108946,-0.9776469999999999
1630059101632,-0.115534,0.110654,-0.976854
1630059101641,-0.11547299999999999,0.108824,-0.975329
1630059101651,-0.114253,0.107726,-0.976549
1630059101660,-0.114253,0.108275,-0.976244
1630059101670,-0.113643,0.10900699999999999,-0.976244
1630059101680,-0.113643,0.109373,-0.976488
1630059101689,-0.114314,0.1098,-0.977586
1630059101699,-0.114436,0.110959,-0.9788669999999999
1630059101708,-0.114314,0.109251,-0.97783
1630059101718,-0.115595,0.110715,-0.976549
1630059101728,-0.115046,0.111752,-0.97844
1630059101737,-0.115229,0.11114199999999999,-0.9770369999999999
1630059101747,-0.115351,0.111996,-0.977464
1630059101756,-0.115839,0.114924,-0.97905
1630059101766,-0.116144,0.112423,-0.979416
1630059101776,-0.115656,0.112789,-0.97722
1630059101785,-0.11516799999999999,0.113704,-0.9755119999999999
1630059101795,-0.11577799999999999,0.111569,-0.975024
1630059101804,-0.115229,0.111874,-0.975085
1630059101814,-0.114802,0.11516799999999999,-0.978135
1630059101824,-0.113643,0.115046,-0.979294
1630059101833,-0.112972,0.113521,-0.980209
1630059101843,-0.114192,0.112057,-0.97722
1630059101852,-0.114192,0.110166,-0.975756
1630059101862,-0.11406999999999999,0.11114199999999999,-0.974658
1630059101872,-0.11486299999999999,0.110715,-0.975024
1630059101881,-0.111996,0.112179,-0.97722
1630059101891,-0.112057,0.112484,-0.978684
1630059101900,-0.112179,0.112423,-0.978379
1630059101910,-0.112301,0.112118,-0.977708
1630059101920,-0.11284999999999999,0.111874,-0.976976
1630059101929,-0.111996,0.11315499999999999,-0.9767319999999999
1630059101939,-0.111996,0.11284999999999999,-0.977708
1630059101948,-0.110898,0.11223999999999999,-0.9776469999999999
1630059101958,-0.112057,0.112728,-0.977769
1630059101968,-0.112057,0.112728,-0.977708
1630059101977,-0.111874,0.114253,-0.977708
1630059101987,-0.112606,0.114436,-0.977586
1630059101996,-0.112423,0.113826,-0.976854
1630059102006,-0.11284999999999999,0.112911,-0.9761219999999999
1630059102016,-0.112911,0.112728,-0.9770369999999999
1630059102025,-0.112789,0.113826,-0.97905
1630059102035,-0.113277,0.11406999999999999,-0.977586
1630059102044,-0.114497,0.112972,-0.976793
1630059102054,-0.11577799999999999,0.116815,-0.9782569999999999
1630059102064,-0.11608299999999999,0.116632,-0.977464
1630059102073,-0.11529,0.117486,-0.977586
1630059102083,-0.11529,0.117608,-0.978501
1630059102092,-0.115412,0.116266,-0.9764269999999999
1630059102102,-0.115595,0.114558,-0.975939
1630059102112,-0.114985,0.115107,-0.97478
1630059102121,-0.115534,0.114741,-0.9739869999999999
1630059102131,-0.116022,0.11529,-0.974109
1630059102140,-0.115412,0.116754,-0.975085
1630059102150,-0.116449,0.117425,-0.975268
1630059102160,-0.11608299999999999,0.118889,-0.976549
1630059102169,-0.116876,0.118035,-0.975024
1630059102179,-0.116937,0.11840099999999999,-0.9755119999999999
1630059102188,-0.116632,0.117669,-0.976244
1630059102198,-0.117486,0.116571,-0.976305
1630059102208,-0.11608299999999999,0.11577799999999999,-0.978074
1630059102217,-0.115229,0.115534,-0.977525
1630059102227,-0.115839,0.11638799999999999,-0.977891
1630059102236,-0.115717,0.11699799999999999,-0.9773419999999999
1630059102246,-0.116144,0.116876,-0.976915
1630059102256,-0.1159,0.117913,-0.975451
1630059102265,-0.116266,0.119072,-0.9764269999999999
1630059102275,-0.11608299999999999,0.119255,-0.9749019999999999
1630059102284,-0.116022,0.119499,-0.9749019999999999
1630059102294,-0.11547299999999999,0.120353,-0.975329
1630059102304,-0.115595,0.119133,-0.975085
1630059102313,-0.11547299999999999,0.118523,-0.9752069999999999
1630059102323,-0.11608299999999999,0.119682,-0.973926
1630059102332,-0.11699799999999999,0.119255,-0.974353
1630059102342,-0.11638799999999999,0.118889,-0.974475
1630059102352,-0.11577799999999999,0.11809599999999999,-0.975634
1630059102361,-0.116266,0.118645,-0.976305
1630059102371,-0.116327,0.118523,-0.976488
1630059102380,-0.117059,0.118767,-0.9770369999999999
1630059102390,-0.11730299999999999,0.11834,-0.976488
1630059102400,-0.116327,0.11870599999999999,-0.977464
1630059102409,-0.117181,0.119072,-0.976488
1630059102419,-0.117547,0.11840099999999999,-0.976244
1630059102428,-0.117181,0.118828,-0.975329
1630059102438,-0.116754,0.118889,-0.975268
1630059102448,-0.116876,0.118523,-0.975024
1630059102457,-0.116876,0.118157,-0.975878
1630059102467,-0.116022,0.119804,-0.975329
1630059102476,-0.11669299999999999,0.11992599999999999,-0.976244
1630059102486,-0.116754,0.12017,-0.976488
1630059102496,-0.117242,0.119682,-0.97478
1630059102505,-0.118462,0.11956,-0.975146
1630059102515,-0.11895,0.11931599999999999,-0.97539
1630059102524,-0.11870599999999999,0.119072,-0.97722
1630059102534,-0.118462,0.120658,-0.979294
1630059102544,-0.119438,0.12078,-0.977464
1630059102553,-0.11956,0.121146,-0.97539
1630059102563,-0.119072,0.121268,-0.9745969999999999
1630059102572,-0.119865,0.11992599999999999,-0.97234
1630059102582,-0.11834,0.119804,-0.972828
1630059102592,-0.11834,0.119438,-0.9724619999999999
1630059102601,-0.118157,0.118767,-0.972889
1630059102611,-0.117364,0.117913,-0.97539
1630059102620,-0.11638799999999999,0.11901099999999999,-0.97783
1630059102630,-0.115656,0.119987,-0.980819
1630059102640,-0.116632,0.11840099999999999,-0.982161
1630059102649,-0.116144,0.1159,-0.9788669999999999
1630059102659,-0.117486,0.114375,-0.976244
1630059102668,-0.116632,0.113704,-0.975268
1630059102678,-0.115534,0.113643,-0.976
1630059102688,-0.114558,0.115351,-0.9773419999999999
1630059102697,-0.11516799999999999,0.114375,-0.975878
1630059102707,-0.115961,0.114619,-0.975268
1630059102716,-0.115046,0.113582,-0.976061
1630059102726,-0.114924,0.113399,-0.976
1630059102736,-0.114741,0.113094,-0.97722
1630059102745,-0.115351,0.114009,-0.975939
1630059102755,-0.11516799999999999,0.113643,-0.975695
1630059102764,-0.115656,0.114009,-0.975451
1630059102774,-0.116022,0.114497,-0.976
1630059102784,-0.115595,0.113826,-0.97722
1630059102793,-0.116327,0.114497,-0.97722
1630059102803,-0.1159,0.113216,-0.978135
1630059102812,-0.116632,0.111874,-0.97783
1630059102822,-0.11608299999999999,0.113216,-0.9785619999999999
1630059102832,-0.115595,0.113582,-0.9788669999999999
1630059102841,-0.116876,0.111264,-0.975939
1630059102851,-0.118523,0.113948,-0.976305
1630059102860,-0.11834,0.11547299999999999,-0.97844
1630059102870,-0.118218,0.116754,-0.977586
1630059102880,-0.117425,0.118584,-0.979904
1630059102889,-0.117669,0.118279,-0.978318
1630059102899,-0.118584,0.115229,-0.9767319999999999
1630059102908,-0.118889,0.11486299999999999,-0.976488
1630059102918,-0.119072,0.115595,-0.9752069999999999
1630059102928,-0.118828,0.115961,-0.974658
1630059102937,-0.119194,0.11730299999999999,-0.974109
1630059102947,-0.11895,0.11773,-0.974109
1630059102956,-0.118767,0.118279,-0.973621
1630059102966,-0.11956,0.117913,-0.975085
1630059102976,-0.119133,0.117852,-0.976793
1630059102985,-0.118279,0.117852,-0.97661
1630059102995,-0.118157,0.11516799999999999,-0.9761219999999999
1630059103004,-0.118828,0.114802,-0.97661
1630059103014,-0.118584,0.114619,-0.9770369999999999
1630059103024,-0.117974,0.113704,-0.9764269999999999
1630059103033,-0.11712,0.11529,-0.977281
1630059103043,-0.117059,0.116327,-0.9758169999999999
1630059103052,-0.118645,0.116937,-0.9758169999999999
1630059103062,-0.117669,0.116266,-0.976671
1630059103072,-0.117608,0.116144,-0.977098
1630059103081,-0.117913,0.11486299999999999,-0.976061
1630059103091,-0.11809599999999999,0.115107,-0.975268
1630059103100,-0.11840099999999999,0.114741,-0.975878
1630059103110,-0.11834,0.114131,-0.976366
1630059103120,-0.117852,0.113887,-0.976183
1630059103129,-0.117608,0.11376499999999999,-0.9767319999999999
1630059103139,-0.117608,0.113826,-0.977464
1630059103148,-0.118035,0.114131,-0.97722
1630059103158,-0.117486,0.112911,-0.976793
1630059103168,-0.11834,0.112484,-0.975756
1630059103177,-0.11809599999999999,0.11284999999999999,-0.9752069999999999
1630059103187,-0.118157,0.112728,-0.9758169999999999
1630059103196,-0.117608,0.112362,-0.976366
1630059103206,-0.117852,0.11345999999999999,-0.976488
1630059103216,-0.117486,0.113948,-0.977159
1630059103225,-0.117974,0.11406999999999999,-0.977159
1630059103235,-0.118889,0.113094,-0.9758169999999999
1630059103244,-0.11992599999999999,0.114375,-0.976061
1630059103254,-0.120353,0.115534,-0.9770369999999999
1630059103264,-0.12071899999999999,0.116754,-0.979111
1630059103273,-0.120353,0.115107,-0.977464
1630059103283,-0.120109,0.116632,-0.975939
1630059103292,-0.12163399999999999,0.114558,-0.975268
1630059103302,-0.121451,0.114985,-0.9755119999999999
1630059103312,-0.12102399999999999,0.115717,-0.9749019999999999
1630059103321,-0.121146,0.115107,-0.973194
1630059103331,-0.120475,0.114253,-0.975146
1630059103340,-0.12163399999999999,0.11547299999999999,-0.975573
1630059103350,-0.120109,0.117669,-0.979416
1630059103360,-0.120109,0.117852,-0.980758
1630059103369,-0.120292,0.116876,-0.980636
1630059103379,-0.119987,0.113033,-0.9758169999999999
1630059103388,-0.120048,0.112362,-0.9730719999999999
1630059103398,-0.11992599999999999,0.112606,-0.973194
1630059103408,-0.11992599999999999,0.11406999999999999,-0.974536
1630059103417,-0.118035,0.114253,-0.97661
1630059103427,-0.119377,0.113948,-0.975268
1630059103436,-0.118828,0.113216,-0.975268
1630059103446,-0.118157,0.112789,-0.976
1630059103456,-0.117547,0.112484,-0.976244
1630059103465,-0.118462,0.112606,-0.976244
1630059103475,-0.12023099999999999,0.114009,-0.976671
1630059103484,-0.119377,0.113399,-0.977098
1630059103494,-0.11730299999999999,0.11315499999999999,-0.977586
1630059103504,-0.118645,0.112667,-0.976244
1630059103513,-0.119438,0.112789,-0.976976
1630059103523,-0.118645,0.11284999999999999,-0.978196
1630059103532,-0.11809599999999999,0.113216,-0.976183
1630059103542,-0.118889,0.113582,-0.975756
1630059103552,-0.120048,0.113033,-0.976244
1630059103561,-0.119255,0.11315499999999999,-0.97722
1630059103571,-0.120414,0.113338,-0.976671
1630059103580,-0.121085,0.11284999999999999,-0.9758169999999999
1630059103590,-0.120475,0.115656,-0.975878
1630059103600,-0.121085,0.115839,-0.9767319999999999
1630059103609,-0.120658,0.116754,-0.976793
1630059103619,-0.120353,0.117242,-0.97783
1630059103628,-0.12139,0.114497,-0.975634
1630059103638,-0.12102399999999999,0.113582,-0.974658
1630059103648,-0.12139,0.111691,-0.9749019999999999
1630059103657,-0.12139,0.112118,-0.975634
1630059103667,-0.121512,0.112728,-0.976549
1630059103676,-0.120902,0.114436,-0.97661
1630059103686,-0.121146,0.114802,-0.976671
1630059103696,-0.12132899999999999,0.114497,-0.977098
1630059103705,-0.12078,0.114314,-0.97722
1630059103715,-0.120841,0.113826,-0.978318
1630059103724,-0.120353,0.112728,-0.9779519999999999
1630059103734,-0.119743,0.11083699999999999,-0.9800869999999999
1630059103744,-0.119865,0.110044,-0.980026
1630059103753,-0.11901099999999999,0.109129,-0.978684
1630059103763,-0.11895,0.108824,-0.978989
1630059103772,-0.119377,0.11041,-0.977769
1630059103782,-0.119377,0.112118,-0.976793
1630059103792,-0.11992599999999999,0.112118,-0.977159
1630059103801,-0.119438,0.111386,-0.977098
1630059103811,-0.11956,0.109983,-0.976793
1630059103820,-0.119499,0.108946,-0.977769
1630059103830,-0.121451,0.10992199999999999,-0.97783
1630059103840,-0.12285399999999999,0.109251,-0.975634
1630059103849,-0.123098,0.108763,-0.976793
1630059103859,-0.12505,0.111569,-0.977769
1630059103868,-0.124013,0.11022699999999999,-0.977281
1630059103878,-0.122488,0.108824,-0.9779519999999999
1630059103888,-0.123281,0.109556,-0.978806
1630059103897,-0.122061,0.107665,-0.980148
1630059103907,-0.12102399999999999,0.10760399999999999,-0.979111
1630059103916,-0.12023099999999999,0.107726,-0.978806
1630059103926,-0.119865,0.108702,-0.9797819999999999
1630059103936,-0.120414,0.111386,-0.9806969999999999
1630059103945,-0.121878,0.113033,-0.981673
1630059103955,-0.12261,0.11516799999999999,-0.980209
1630059103964,-0.124379,0.116266,-0.9773419999999999
1630059103974,-0.123281,0.11773,-0.9776469999999999
1630059103984,-0.12285399999999999,0.119743,-0.976244
1630059103993,-0.124074,0.11956,-0.975573
1630059104003,-0.125843,0.121878,-0.967216
1630059104012,-0.12925899999999999,0.12864899999999999,-0.964105
1630059104022,-0.131516,0.1281,-0.95709
1630059104032,-0.130357,0.136762,-0.961116
1630059104041,-0.129015,0.139629,-0.964288
1630059104051,-0.132736,0.139568,-0.962275
1630059104060,-0.133529,0.136579,-0.959835
1630059104070,-0.13786,0.137738,-0.9578829999999999
1630059104080,-0.139568,0.142923,-0.959164
1630059104089,-0.139324,0.146461,-0.9612379999999999
1630059104099,-0.138836,0.149206,-0.964715
1630059104108,-0.140849,0.154086,-0.968741
1630059104118,-0.144936,0.152561,-0.969595
1630059104128,-0.149328,0.149206,-0.970083
1630059104137,-0.151463,0.148291,-0.968863
1630059104147,-0.15311,0.14823,-0.971364
1630059104156,-0.157685,0.146644,-0.969778
1630059104166,-0.15975899999999998,0.14280099999999998,-0.97051
1630059104176,-0.162565,0.137433,-0.96929
1630059104185,-0.16469999999999999,0.132126,-0.96624
1630059104195,-0.164822,0.1281,-0.96624
1630059104204,-0.167689,0.128588,-0.964471
1630059104214,-0.165859,0.123708,-0.965264
1630059104224,-0.162565,0.12078,-0.968253
1630059104233,-0.162504,0.11901099999999999,-0.968009
1630059104243,-0.162504,0.11651,-0.967338
1630059104252,-0.159881,0.121817,-0.968131
1630059104262,-0.15945399999999998,0.120475,-0.968314
1630059104272,-0.159027,0.117974,-0.9675819999999999
1630059104281,-0.159271,0.112789,-0.967521
1630059104291,-0.159393,0.108031,-0.967094
1630059104300,-0.158966,0.105469,-0.967948
1630059104310,-0.157563,0.099186,-0.967033
1630059104320,-0.156282,0.099125,-0.970266
1630059104329,-0.155733,0.10022299999999999,-0.973438
1630059104339,-0.155977,0.10022299999999999,-0.974658
1630059104348,-0.155306,0.099552,-0.977891
1630059104358,-0.1525,0.099796,-0.981246
1630059104368,-0.152134,0.098332,-0.982649
1630059104377,-0.150365,0.094855,-0.9843569999999999
1630059104387,-0.151463,0.094916,-0.983381
1630059104396,-0.150487,0.09467199999999999,-0.982466
1630059104406,-0.150304,0.092842,-0.982954
1630059104416,-0.150975,0.091988,-0.983869
1630059104425,-0.150914,0.094123,-0.983869
1630059104435,-0.15006,0.09790499999999999,-0.984723
1630059104444,-0.150792,0.097234,-0.982039
1630059104454,-0.150853,0.099308,-0.981795
1630059104464,-0.150365,0.102785,-0.981429
1630059104473,-0.150853,0.103029,-0.978013
1630059104483,-0.15006,0.102968,-0.9749019999999999
1630059104492,-0.150487,0.102297,-0.9742919999999999
1630059104502,-0.149755,0.105347,-0.975268
1630059104512,-0.148596,0.109434,-0.97417
1630059104521,-0.150731,0.108519,-0.9721569999999999
1630059104531,-0.149999,0.11022699999999999,-0.96868
1630059104540,-0.150548,0.111264,-0.96746
1630059104550,-0.149084,0.11284999999999999,-0.9675819999999999
1630059104560,-0.148779,0.11163,-0.967704
1630059104569,-0.148108,0.11114199999999999,-0.9681919999999999
1630059104579,-0.14884,0.110349,-0.968558
1630059104588,-0.14835199999999998,0.110044,-0.969229
1630059104598,-0.146888,0.109983,-0.971059
1630059104608,-0.14762,0.1098,-0.971425
1630059104617,-0.14701,0.109983,-0.971181
1630059104627,-0.14701,0.108519,-0.9699
1630059104636,-0.14579,0.107665,-0.969473
1630059104646,-0.145241,0.109678,-0.9703269999999999
1630059104656,-0.145119,0.10931199999999999,-0.971486
1630059104665,-0.14579,0.110349,-0.970693
1630059104675,-0.14682699999999999,0.11163,-0.9727669999999999
1630059104684,-0.147254,0.109556,-0.971669
1630059104694,-0.14865699999999998,0.10900699999999999,-0.972096
1630059104704,-0.149755,0.108885,-0.971913
1630059104713,-0.149206,0.107665,-0.973438
1630059104723,-0.150182,0.106018,-0.971669
1630059104732,-0.150426,0.105286,-0.971425
1630059104742,-0.14926699999999998,0.105347,-0.97234
1630059104752,-0.149145,0.104188,-0.973438
1630059104761,-0.148779,0.101687,-0.974658
1630059104771,-0.149572,0.102297,-0.975939
1630059104780,-0.149328,0.102236,-0.977098
1630059104790,-0.149938,0.100284,-0.976305
1630059104800,-0.150914,0.099552,-0.97661
1630059104809,-0.152134,0.099064,-0.975939
1630059104819,-0.152134,0.099125,-0.97417
1630059104828,-0.152317,0.09943,-0.9742919999999999
1630059104838,-0.15298799999999999,0.099125,-0.972584
1630059104848,-0.15311,0.099491,-0.971913
1630059104857,-0.15359799999999998,0.099552,-0.970205
1630059104867,-0.154025,0.100101,-0.971608
1630059104876,-0.155367,0.101504,-0.973743
1630059104886,-0.15481799999999998,0.101992,-0.9742919999999999
1630059104896,-0.157319,0.101016,-0.9739869999999999
1630059104905,-0.158966,0.10126,-0.974536
1630059104915,-0.16104,0.10309,-0.972523
1630059104924,-0.159942,0.101382,-0.9718519999999999
1630059104934,-0.160613,0.099674,-0.97112
1630059104944,-0.160125,0.099857,-0.973011
1630059104953,-0.160491,0.099979,-0.972035
1630059104963,-0.15975899999999998,0.100284,-0.972096
1630059104972,-0.15945399999999998,0.10004,-0.971303
1630059104982,-0.160552,0.099674,-0.970754
1630059104992,-0.161101,0.099186,-0.971303
1630059105001,-0.161345,0.10004,-0.973316
1630059105011,-0.161162,0.101199,-0.973499
1630059105020,-0.16104,0.100772,-0.97356
1630059105030,-0.162443,0.099491,-0.972889
1630059105040,-0.163053,0.098332,-0.9706319999999999
1630059105049,-0.163663,0.096746,-0.970083
1630059105059,-0.162016,0.095404,-0.972218
1630059105068,-0.16043,0.094184,-0.973011
1630059105078,-0.159576,0.09272,-0.972889
1630059105088,-0.157441,0.091866,-0.973316
1630059105097,-0.157197,0.09089,-0.974048
1630059105107,-0.156892,0.088084,-0.9736819999999999
1630059105116,-0.154696,0.086986,-0.974536
1630059105126,-0.15372,0.085766,-0.974658
1630059105136,-0.151951,0.086681,-0.974963
1630059105145,-0.151036,0.086132,-0.975146
1630059105155,-0.148901,0.086254,-0.975939
1630059105164,-0.14884,0.08790099999999999,-0.976
1630059105174,-0.147498,0.0915,-0.9785619999999999
1630059105184,-0.149023,0.097234,-0.98149
1630059105193,-0.15237799999999999,0.099186,-0.981734
1630059105203,-0.15433,0.101992,-0.9813069999999999
1630059105212,-0.157319,0.102358,-0.979355
1630059105222,-0.160796,0.097234,-0.974475
1630059105232,-0.16165,0.097661,-0.973621
1630059105241,-0.16165,0.097539,-0.97051
1630059105251,-0.162321,0.09820999999999999,-0.968863
1630059105260,-0.16165,0.099125,-0.9678869999999999
1630059105270,-0.16165,0.10144299999999999,-0.9669719999999999
1630059105280,-0.15921,0.101931,-0.967643
1630059105289,-0.159271,0.10187,-0.96746
1630059105299,-0.159088,0.10022299999999999,-0.969595
1630059105308,-0.159576,0.09698999999999999,-0.969534
1630059105318,-0.1586,0.094428,-0.970144
1630059105328,-0.15792899999999999,0.091378,-0.9709369999999999
1630059105337,-0.15677,0.087657,-0.971059
1630059105347,-0.156404,0.086254,-0.972401
1630059105356,-0.156648,0.084485,-0.971303
1630059105366,-0.15677,0.082777,-0.971608
1630059105376,-0.156587,0.084424,-0.9724619999999999
1630059105385,-0.154574,0.084912,-0.9752069999999999
1630059105395,-0.155245,0.084729,-0.976061
1630059105404,-0.153964,0.08662,-0.978379
1630059105414,-0.15372,0.084912,-0.979904
1630059105424,-0.155367,0.08356999999999999,-0.977769
1630059105433,-0.156099,0.083143,-0.9755119999999999
1630059105443,-0.156587,0.082106,-0.974231
1630059105452,-0.156587,0.081374,-0.9727669999999999
1630059105462,-0.155489,0.08234999999999999,-0.971486
1630059105472,-0.154635,0.08204499999999999,-0.9709369999999999
1630059105481,-0.153964,0.082533,-0.970083
1630059105491,-0.153049,0.082716,-0.9706319999999999
1630059105500,-0.153415,0.081374,-0.9718519999999999
1630059105510,-0.153476,0.080276,-0.971364
1630059105520,-0.15420799999999998,0.079056,-0.972096
1630059105529,-0.154574,0.077897,-0.97295
1630059105539,-0.15359799999999998,0.076372,-0.975268
1630059105548,-0.152561,0.073383,-0.977403
1630059105558,-0.15298799999999999,0.071675,-0.977708
1630059105568,-0.153659,0.07094299999999999,-0.977464
1630059105577,-0.15298799999999999,0.070394,-0.978379
1630059105587,-0.151829,0.069662,-0.978196
1630059105596,-0.15433,0.069174,-0.97783
1630059105606,-0.153781,0.069662,-0.980819
1630059105616,-0.155001,0.069296,-0.9819169999999999
1630059105625,-0.155245,0.067954,-0.9819169999999999
1630059105635,-0.155428,0.067527,-0.981124
1630059105644,-0.15555,0.066795,-0.982039
1630059105654,-0.15481799999999998,0.065148,-0.982588
1630059105664,-0.154391,0.064965,-0.982344
1630059105673,-0.15494,0.064965,-0.980941
1630059105683,-0.154696,0.06447699999999999,-0.9803919999999999
1630059105692,-0.15451299999999998,0.063928,-0.980819
1630059105702,-0.154269,0.063806,-0.9803919999999999
1630059105712,-0.154147,0.063318,-0.9806969999999999
1630059105721,-0.154452,0.065819,-0.9806969999999999
1630059105731,-0.155916,0.066368,-0.9797819999999999
1630059105740,-0.155184,0.066246,-0.978806
1630059105750,-0.15494,0.066673,-0.976488
1630059105760,-0.154696,0.065209,-0.9749019999999999
1630059105769,-0.154147,0.063562,-0.973743
1630059105779,-0.154025,0.062708,-0.973499
1630059105788,-0.153537,0.060634,-0.972889
1630059105798,-0.152866,0.061488,-0.972645
1630059105808,-0.154147,0.063135,-0.973621
1630059105817,-0.155184,0.06527,-0.975024
1630059105827,-0.155489,0.062464,-0.9742919999999999
1630059105836,-0.155733,0.060939,-0.974475
1630059105846,-0.156648,0.06222,-0.974414
1630059105856,-0.157685,0.06344,-0.9730719999999999
1630059105865,-0.157441,0.061915,-0.9761219999999999
1630059105875,-0.158295,0.061183,-0.977159
1630059105884,-0.158661,0.062769,-0.9788669999999999
1630059105894,-0.159881,0.063928,-0.977708
1630059105904,-0.158783,0.063318,-0.978745
1630059105913,-0.161345,0.061426999999999995,-0.976183
1630059105923,-0.160247,0.059902,-0.97783
1630059105932,-0.15975899999999998,0.060451,-0.980453
1630059105942,-0.160491,0.060085,-0.981246
1630059105952,-0.161406,0.058377,-0.98027
1630059105961,-0.162809,0.056974,-0.9761219999999999
1630059105971,-0.164761,0.057279,-0.974048
1630059105980,-0.164761,0.057888999999999996,-0.9752069999999999
1630059105990,-0.164151,0.058926,-0.975634
1630059106000,-0.16348,0.058987,-0.976915
1630059106009,-0.164456,0.059719,-0.976915
1630059106019,-0.165249,0.059657999999999996,-0.97722
1630059106028,-0.165981,0.059902,-0.9776469999999999
1630059106038,-0.165188,0.059231,-0.978623
1630059106048,-0.165737,0.059352999999999996,-0.977525
1630059106057,-0.165371,0.058926,-0.9767319999999999
1630059106067,-0.165859,0.059536,-0.976793
1630059106076,-0.165554,0.061061,-0.976488
1630059106086,-0.165798,0.06222,-0.976671
1630059106096,-0.166103,0.06222,-0.975573
1630059106105,-0.166896,0.063318,-0.974414
1630059106115,-0.16713999999999998,0.063745,-0.973621
1630059106124,-0.167018,0.06478199999999999,-0.972706
1630059106134,-0.166286,0.063257,-0.971608
1630059106144,-0.166286,0.062098,-0.973804
1630059106153,-0.165798,0.063867,-0.974841
1630059106163,-0.166896,0.06417199999999999,-0.974536
1630059106172,-0.169214,0.066917,-0.974719
1630059106182,-0.16897,0.06801499999999999,-0.97356
1630059106192,-0.168055,0.068198,-0.972096
1630059106201,-0.167262,0.06801499999999999,-0.97112
1630059106211,-0.168909,0.06588,-0.969473
1630059106220,-0.168848,0.065026,-0.967704
1630059106230,-0.168604,0.063745,-0.969839
1630059106240,-0.168848,0.064416,-0.970693
1630059106249,-0.169702,0.065941,-0.971669
1630059106259,-0.169336,0.067222,-0.974231
1630059106268,-0.170068,0.067832,-0.975756
1630059106278,-0.169885,0.067161,-0.97661
1630059106288,-0.169214,0.06649,-0.976488
1630059106297,-0.169519,0.065758,-0.976183
1630059106307,-0.169458,0.063928,-0.977403
1630059106316,-0.169397,0.063379,-0.978318
1630059106326,-0.169824,0.06344,-0.978989
1630059106336,-0.169214,0.063501,-0.9776469999999999
1630059106345,-0.168238,0.06344,-0.9779519999999999
1630059106355,-0.168848,0.063196,-0.977708
1630059106364,-0.168665,0.064416,-0.977159
1630059106374,-0.169824,0.065026,-0.976976
1630059106384,-0.169397,0.06508699999999999,-0.976366
1630059106393,-0.17055599999999999,0.065148,-0.9745969999999999
1630059106403,-0.169641,0.063989,-0.974048
1630059106412,-0.170007,0.064538,-0.972096
1630059106422,-0.169336,0.066368,-0.973194
1630059106432,-0.170068,0.066551,-0.973011
1630059106441,-0.17019,0.066795,-0.972096
1630059106451,-0.170007,0.06649,-0.97173
1630059106460,-0.169824,0.066368,-0.971974
1630059106470,-0.170068,0.06588,-0.971486
1630059106480,-0.16994599999999999,0.06527,-0.970571
1630059106489,-0.169702,0.065636,-0.972218
1630059106499,-0.169458,0.06527,-0.972584
1630059106508,-0.169458,0.064904,-0.97539
1630059106518,-0.168848,0.06478199999999999,-0.973926
1630059106528,-0.168604,0.063806,-0.9736819999999999
1630059106537,-0.168482,0.061488,-0.973255
1630059106547,-0.16958,0.062037,-0.97234
1630059106556,-0.168848,0.061,-0.973438
1630059106566,-0.168421,0.061121999999999996,-0.973438
1630059106576,-0.16958,0.060511999999999996,-0.973194
1630059106585,-0.170617,0.061671,-0.97356
1630059106595,-0.170129,0.062952,-0.975939
1630059106604,-0.171349,0.062769,-0.9752069999999999
1630059106614,-0.172142,0.062464,-0.975573
1630059106624,-0.17263,0.063379,-0.976
1630059106633,-0.172264,0.064233,-0.978318
1630059106643,-0.172874,0.06539199999999999,-0.978745
1630059106652,-0.171898,0.064721,-0.976854
1630059106662,-0.17202,0.065331,-0.976244
1630059106672,-0.171654,0.064965,-0.975634
1630059106681,-0.17141,0.066612,-0.9755119999999999
1630059106691,-0.170434,0.066368,-0.974658
1630059106700,-0.170678,0.064294,-0.974048
1630059106710,-0.171532,0.063684,-0.975085
1630059106720,-0.17055599999999999,0.064721,-0.97661
1630059106729,-0.170129,0.066673,-0.978501
1630059106739,-0.16897,0.066002,-0.9788669999999999
1630059106748,-0.169885,0.063745,-0.978074
1630059106758,-0.17086099999999999,0.062403,-0.9749019999999999
1630059106768,-0.17116599999999998,0.062464,-0.973316
1630059106777,-0.170007,0.063074,-0.9742919999999999
1630059106787,-0.170007,0.063928,-0.97417
1630059106796,-0.170373,0.066673,-0.97417
1630059106806,-0.171227,0.066124,-0.9724619999999999
1630059106816,-0.171532,0.06478199999999999,-0.972645
1630059106825,-0.17141,0.064416,-0.973926
1630059106835,-0.17019,0.065209,-0.974658
1630059106844,-0.171349,0.066368,-0.974658
1630059106854,-0.171227,0.067283,-0.975634
1630059106864,-0.170678,0.067954,-0.9755119999999999
1630059106873,-0.170373,0.068808,-0.975268
1630059106883,-0.17086099999999999,0.068442,-0.974963
1630059106892,-0.170495,0.069113,-0.975756
1630059106902,-0.17055599999999999,0.068564,-0.974536
1630059106912,-0.17177599999999998,0.06801499999999999,-0.973865
1630059106921,-0.171044,0.066063,-0.9718519999999999
1630059106931,-0.17141,0.065758,-0.97051
1630059106940,-0.17055599999999999,0.066124,-0.971303
1630059106950,-0.17116599999999998,0.06417199999999999,-0.968131
1630059106960,-0.170678,0.067039,-0.970144
1630059106969,-0.171349,0.068686,-0.9709369999999999
1630059106979,-0.170434,0.068686,-0.972035
1630059106988,-0.171044,0.06770999999999999,-0.971974
1630059106998,-0.171288,0.068381,-0.972096
1630059107008,-0.17208099999999998,0.066978,-0.973011
1630059107017,-0.171715,0.065331,-0.9736819999999999
1630059107027,-0.173911,0.066124,-0.974536
1630059107036,-0.174094,0.067527,-0.973438
1630059107046,-0.17385,0.067954,-0.9739869999999999
1630059107056,-0.173667,0.068503,-0.975573
1630059107065,-0.174277,0.069662,-0.974719
1630059107075,-0.175131,0.069418,-0.9749019999999999
1630059107084,-0.17446,0.068503,-0.975024
1630059107094,-0.173484,0.067222,-0.975085
1630059107104,-0.174521,0.066307,-0.975268
1630059107113,-0.173118,0.066063,-0.974963
1630059107123,-0.17202,0.065758,-0.975939
1630059107132,-0.172447,0.06539199999999999,-0.975024
1630059107142,-0.172264,0.066368,-0.975024
1630059107152,-0.172569,0.06588,-0.975085
1630059107161,-0.17263,0.066063,-0.974536
1630059107171,-0.17330099999999998,0.067039,-0.974841
1630059107180,-0.172142,0.06740499999999999,-0.97478
1630059107190,-0.17238599999999998,0.067954,-0.974963
1630059107200,-0.173179,0.067283,-0.973499
1630059107209,-0.17263,0.066795,-0.973621
1630059107219,-0.172142,0.066917,-0.973438
1630059107228,-0.172142,0.067039,-0.9727669999999999
1630059107238,-0.17141,0.067039,-0.9736819999999999
1630059107248,-0.171959,0.067771,-0.973743
1630059107257,-0.171837,0.068503,-0.973438
1630059107267,-0.172325,0.068259,-0.973804
1630059107276,-0.1708,0.069479,-0.97417
1630059107286,-0.170129,0.06801499999999999,-0.971913
1630059107296,-0.171593,0.066917,-0.970449
1630059107305,-0.170678,0.065758,-0.9700219999999999
1630059107315,-0.172142,0.066917,-0.9691069999999999
1630059107324,-0.171654,0.067527,-0.9699
1630059107334,-0.172508,0.06893,-0.9706319999999999
1630059107344,-0.172508,0.069723,-0.9718519999999999
1630059107353,-0.17324,0.069418,-0.971364
