timestamp,ax,ay,az
1631118993977,-0.145668,-0.619028,-0.745847
1631118993986,-0.144814,-0.619211,-0.743346
1631118993996,-0.143716,-0.621712,-0.7412719999999999
1631118994005,-0.143228,-0.626958,-0.739198
1631118994015,-0.142008,-0.632387,-0.73932
1631118994025,-0.14036099999999999,-0.635925,-0.738466
1631118994034,-0.139141,-0.64172,-0.736758
1631118994044,-0.138226,-0.647454,-0.737368
1631118994053,-0.13694499999999998,-0.651602,-0.736819
1631118994063,-0.136274,-0.654042,-0.735965
1631118994073,-0.13572499999999998,-0.656116,-0.737795
1631118994082,-0.135481,-0.6569699999999999,-0.73993
1631118994092,-0.135237,-0.657031,-0.740784
1631118994101,-0.13572499999999998,-0.658678,-0.741821
1631118994111,-0.136762,-0.660264,-0.7403569999999999
1631118994121,-0.136152,-0.661606,-0.738283
1631118994130,-0.135237,-0.665022,-0.735904
1631118994140,-0.133712,-0.666974,-0.733281
1631118994149,-0.131699,-0.670024,-0.7315119999999999
1631118994159,-0.131821,-0.672769,-0.729621
1631118994169,-0.131638,-0.675697,-0.731329
1631118994178,-0.132004,-0.675453,-0.731878
1631118994188,-0.132187,-0.674843,-0.731939
1631118994197,-0.131272,-0.67466,-0.732671
1631118994207,-0.130357,-0.673318,-0.73444
1631118994217,-0.128832,-0.671,-0.736514
1631118994226,-0.128405,-0.668316,-0.736941
1631118994236,-0.127368,-0.664778,-0.7354769999999999
1631118994245,-0.128222,-0.664839,-0.7357819999999999
1631118994255,-0.13047899999999998,-0.662887,-0.733586
1631118994265,-0.131699,-0.660264,-0.7339519999999999
1631118994274,-0.132797,-0.6572749999999999,-0.736941
1631118271005,-0.276208,-0.380701,-0.879254
1631118271014,-0.277794,-0.381311,-0.878949
1631118271024,-0.279807,-0.381006,-0.87901
1631118271033,-0.279563,-0.381677,-0.8781559999999999
1631118271043,-0.282125,-0.38369,-0.877973
1631118271053,-0.28346699999999997,-0.384239,-0.877363
1631118271062,-0.28487,-0.384788,-0.876387
1631118271072,-0.28529699999999997,-0.384544,-0.875655
1631118271081,-0.286761,-0.385032,-0.875777
1631118271091,-0.287005,-0.383751,-0.875655
1631118271101,-0.28731,-0.384422,-0.876204
1631118271110,-0.289201,-0.384788,-0.876692
1631118271120,-0.289994,-0.385215,-0.87657
1631118271129,-0.289872,-0.386923,-0.8754109999999999
1631118271139,-0.290421,-0.388387,-0.875228
1631118271149,-0.291031,-0.389607,-0.872788
1631118271158,-0.291702,-0.390278,-0.871995
1631118271168,-0.2928,-0.392352,-0.8723609999999999
1631118271177,-0.292373,-0.392657,-0.871263
1631118271187,-0.291946,-0.393084,-0.8723
1631118271197,-0.292068,-0.393267,-0.87169
1631118271206,-0.29158,-0.393694,-0.870348
1631118271216,-0.292251,-0.393877,-0.8708359999999999
1631118271225,-0.291763,-0.391986,-0.869494
1631118271235,-0.294508,-0.391742,-0.86803
1631118271245,-0.29402,-0.391803,-0.866932
1631118271254,-0.295301,-0.39283999999999997,-0.866871
1631118271264,-0.295606,-0.393816,-0.866322
1631118271273,-0.297192,-0.39466999999999997,-0.867664
1631118271283,-0.297558,-0.393572,-0.869311
1631118271293,-0.29707,-0.390522,-0.872178
1631118271302,-0.29853399999999997,-0.389424,-0.873642
1631118271312,-0.298168,-0.387167,-0.875594
1631118271321,-0.298168,-0.384666,-0.876265
1631118271331,-0.298717,-0.38295799999999997,-0.877485
1631118271341,-0.2989,-0.38112799999999997,-0.875777
1631118271350,-0.298961,-0.377834,-0.874679
1631118271360,-0.299205,-0.37637,-0.874862
1631118271369,-0.301584,-0.375577,-0.874069
1631118271379,-0.299754,-0.37393,-0.87413
1631118271389,-0.2989,-0.372405,-0.8741909999999999
1631118271398,-0.299205,-0.37063599999999997,-0.8751059999999999
1631118271408,-0.29853399999999997,-0.369172,-0.876692
1631118271417,-0.298717,-0.368562,-0.876875
1631118271427,-0.298168,-0.368257,-0.8766309999999999
1631118271437,-0.298168,-0.365878,-0.8760209999999999
1631118271446,-0.29768,-0.36484099999999997,-0.875899
1631118271456,-0.298656,-0.364414,-0.875777
1631118271465,-0.297497,-0.363987,-0.874862
1631118271475,-0.29731399999999997,-0.363011,-0.875289
1631118271485,-0.298107,-0.361547,-0.8751059999999999
1631118271494,-0.297131,-0.36051,-0.875533
1631118271504,-0.297741,-0.358131,-0.877424
1631118271513,-0.297558,-0.35648399999999997,-0.8784
1631118271523,-0.297131,-0.354898,-0.877363
1631118271533,-0.29829,-0.353678,-0.87779
1631118271542,-0.29853399999999997,-0.352458,-0.878339
1631118271552,-0.299327,-0.35251899999999997,-0.8766309999999999
1631118271561,-0.300852,-0.353251,-0.876448
1631118271571,-0.299998,-0.35441,-0.8769359999999999
1631118271581,-0.300303,-0.35556899999999997,-0.878217
1631118271590,-0.300242,-0.356362,-0.878278
1631118271600,-0.30134,-0.35770399999999997,-0.877668
1631118271609,-0.301462,-0.35929,-0.879193
1631118271619,-0.301279,-0.359656,-0.879315
1631118271629,-0.302072,-0.361486,-0.8781559999999999
1631118271638,-0.301706,-0.361059,-0.878644
1631118271648,-0.301828,-0.361059,-0.880169
1631118271657,-0.301645,-0.361242,-0.88023
1631118271667,-0.301706,-0.361913,-0.880047
1631118271677,-0.300242,-0.362401,-0.8805959999999999
1631118271686,-0.300608,-0.36362099999999997,-0.879254
1631118271696,-0.30073,-0.363072,-0.878888
1631118271705,-0.299266,-0.363865,-0.87779
1631118271715,-0.299571,-0.363072,-0.876875
1631118271725,-0.300425,-0.363438,-0.8778509999999999
1631118271734,-0.300059,-0.363438,-0.87718
1631118271744,-0.299693,-0.363865,-0.8781559999999999
1631118271753,-0.300059,-0.364902,-0.88023
1631118271763,-0.298839,-0.366305,-0.881084
1631118271773,-0.298168,-0.365573,-0.880718
1631118271782,-0.29761899999999997,-0.367342,-0.87962
1631118271792,-0.298168,-0.367769,-0.880718
1631118271801,-0.298656,-0.366793,-0.880718
1631118271811,-0.297985,-0.367037,-0.881267
1631118271821,-0.297741,-0.366549,-0.881694
1631118271830,-0.296521,-0.367037,-0.881877
1631118271840,-0.296216,-0.36783,-0.883463
1631118271849,-0.296216,-0.36789099999999997,-0.883097
1631118271859,-0.29487399999999997,-0.368257,-0.88328
1631118271869,-0.294386,-0.368074,-0.882548
1631118271878,-0.292861,-0.368562,-0.8818159999999999
1631118271888,-0.292312,-0.368867,-0.882487
1631118271897,-0.291153,-0.36905,-0.8818159999999999
1631118271907,-0.290848,-0.36844,-0.881633
1631118271917,-0.290055,-0.369172,-0.881328
1631118271926,-0.289567,-0.36905,-0.879803
1631118271936,-0.28792,-0.368013,-0.8784609999999999
1631118271945,-0.288713,-0.36783,-0.877973
1631118271955,-0.28792,-0.367708,-0.877424
1631118271965,-0.286578,-0.36697599999999997,-0.878583
1631118271974,-0.286822,-0.365695,-0.876997
1631118271984,-0.28560199999999997,-0.365634,-0.8775459999999999
1631118271993,-0.285724,-0.363255,-0.8775459999999999
1631118272003,-0.285053,-0.362645,-0.879559
1631118272013,-0.285053,-0.361242,-0.879864
1631118272022,-0.283833,-0.359656,-0.880474
1631118272032,-0.284199,-0.357277,-0.882243
1631118272041,-0.285419,-0.35685,-0.883158
1631118272051,-0.28499199999999997,-0.356301,-0.8836459999999999
1631118272061,-0.284443,-0.356362,-0.885049
1631118272070,-0.283223,-0.354837,-0.883768
1631118272080,-0.28377199999999997,-0.355081,-0.8830359999999999
1631118272089,-0.283894,-0.354898,-0.882609
1631118272099,-0.28316199999999997,-0.353007,-0.882304
1631118272109,-0.28255199999999997,-0.35258,-0.880108
1631118272118,-0.28377199999999997,-0.351116,-0.8812059999999999
1631118272128,-0.28560199999999997,-0.352885,-0.882609
1631118272137,-0.286578,-0.35258,-0.8839509999999999
1631118272147,-0.285663,-0.35282399999999997,-0.8863909999999999
1631118272157,-0.284565,-0.352458,-0.8888309999999999
1631118272166,-0.28426,-0.35282399999999997,-0.88999
1631118272176,-0.284809,-0.353007,-0.886879
1631118272185,-0.28560199999999997,-0.3538,-0.886269
1631118272195,-0.285785,-0.354715,-0.88572
1631118272205,-0.2867,-0.356972,-0.885415
1631118272214,-0.286761,-0.35831399999999997,-0.8854759999999999
1631118272224,-0.285846,-0.357948,-0.885293
1631118272233,-0.28560199999999997,-0.357155,-0.8842559999999999
1631118272243,-0.28560199999999997,-0.356545,-0.883829
1631118272253,-0.28499199999999997,-0.356545,-0.884378
1631118272262,-0.285175,-0.357155,-0.8851709999999999
1631118272272,-0.28590699999999997,-0.356423,-0.8851709999999999
1631118272281,-0.28548,-0.35739899999999997,-0.8857809999999999
1631118272291,-0.284626,-0.357338,-0.885659
1631118272301,-0.285724,-0.359168,-0.884622
1631118272310,-0.28548,-0.360205,-0.8860859999999999
1631118272320,-0.286151,-0.361242,-0.886818
1631118272329,-0.28529699999999997,-0.363438,-0.886025
1631118272339,-0.285541,-0.36295,-0.88633
1631118272349,-0.28609,-0.362218,-0.885964
1631118272358,-0.285541,-0.36356,-0.886025
1631118272368,-0.28560199999999997,-0.363743,-0.88511
1631118272377,-0.285053,-0.363804,-0.88389
1631118272387,-0.284443,-0.363682,-0.884805
1631118272397,-0.28285699999999997,-0.363682,-0.885049
1631118272406,-0.283894,-0.363316,-0.8845609999999999
1631118272416,-0.283589,-0.364048,-0.883158
1631118272425,-0.282674,-0.36484099999999997,-0.8833409999999999
1631118272435,-0.282918,-0.364902,-0.8818159999999999
1631118272445,-0.282186,-0.364902,-0.881694
1631118272454,-0.281759,-0.364963,-0.881267
1631118272464,-0.282125,-0.36545099999999997,-0.8815109999999999
1631118272473,-0.28163699999999997,-0.365207,-0.881877
1631118272483,-0.281454,-0.365512,-0.881572
1631118272493,-0.281088,-0.36606099999999997,-0.88267
1631118272502,-0.281088,-0.365573,-0.882975
1631118272512,-0.281271,-0.365024,-0.883707
1631118272521,-0.280356,-0.36453599999999997,-0.88328
1631118272531,-0.28041699999999997,-0.36417,-0.882914
1631118272541,-0.280234,-0.364353,-0.881877
1631118272550,-0.28011199999999997,-0.36356,-0.882914
1631118272560,-0.279441,-0.363194,-0.881999
1631118272569,-0.280539,-0.362279,-0.881694
1631118272579,-0.281515,-0.361547,-0.881572
1631118272589,-0.280905,-0.362401,-0.881938
1631118272598,-0.282186,-0.362828,-0.881084
1631118272608,-0.28255199999999997,-0.362218,-0.8818159999999999
1631118272617,-0.28121,-0.362889,-0.881389
1631118272627,-0.281454,-0.362462,-0.8812059999999999
1631118272637,-0.281454,-0.363682,-0.881633
1631118272646,-0.28072199999999997,-0.364719,-0.881328
1631118272656,-0.280539,-0.364902,-0.881389
1631118272665,-0.280783,-0.366183,-0.881694
1631118272675,-0.28072199999999997,-0.36636599999999997,-0.88084
1631118272685,-0.2806,-0.36783,-0.881572
1631118272694,-0.28121,-0.368074,-0.881267
1631118272704,-0.28102699999999997,-0.369904,-0.882304
1631118272713,-0.280478,-0.370392,-0.882548
1631118272723,-0.280051,-0.37124599999999996,-0.8836459999999999
1631118272733,-0.279868,-0.372344,-0.883097
1631118272742,-0.28072199999999997,-0.37332,-0.882243
1631118272752,-0.279746,-0.373686,-0.881938
1631118272761,-0.280051,-0.374601,-0.881938
1631118272771,-0.279929,-0.373869,-0.881755
1631118272781,-0.280844,-0.373442,-0.883097
1631118272790,-0.280966,-0.37332,-0.8845
1631118272800,-0.279685,-0.372222,-0.884317
1631118272809,-0.279807,-0.370209,-0.8842559999999999
1631118272819,-0.277672,-0.368989,-0.882975
1631118272829,-0.279258,-0.368318,-0.881145
1631118272838,-0.27938,-0.36850099999999997,-0.879315
1631118272848,-0.279319,-0.367098,-0.87901
1631118272857,-0.282125,-0.367952,-0.880047
1631118272867,-0.28243,-0.367647,-0.882975
1631118272877,-0.281088,-0.367464,-0.885659
1631118272886,-0.279868,-0.367098,-0.88755
1631118272896,-0.279258,-0.36661,-0.888099
1631118272905,-0.279502,-0.366488,-0.886818
1631118272915,-0.280356,-0.367098,-0.884744
1631118272925,-0.280966,-0.366427,-0.881938
1631118272934,-0.281088,-0.367098,-0.878888
1631118272944,-0.280478,-0.367525,-0.877912
1631118272953,-0.28072199999999997,-0.36697599999999997,-0.8775459999999999
1631118272963,-0.27999,-0.367525,-0.878034
1631118272973,-0.279441,-0.367464,-0.879925
1631118272982,-0.278465,-0.366854,-0.88023
1631118272992,-0.279441,-0.366732,-0.88023
1631118273001,-0.278648,-0.366854,-0.880352
1631118273011,-0.279014,-0.367403,-0.88084
1631118273021,-0.279746,-0.367647,-0.880962
1631118273030,-0.279319,-0.367708,-0.880779
1631118273040,-0.278282,-0.36783,-0.880657
1631118273049,-0.278404,-0.36728099999999997,-0.881633
1631118273059,-0.276696,-0.368074,-0.8809009999999999
1631118273069,-0.277794,-0.368013,-0.881633
1631118273078,-0.277794,-0.368928,-0.88084
1631118273088,-0.278343,-0.369355,-0.88023
1631118273097,-0.277794,-0.370575,-0.881694
1631118273107,-0.279563,-0.37271,-0.8815109999999999
1631118273117,-0.278892,-0.37332,-0.882182
1631118273126,-0.277794,-0.373808,-0.881877
1631118273136,-0.277306,-0.37454,-0.8818159999999999
1631118273145,-0.278892,-0.374418,-0.882914
1631118273155,-0.278099,-0.374784,-0.883219
1631118273165,-0.277672,-0.375028,-0.88267
1631118273174,-0.278282,-0.374479,-0.881633
1631118273184,-0.277855,-0.374479,-0.881023
1631118273193,-0.27694,-0.374052,-0.8805959999999999
1631118273203,-0.276879,-0.374113,-0.880535
1631118273213,-0.277367,-0.373198,-0.882365
1631118273222,-0.277916,-0.373381,-0.883158
1631118273232,-0.276574,-0.373564,-0.883524
1631118273241,-0.277184,-0.373625,-0.883829
1631118273251,-0.277794,-0.372954,-0.883707
1631118273261,-0.277977,-0.373625,-0.883463
1631118273270,-0.27816,-0.37393,-0.883158
1631118273280,-0.278465,-0.373808,-0.8836459999999999
1631118273289,-0.27694,-0.372466,-0.883585
1631118273299,-0.277733,-0.37332,-0.883219
1631118273309,-0.27755,-0.373869,-0.884195
1631118273318,-0.277672,-0.373808,-0.884927
1631118273328,-0.27694,-0.374662,-0.884012
1631118273337,-0.276269,-0.374479,-0.882548
1631118273347,-0.27511,-0.37271,-0.883585
1631118273357,-0.2745,-0.374601,-0.882304
1631118273366,-0.274805,-0.373198,-0.880962
1631118273376,-0.274378,-0.372588,-0.880352
1631118273385,-0.274927,-0.373564,-0.87901
1631118273395,-0.274683,-0.372771,-0.8790709999999999
1631118273405,-0.274317,-0.3721,-0.87962
1631118273414,-0.27419499999999997,-0.373259,-0.879742
1631118273424,-0.274256,-0.373503,-0.879925
1631118273433,-0.27297499999999997,-0.374052,-0.880474
1631118273443,-0.272182,-0.37515,-0.8805959999999999
1631118273453,-0.27236499999999997,-0.374357,-0.879803
1631118273462,-0.271816,-0.373808,-0.8799859999999999
1631118273472,-0.272304,-0.374235,-0.879193
1631118273481,-0.272182,-0.37515,-0.879498
1631118273491,-0.271999,-0.37533299999999997,-0.8796809999999999
1631118273501,-0.272182,-0.376004,-0.880169
1631118273510,-0.27266999999999997,-0.376919,-0.879132
1631118273520,-0.271389,-0.37777299999999997,-0.879193
1631118273529,-0.271877,-0.378871,-0.879498
1631118273539,-0.270352,-0.380579,-0.880718
1631118273549,-0.270718,-0.38112799999999997,-0.8802909999999999
1631118273558,-0.269864,-0.381555,-0.8812059999999999
1631118273568,-0.269864,-0.381555,-0.881023
1631118273577,-0.270596,-0.38143299999999997,-0.8815109999999999
1631118273587,-0.270718,-0.381982,-0.879254
1631118273597,-0.270352,-0.381006,-0.878827
1631118273606,-0.269437,-0.382287,-0.88023
1631118273616,-0.26839999999999997,-0.38356799999999996,-0.880474
1631118273625,-0.26809499999999997,-0.382165,-0.881145
1631118273635,-0.269376,-0.381555,-0.879742
1631118273645,-0.268583,-0.382165,-0.8793759999999999
1631118273654,-0.270169,-0.38173799999999997,-0.881145
1631118273664,-0.269376,-0.38326299999999996,-0.88145
1631118273673,-0.267851,-0.381982,-0.882975
1631118273683,-0.267607,-0.381555,-0.8857809999999999
1631118273693,-0.266814,-0.381799,-0.886818
1631118273702,-0.266387,-0.38265299999999997,-0.885598
1631118273712,-0.266509,-0.38308,-0.8845609999999999
1631118273721,-0.265716,-0.382897,-0.88267
1631118273731,-0.265045,-0.38234799999999997,-0.880962
1631118273741,-0.264618,-0.38356799999999996,-0.880169
1631118273750,-0.263032,-0.384056,-0.881633
1631118273760,-0.261629,-0.384117,-0.882243
1631118273769,-0.26095799999999997,-0.38491,-0.882365
1631118273779,-0.259677,-0.384727,-0.883158
1631118273789,-0.260104,-0.385459,-0.8830359999999999
1631118273798,-0.259616,-0.384422,-0.881999
1631118273808,-0.259616,-0.3843,-0.880047
1631118273817,-0.258884,-0.385398,-0.879803
1631118273827,-0.257237,-0.386191,-0.880535
1631118273837,-0.25821299999999997,-0.386313,-0.879559
1631118273846,-0.258335,-0.38734999999999997,-0.881328
1631118273856,-0.256627,-0.387533,-0.881938
1631118273865,-0.256749,-0.38734999999999997,-0.882548
1631118273875,-0.255773,-0.38765499999999997,-0.881389
1631118273885,-0.255468,-0.386984,-0.882548
1631118273894,-0.25729799999999997,-0.386862,-0.882609
1631118273904,-0.255407,-0.386618,-0.883463
1631118273913,-0.25668799999999997,-0.384239,-0.881694
1631118273923,-0.257115,-0.383934,-0.883463
1631118273933,-0.255102,-0.37990799999999997,-0.881755
1631118273942,-0.256444,-0.38003,-0.8851709999999999
1631118273952,-0.254858,-0.380152,-0.884378
1631118273961,-0.255407,-0.380335,-0.886025
1631118273971,-0.255285,-0.380762,-0.885964
1631118273981,-0.256261,-0.37960299999999997,-0.885659
1631118273990,-0.255895,-0.3782,-0.884805
1631118274000,-0.255834,-0.37685799999999997,-0.885293
1631118274009,-0.256566,-0.376309,-0.88511
1631118274019,-0.256749,-0.372588,-0.886452
1631118274029,-0.257237,-0.37088,-0.890295
1631118274038,-0.257725,-0.36972099999999997,-0.8894409999999999
1631118274048,-0.257176,-0.369538,-0.886757
1631118274057,-0.256444,-0.369965,-0.885903
1631118274067,-0.257115,-0.370819,-0.8851709999999999
1631118274077,-0.256566,-0.371917,-0.883707
1631118274086,-0.25498,-0.37393,-0.881877
1631118274096,-0.255224,-0.373137,-0.883158
1631118274105,-0.256322,-0.372405,-0.887123
1631118274115,-0.254736,-0.371307,-0.884317
1631118274125,-0.25638299999999997,-0.369843,-0.882609
1631118274134,-0.255102,-0.36728099999999997,-0.885537
1631118274144,-0.254553,-0.366549,-0.886574
1631118274153,-0.253943,-0.365817,-0.887794
1631118274163,-0.254004,-0.36484099999999997,-0.8866959999999999
1631118274173,-0.254553,-0.365573,-0.88511
1631118274182,-0.25437,-0.366244,-0.8851709999999999
1631118274192,-0.254919,-0.367037,-0.884439
1631118274201,-0.255529,-0.368013,-0.8857809999999999
1631118274211,-0.25681,-0.368135,-0.8873059999999999
1631118274221,-0.25668799999999997,-0.368379,-0.88816
1631118274230,-0.257847,-0.367952,-0.889014
1631118274240,-0.25803,-0.367037,-0.889502
1631118274249,-0.258091,-0.365329,-0.8894409999999999
1631118274259,-0.259006,-0.365939,-0.889624
1631118274269,-0.259616,-0.367464,-0.888404
1631118274278,-0.260226,-0.36758599999999997,-0.887794
1631118274288,-0.260775,-0.367769,-0.88755
1631118274297,-0.260897,-0.367708,-0.887428
1631118274307,-0.261629,-0.368257,-0.888465
1631118274317,-0.263398,-0.36819599999999997,-0.887794
1631118274326,-0.263581,-0.36880599999999997,-0.887855
1631118274336,-0.263764,-0.368257,-0.887977
1631118274345,-0.264191,-0.370148,-0.888343
1631118274355,-0.26596,-0.371185,-0.889502
1631118274365,-0.265655,-0.370148,-0.889075
1631118274374,-0.265411,-0.370453,-0.888404
1631118274384,-0.266326,-0.370697,-0.887733
1631118274393,-0.267058,-0.371429,-0.887733
1631118274403,-0.266509,-0.373442,-0.887062
1631118274413,-0.266997,-0.371917,-0.8870009999999999
1631118274422,-0.26718,-0.372222,-0.885537
1631118274432,-0.268278,-0.372588,-0.885415
1631118274441,-0.26900999999999997,-0.373747,-0.883768
1631118274451,-0.268278,-0.374235,-0.885232
1631118274461,-0.268339,-0.373869,-0.887977
1631118274470,-0.267302,-0.374052,-0.889075
1631118274480,-0.26779,-0.375028,-0.888038
1631118274489,-0.268217,-0.374235,-0.886635
1631118274499,-0.268461,-0.374845,-0.88389
1631118274509,-0.26839999999999997,-0.373564,-0.882304
1631118274518,-0.267729,-0.373198,-0.881145
1631118274528,-0.266814,-0.374601,-0.8802909999999999
1631118274537,-0.267058,-0.37454,-0.879925
1631118274547,-0.266204,-0.374174,-0.878339
1631118274557,-0.267973,-0.373808,-0.877668
1631118274566,-0.267973,-0.373686,-0.879315
1631118274576,-0.26718,-0.373564,-0.879254
1631118274585,-0.267485,-0.373991,-0.8793759999999999
1631118274595,-0.268461,-0.373503,-0.8784
1631118274605,-0.269864,-0.374784,-0.8784609999999999
1631118274614,-0.270413,-0.375577,-0.87901
1631118274624,-0.271694,-0.376065,-0.881755
1631118274633,-0.271389,-0.376004,-0.883097
1631118274643,-0.27175499999999997,-0.37576,-0.884195
1631118274653,-0.270962,-0.376797,-0.88389
1631118274662,-0.271328,-0.376736,-0.882853
1631118274672,-0.27205999999999997,-0.37685799999999997,-0.881999
1631118274681,-0.27297499999999997,-0.377102,-0.885049
1631118274691,-0.273402,-0.376736,-0.88694
1631118274701,-0.273829,-0.37868799999999997,-0.88938
1631118274710,-0.273402,-0.379359,-0.891332
1631118274720,-0.272487,-0.377224,-0.8894409999999999
1631118274729,-0.270657,-0.37454,-0.885232
1631118274739,-0.270962,-0.373686,-0.88267
1631118274749,-0.269193,-0.375882,-0.887123
1631118274758,-0.267668,-0.37942,-0.891393
1631118274768,-0.269376,-0.37990799999999997,-0.892857
1631118274777,-0.267668,-0.383324,-0.889014
1631118274787,-0.265716,-0.387838,-0.889014
1631118274797,-0.260409,-0.392413,-0.886025
1631118274806,-0.2562,-0.393938,-0.8860859999999999
1631118274816,-0.250405,-0.397659,-0.883707
1631118274825,-0.24851399999999998,-0.403576,-0.883463
1631118274835,-0.243756,-0.409737,-0.8848659999999999
1631118274845,-0.238815,-0.415471,-0.884744
1631118274854,-0.234362,-0.41961899999999996,-0.882975
1631118274864,-0.23094599999999998,-0.424499,-0.88084
1631118274873,-0.228994,-0.431453,-0.880474
1631118274883,-0.224968,-0.43724799999999997,-0.879132
1631118274893,-0.219356,-0.441884,-0.876204
1631118274902,-0.213805,-0.443592,-0.872483
1631118274912,-0.20813199999999998,-0.443104,-0.86986
1631118274921,-0.202093,-0.442616,-0.865285
1631118274931,-0.196786,-0.443409,-0.8623569999999999
1631118274941,-0.19154,-0.444019,-0.8626619999999999
1631118274950,-0.189405,-0.445727,-0.8644919999999999
1631118274960,-0.184281,-0.45170499999999997,-0.865773
1631118274969,-0.18056,-0.457744,-0.868457
1631118274979,-0.179828,-0.45945199999999997,-0.868457
1631118274989,-0.17873,-0.46097699999999997,-0.866871
1631118274998,-0.179523,-0.46177,-0.862418
1631118275008,-0.17824199999999998,-0.459696,-0.85827
1631118275017,-0.177388,-0.457134,-0.857355
1631118275027,-0.176778,-0.454877,-0.8562569999999999
1631118275037,-0.174704,-0.452254,-0.854244
1631118275046,-0.173484,-0.448777,-0.852475
1631118275056,-0.17141,-0.452132,-0.853146
1631118275065,-0.167933,-0.455731,-0.8547319999999999
1631118275075,-0.166591,-0.460428,-0.855281
1631118275085,-0.166896,-0.466223,-0.861076
1631118275094,-0.167323,-0.471286,-0.8662
1631118275104,-0.168543,-0.473421,-0.868457
1631118275113,-0.169214,-0.47299399999999997,-0.865468
1631118275123,-0.16652999999999998,-0.469273,-0.862296
1631118275133,-0.166591,-0.46604,-0.857904
1631118275142,-0.165066,-0.462014,-0.850401
1631118275152,-0.165249,-0.461038,-0.846619
1631118275161,-0.166042,-0.465674,-0.848754
1631118275171,-0.165188,-0.470432,-0.850096
1631118275181,-0.165371,-0.476288,-0.849486
1631118275190,-0.165981,-0.48068,-0.852414
1631118275200,-0.16652999999999998,-0.481656,-0.853939
1631118275209,-0.166713,-0.479338,-0.854915
1631118275219,-0.168238,-0.480436,-0.85644
1631118275229,-0.168238,-0.480131,-0.855281
1631118275238,-0.169214,-0.478972,-0.853878
1631118275248,-0.167567,-0.477752,-0.8541219999999999
1631118275257,-0.167018,-0.47817899999999997,-0.856196
1631118275267,-0.167506,-0.481717,-0.857111
1631118275277,-0.167628,-0.485194,-0.856318
1631118275286,-0.167933,-0.48861,-0.8529019999999999
1631118275296,-0.166408,-0.490867,-0.850218
1631118275305,-0.16713999999999998,-0.494527,-0.850828
1631118275315,-0.167201,-0.496784,-0.853756
1631118275325,-0.167079,-0.496906,-0.858758
1631118275334,-0.167323,-0.493917,-0.860649
1631118275344,-0.168604,-0.49044,-0.8602219999999999
1631118275353,-0.167567,-0.488427,-0.859246
1631118275363,-0.168726,-0.488488,-0.855403
1631118275373,-0.168116,-0.487817,-0.85156
1631118275382,-0.167628,-0.487878,-0.846924
1631118275392,-0.169214,-0.488305,-0.843325
1631118275401,-0.169763,-0.49227,-0.842471
1631118275411,-0.169885,-0.49593,-0.845826
1631118275421,-0.17025099999999999,-0.498492,-0.84973
1631118275430,-0.171532,-0.50203,-0.8559519999999999
1631118275440,-0.173728,-0.504409,-0.861991
1631118275449,-0.175314,-0.505141,-0.863028
1631118275459,-0.178425,-0.503067,-0.859856
1631118275469,-0.17873,-0.499041,-0.854366
1631118275478,-0.178303,-0.49105,-0.840275
1631118275488,-0.180499,-0.488793,-0.836737
1631118275497,-0.179706,-0.49141599999999996,-0.83875
1631118275507,-0.178364,-0.495076,-0.8377129999999999
1631118275517,-0.180011,-0.500139,-0.838567
1631118275526,-0.181658,-0.502823,-0.84302
1631118275536,-0.183061,-0.504592,-0.84668
1631118275545,-0.184952,-0.50569,-0.848998
1631118275555,-0.18666,-0.503921,-0.851011
1631118275565,-0.186965,-0.499102,-0.851194
1631118275574,-0.187087,-0.49202599999999996,-0.847961
1631118275584,-0.185745,-0.48092399999999996,-0.836554
1631118275593,-0.184769,-0.474336,-0.82533
1631118275603,-0.18605,-0.47512899999999997,-0.819474
1631118275613,-0.186416,-0.48031399999999996,-0.820511
1631118275622,-0.188246,-0.485072,-0.82045
1631118275632,-0.191296,-0.489769,-0.819962
1631118275641,-0.195078,-0.495076,-0.818315
1631118275651,-0.199592,-0.502396,-0.820023
1631118275661,-0.203435,-0.505446,-0.821487
1631118275670,-0.20843699999999998,-0.508008,-0.819779
1631118275680,-0.210267,-0.507032,-0.810202
1631118275689,-0.213622,-0.503067,-0.799283
1631118275699,-0.22021,-0.5002,-0.792878
1631118275709,-0.226371,-0.500749,-0.79361
1631118275718,-0.233813,-0.50325,-0.8045289999999999
1631118275728,-0.23985199999999998,-0.510082,-0.818803
1631118275737,-0.24326799999999998,-0.514047,-0.826977
1631118275747,-0.248941,-0.515694,-0.832772
1631118275757,-0.253882,-0.516853,-0.8346629999999999
1631118275766,-0.257725,-0.5188659999999999,-0.831491
1631118275776,-0.26413,-0.5191709999999999,-0.830332
1631118275785,-0.26961999999999997,-0.521245,-0.828746
1631118275795,-0.274622,-0.5216109999999999,-0.825086
1631118275805,-0.277489,-0.52277,-0.818925
1631118275814,-0.280051,-0.521977,-0.815326
1631118275824,-0.284016,-0.5222209999999999,-0.81496
1631118275833,-0.28731,-0.525454,-0.81679
1631118275843,-0.29036,-0.528748,-0.817522
1631118275853,-0.29219,-0.530639,-0.817705
1631118275862,-0.292495,-0.531798,-0.812947
1631118275872,-0.29395899999999997,-0.531249,-0.806237
1631118275881,-0.295911,-0.531554,-0.799222
1631118275891,-0.29731399999999997,-0.532408,-0.791536
1631118275901,-0.298778,-0.531676,-0.784826
1631118275910,-0.297863,-0.531676,-0.778238
1631118275920,-0.29670399999999997,-0.530517,-0.772687
1631118275929,-0.294752,-0.529114,-0.767075
1631118275939,-0.294996,-0.532225,-0.7662209999999999
1631118275949,-0.293471,-0.539057,-0.768783
1631118275958,-0.293776,-0.545828,-0.773236
1631118275968,-0.2928,-0.552904,-0.77348
1631118275977,-0.29639899999999997,-0.557601,-0.773968
1631118275987,-0.299998,-0.564006,-0.780556
1631118275997,-0.301706,-0.569618,-0.7832399999999999
1631118276006,-0.300181,-0.571448,-0.781166
1631118276016,-0.298656,-0.569801,-0.780007
1631118276025,-0.297497,-0.569618,-0.781044
1631118276035,-0.29426399999999997,-0.572485,-0.783667
1631118276045,-0.291946,-0.57401,-0.784521
1631118276054,-0.29036,-0.574254,-0.783118
1631118276064,-0.289201,-0.576755,-0.785802
1631118276073,-0.287127,-0.579866,-0.790621
1631118276083,-0.283711,-0.582672,-0.795806
1631118276093,-0.28285699999999997,-0.581757,-0.8011739999999999
1631118276102,-0.28377199999999997,-0.576938,-0.802516
1631118276112,-0.28182,-0.572546,-0.803431
1631118276121,-0.276147,-0.5647989999999999,-0.796294
1631118276131,-0.272792,-0.555832,-0.7859849999999999
1631118276141,-0.271511,-0.549732,-0.781227
1631118276150,-0.268583,-0.549122,-0.784216
1631118276160,-0.265045,-0.549793,-0.7872049999999999
1631118276169,-0.264069,-0.55449,-0.790804
1631118276179,-0.261507,-0.559431,-0.797392
1631118276189,-0.259799,-0.562481,-0.804102
1631118276198,-0.260226,-0.56181,-0.805017
1631118276208,-0.259616,-0.55693,-0.801967
1631118276217,-0.25742,-0.54961,-0.792024
1631118276227,-0.2562,-0.540948,-0.784643
1631118276237,-0.253333,-0.537532,-0.786168
1631118276246,-0.250649,-0.537654,-0.7884249999999999
1631118276256,-0.24827,-0.538081,-0.790682
1631118276265,-0.248026,-0.540887,-0.793366
1631118276275,-0.247416,-0.542046,-0.79544
1631118276285,-0.247355,-0.544242,-0.797087
1631118276294,-0.24888,-0.543693,-0.795196
1631118276304,-0.248575,-0.542473,-0.79239
1631118276313,-0.248636,-0.536556,-0.784704
1631118276323,-0.24820899999999999,-0.529358,-0.774456
1631118276333,-0.248392,-0.524539,-0.771894
1631118276342,-0.248392,-0.525332,-0.7811049999999999
1631118276352,-0.245891,-0.52765,-0.7872049999999999
1631118276361,-0.244366,-0.525027,-0.793122
1631118276371,-0.242536,-0.522404,-0.792573
1631118276381,-0.24015699999999998,-0.521123,-0.795562
1631118276390,-0.240218,-0.519598,-0.79788
1631118276400,-0.243634,-0.5170359999999999,-0.799222
1631118276409,-0.243817,-0.51606,-0.8023939999999999
1631118276419,-0.246196,-0.513193,-0.8017839999999999
1631118276429,-0.246867,-0.505385,-0.798856
1631118276438,-0.24851399999999998,-0.498736,-0.79666
1631118276448,-0.250832,-0.495259,-0.799161
1631118276457,-0.252662,-0.494527,-0.8042239999999999
1631118276467,-0.254736,-0.494466,-0.8112389999999999
1631118276477,-0.255895,-0.49489299999999997,-0.818498
1631118276486,-0.256261,-0.496906,-0.828624
1631118276496,-0.254431,-0.496906,-0.834419
1631118276505,-0.252723,-0.496906,-0.837286
1631118276515,-0.250405,-0.494527,-0.8407629999999999
1631118276525,-0.24949,-0.48922,-0.843935
1631118276534,-0.247721,-0.486048,-0.850035
1631118276544,-0.245281,-0.484645,-0.854488
1631118276553,-0.24278,-0.482449,-0.85827
1631118276563,-0.24156,-0.4819,-0.8605269999999999
1631118276573,-0.239913,-0.484157,-0.85949
1631118276582,-0.237534,-0.489159,-0.858209
1631118276592,-0.235826,-0.49233099999999996,-0.854061
1631118276601,-0.233142,-0.494832,-0.849974
1631118276611,-0.228262,-0.497882,-0.845948
1631118276621,-0.223138,-0.500566,-0.842898
1631118276630,-0.2196,-0.504165,-0.842776
1631118276640,-0.216855,-0.506239,-0.839116
1631118276649,-0.212951,-0.507459,-0.83875
1631118276659,-0.210084,-0.508069,-0.839482
1631118276669,-0.208315,-0.504592,-0.841861
1631118276678,-0.20618,-0.50081,-0.84546
1631118276688,-0.205448,-0.49733299999999997,-0.8489369999999999
1631118276697,-0.206424,-0.494466,-0.85339
1631118276707,-0.20557,-0.491538,-0.85644
1631118276717,-0.204716,-0.488732,-0.856196
1631118276726,-0.203557,-0.487878,-0.853024
1631118276736,-0.202337,-0.486475,-0.8495469999999999
1631118276745,-0.199531,-0.485072,-0.844972
1631118276755,-0.196298,-0.482388,-0.842044
1631118276765,-0.193065,-0.479948,-0.8398479999999999
1631118276774,-0.19032,-0.476715,-0.837774
1631118276784,-0.188246,-0.47390899999999997,-0.837835
1631118276793,-0.184586,-0.47604399999999997,-0.840336
1631118276803,-0.184037,-0.475983,-0.84241
1631118276813,-0.184952,-0.47543399999999997,-0.845765
1631118276822,-0.184769,-0.476532,-0.848144
1631118276832,-0.184342,-0.475617,-0.848876
1631118276841,-0.185867,-0.474153,-0.84546
1631118276851,-0.186721,-0.47207899999999997,-0.841617
1631118276861,-0.186477,-0.468236,-0.8377129999999999
1631118276870,-0.186538,-0.465186,-0.833077
1631118276880,-0.185501,-0.46177,-0.83021
1631118276889,-0.185196,-0.457439,-0.8306979999999999
1631118276899,-0.183671,-0.455914,-0.833931
1631118276909,-0.182329,-0.458537,-0.841434
1631118276918,-0.183366,-0.463539,-0.8480219999999999
1631118276928,-0.182085,-0.470432,-0.852719
1631118276937,-0.183732,-0.474641,-0.8550369999999999
1631118276947,-0.183122,-0.477081,-0.855464
1631118276957,-0.18287799999999999,-0.47817899999999997,-0.856379
1631118276966,-0.186172,-0.479155,-0.856013
1631118276976,-0.186843,-0.478728,-0.856196
1631118276985,-0.186416,-0.479277,-0.856623
1631118276995,-0.187636,-0.47885,-0.857416
1631118277005,-0.187514,-0.481168,-0.864919
1631118277014,-0.18812399999999999,-0.482937,-0.872544
1631118277024,-0.187758,-0.485987,-0.880962
1631118277033,-0.18727,-0.49019599999999997,-0.88572
1631118277043,-0.187758,-0.491782,-0.890112
1631118277053,-0.188856,-0.49532,-0.893833
1631118277062,-0.186599,-0.496906,-0.89304
1631118277072,-0.187758,-0.497272,-0.8888309999999999
1631118277081,-0.187758,-0.500871,-0.890539
1631118277091,-0.189527,-0.506605,-0.893528
1631118277101,-0.18842899999999999,-0.510936,-0.8891359999999999
1631118277110,-0.186721,-0.511424,-0.8815109999999999
1631118277120,-0.184342,-0.508923,-0.868884
1631118277129,-0.182451,-0.503982,-0.851133
1631118277139,-0.18117,-0.497089,-0.834724
1631118277149,-0.17946199999999998,-0.49044,-0.82228
1631118277158,-0.180499,-0.48440099999999997,-0.816607
1631118277168,-0.180438,-0.481717,-0.8139839999999999
1631118277177,-0.183854,-0.47824,-0.809897
1631118277187,-0.185806,-0.47482399999999997,-0.80703
1631118277197,-0.18849,-0.4758,-0.805688
1631118277206,-0.190747,-0.474031,-0.806603
1631118277216,-0.193248,-0.474336,-0.806542
1631118277225,-0.197579,-0.473116,-0.805566
1631118277235,-0.20069,-0.472018,-0.8057489999999999
1631118277245,-0.205448,-0.472872,-0.808738
1631118277254,-0.207095,-0.475861,-0.812581
1631118277264,-0.209535,-0.476105,-0.811605
1631118277273,-0.210572,-0.47512899999999997,-0.804712
1631118277283,-0.211426,-0.47085899999999997,-0.796416
1631118277293,-0.213927,-0.467626,-0.793488
1631118277302,-0.217282,-0.46799199999999996,-0.80337
1631118277312,-0.221003,-0.472201,-0.816912
1631118277321,-0.222833,-0.479216,-0.832894
1631118277331,-0.223199,-0.486658,-0.847778
1631118277341,-0.224663,-0.49227,-0.856623
1631118277350,-0.22539499999999998,-0.495625,-0.864248
1631118277360,-0.22539499999999998,-0.49916299999999997,-0.871202
1631118277369,-0.226188,-0.500139,-0.8760209999999999
1631118277379,-0.228201,-0.49977299999999997,-0.88023
1631118277389,-0.231739,-0.49959,-0.882914
1631118277398,-0.236131,-0.500932,-0.8879159999999999
1631118277408,-0.23851,-0.498736,-0.890478
1631118277417,-0.238388,-0.495564,-0.890112
1631118277427,-0.23680199999999998,-0.493795,-0.887489
1631118277437,-0.236253,-0.490318,-0.886147
1631118277446,-0.23430099999999998,-0.489464,-0.880718
1631118277456,-0.23003099999999999,-0.484767,-0.875228
1631118277465,-0.22691999999999998,-0.483913,-0.870165
1631118277475,-0.222528,-0.48409599999999997,-0.86925
1631118277485,-0.21862399999999999,-0.486475,-0.865224
1631118277494,-0.215696,-0.486353,-0.859978
1631118277504,-0.21655,-0.48434,-0.855586
1631118277513,-0.216367,-0.482205,-0.853573
1631118277523,-0.21594,-0.478545,-0.852048
1631118277533,-0.215574,-0.472018,-0.850218
1631118277542,-0.215391,-0.464881,-0.84851
1631118277552,-0.214781,-0.45505999999999996,-0.847473
1631118277561,-0.215269,-0.446093,-0.845643
1631118277571,-0.215757,-0.435235,-0.844789
1631118277581,-0.216062,-0.427244,-0.843386
1631118277590,-0.21770899999999999,-0.422791,-0.843142
1631118277600,-0.21923399999999998,-0.422059,-0.843264
1631118277609,-0.21984399999999998,-0.423035,-0.843447
1631118277619,-0.22197899999999998,-0.424499,-0.844728
1631118277629,-0.221613,-0.42462099999999997,-0.8474119999999999
1631118277638,-0.219478,-0.425292,-0.8516819999999999
1631118277648,-0.21899,-0.425597,-0.852475
1631118277657,-0.221552,-0.427793,-0.85156
1631118277667,-0.225578,-0.429074,-0.85095
1631118277677,-0.229787,-0.429318,-0.8489369999999999
1631118277686,-0.233935,-0.427854,-0.85034
1631118277696,-0.23832699999999998,-0.42584099999999997,-0.856745
1631118277705,-0.241682,-0.423218,-0.861381
1631118277715,-0.241987,-0.425353,-0.8647969999999999
1631118277725,-0.243207,-0.423767,-0.867786
1631118277734,-0.24570799999999998,-0.422669,-0.87108
1631118277744,-0.24644,-0.422608,-0.871385
1631118277753,-0.248575,-0.422974,-0.869494
1631118277763,-0.251991,-0.423157,-0.868152
1631118277773,-0.254919,-0.42309599999999997,-0.869494
1631118277782,-0.259189,-0.424194,-0.87108
1631118277792,-0.26095799999999997,-0.424133,-0.872788
1631118277801,-0.262117,-0.420839,-0.8769359999999999
1631118277811,-0.259616,-0.418765,-0.882792
1631118277821,-0.25760299999999997,-0.415715,-0.885964
1631118277830,-0.255651,-0.411262,-0.887855
1631118277840,-0.253699,-0.407968,-0.888648
1631118277849,-0.252235,-0.408456,-0.886452
1631118277859,-0.252967,-0.410896,-0.88023
1631118277869,-0.252113,-0.414251,-0.875472
1631118277878,-0.252052,-0.41687399999999997,-0.873398
1631118277888,-0.250893,-0.421388,-0.874923
1631118277897,-0.248575,-0.422425,-0.8778509999999999
1631118277907,-0.247355,-0.419863,-0.878888
1631118277917,-0.24662299999999998,-0.42022899999999996,-0.879559
1631118277926,-0.245281,-0.418338,-0.879864
1631118277936,-0.24461,-0.417911,-0.8796809999999999
1631118277945,-0.242414,-0.416508,-0.879559
1631118277955,-0.239425,-0.417728,-0.878339
1631118277965,-0.23912,-0.417911,-0.875594
1631118277974,-0.237534,-0.415776,-0.87413
1631118277984,-0.234057,-0.416447,-0.8723
1631118277993,-0.23155599999999998,-0.416142,-0.869616
1631118278003,-0.229848,-0.41809399999999997,-0.868457
1631118278013,-0.23119,-0.41900899999999996,-0.868152
1631118278022,-0.232898,-0.420717,-0.869433
1631118278032,-0.23558199999999999,-0.418948,-0.869799
1631118278041,-0.236741,-0.41595899999999997,-0.873215
1631118278051,-0.24046199999999998,-0.41138399999999997,-0.87535
1631118278061,-0.240828,-0.40504,-0.878339
1631118278070,-0.241987,-0.396866,-0.879498
1631118278080,-0.24217,-0.391559,-0.879864
1631118278089,-0.243024,-0.38978999999999997,-0.878705
1631118278099,-0.24326799999999998,-0.39131499999999997,-0.880718
1631118278109,-0.241194,-0.393267,-0.884988
1631118278118,-0.240279,-0.395646,-0.887977
1631118278128,-0.23668,-0.396927,-0.88511
1631118278137,-0.233813,-0.39711,-0.879864
1631118278147,-0.233264,-0.398391,-0.877302
1631118278157,-0.233325,-0.40241699999999997,-0.873825
1631118278166,-0.23460599999999998,-0.406504,-0.8729709999999999
1631118278176,-0.235826,-0.408822,-0.8714459999999999
1631118278185,-0.237534,-0.409798,-0.869555
1631118278195,-0.238388,-0.41053,-0.87047
1631118278205,-0.23863199999999998,-0.410103,-0.87535
1631118278214,-0.23954699999999998,-0.409127,-0.880047
1631118278224,-0.238693,-0.405284,-0.882853
1631118278233,-0.239059,-0.402478,-0.885659
1631118278243,-0.238388,-0.399794,-0.887428
1631118278253,-0.237168,-0.397598,-0.889014
1631118278262,-0.23668,-0.396012,-0.885354
1631118278272,-0.235033,-0.396134,-0.88145
1631118278281,-0.234667,-0.3965,-0.879315
1631118278291,-0.233874,-0.398696,-0.8784
1631118278301,-0.231617,-0.398818,-0.88023
1631118278310,-0.230092,-0.399001,-0.879559
1631118278320,-0.22936,-0.399611,-0.877912
1631118278329,-0.227957,-0.400953,-0.880535
1631118278339,-0.226554,-0.40150199999999997,-0.881084
1631118278349,-0.226676,-0.401685,-0.879925
1631118278358,-0.22722499999999998,-0.40363699999999997,-0.876875
1631118278368,-0.22936,-0.40455199999999997,-0.8744959999999999
1631118278377,-0.231434,-0.404308,-0.872483
1631118278387,-0.23125099999999998,-0.403454,-0.872483
1631118278397,-0.230214,-0.400953,-0.87291
1631118278406,-0.228811,-0.399123,-0.87657
1631118278416,-0.226859,-0.397232,-0.879193
1631118278425,-0.224419,-0.396134,-0.8833409999999999
1631118278435,-0.223382,-0.39588999999999996,-0.8845609999999999
1631118278445,-0.22265,-0.396805,-0.883097
1631118278454,-0.223199,-0.397903,-0.881633
1631118278464,-0.224602,-0.398147,-0.879193
1631118278473,-0.225334,-0.398635,-0.879498
1631118278483,-0.226676,-0.397903,-0.880535
1631118278493,-0.22752999999999998,-0.397598,-0.881328
1631118278502,-0.228323,-0.397415,-0.881572
1631118278512,-0.228262,-0.395951,-0.883524
1631118278521,-0.23155599999999998,-0.394426,-0.881023
1631118278531,-0.233264,-0.393328,-0.880962
1631118278541,-0.234728,-0.393084,-0.881328
1631118278550,-0.238876,-0.390949,-0.8827309999999999
1631118278560,-0.241011,-0.389546,-0.8848659999999999
1631118278569,-0.244061,-0.389241,-0.88816
1631118278579,-0.246074,-0.387411,-0.889197
1631118278589,-0.248758,-0.384483,-0.888099
1631118278598,-0.25315,-0.380945,-0.888282
1631118278608,-0.255834,-0.379237,-0.890783
1631118278617,-0.258396,-0.37868799999999997,-0.8891359999999999
1631118278627,-0.258701,-0.377956,-0.8848659999999999
1631118278637,-0.262788,-0.377102,-0.886208
1631118278646,-0.267119,-0.369538,-0.886208
1631118278656,-0.267973,-0.371673,-0.886147
1631118278665,-0.269681,-0.37149,-0.88633
1631118278675,-0.272426,-0.369172,-0.887245
1631118278685,-0.273768,-0.367708,-0.889014
1631118278694,-0.277489,-0.363682,-0.888404
1631118278704,-0.279258,-0.360266,-0.886757
1631118278713,-0.280295,-0.358802,-0.88694
1631118278723,-0.28285699999999997,-0.357216,-0.88511
1631118278733,-0.28407699999999997,-0.355935,-0.8827309999999999
1631118278742,-0.285358,-0.35465399999999997,-0.882243
1631118278752,-0.285968,-0.35441,-0.880108
1631118278761,-0.288835,-0.353678,-0.879193
1631118278771,-0.29036,-0.35312899999999997,-0.880108
1631118278781,-0.29395899999999997,-0.35312899999999997,-0.882975
1631118278790,-0.293898,-0.35319,-0.8818159999999999
1631118278800,-0.295728,-0.353678,-0.88206
1631118278809,-0.29761899999999997,-0.353495,-0.882182
1631118278819,-0.298473,-0.353861,-0.881877
1631118278829,-0.299998,-0.355447,-0.880657
1631118278838,-0.300974,-0.356423,-0.879437
1631118278848,-0.302133,-0.356606,-0.876448
1631118278857,-0.30378,-0.35563,-0.8751059999999999
1631118278867,-0.305793,-0.355996,-0.8744959999999999
1631118278877,-0.306403,-0.356545,-0.875167
1631118278886,-0.308233,-0.35685,-0.8744959999999999
1631118278896,-0.30963599999999997,-0.35685,-0.872849
1631118278905,-0.311466,-0.357582,-0.872178
1631118278915,-0.312747,-0.358497,-0.872788
1631118278925,-0.314211,-0.359473,-0.872544
1631118278934,-0.314882,-0.360571,-0.873337
1631118278944,-0.315614,-0.361608,-0.874862
1631118278953,-0.317444,-0.362828,-0.875472
1631118278963,-0.318969,-0.36356,-0.873337
1631118278973,-0.318664,-0.363316,-0.8735809999999999
1631118278982,-0.32165299999999997,-0.364902,-0.873093
1631118278992,-0.322995,-0.365939,-0.872117
1631118279001,-0.323666,-0.36575599999999997,-0.8714459999999999
1631118279011,-0.327021,-0.365695,-0.872483
1631118279021,-0.32757,-0.36697599999999997,-0.87474
1631118279030,-0.327509,-0.367464,-0.878034
1631118279040,-0.326838,-0.36783,-0.8805959999999999
1631118279049,-0.325496,-0.36783,-0.881755
1631118279059,-0.324642,-0.367708,-0.881877
1631118279069,-0.324459,-0.36905,-0.879315
1631118279078,-0.323666,-0.370758,-0.876692
1631118279088,-0.324398,-0.37155099999999996,-0.87352
1631118279097,-0.323483,-0.372954,-0.871019
1631118279107,-0.323361,-0.374296,-0.869494
1631118279117,-0.321592,-0.374296,-0.867969
1631118279126,-0.32226299999999997,-0.373686,-0.867786
1631118279136,-0.321287,-0.374601,-0.868274
1631118279145,-0.32012799999999997,-0.373747,-0.866932
1631118279155,-0.320372,-0.372649,-0.866139
1631118279165,-0.31829799999999997,-0.370209,-0.86376
1631118279174,-0.317322,-0.371063,-0.864309
1631118279184,-0.317932,-0.370453,-0.864858
1631118279193,-0.318176,-0.370819,-0.864065
1631118279203,-0.317627,-0.3721,-0.864675
1631118279213,-0.31842,-0.372893,-0.864858
1631118279222,-0.318786,-0.375028,-0.863211
1631118279232,-0.320006,-0.37594299999999997,-0.863211
1631118279241,-0.319274,-0.37698,-0.864919
1631118279251,-0.319335,-0.376492,-0.863821
1631118279261,-0.319884,-0.376492,-0.865285
1631118279270,-0.31829799999999997,-0.376675,-0.865834
1631118279280,-0.319762,-0.37698,-0.866505
1631118279289,-0.319945,-0.376492,-0.867725
1631118279299,-0.319274,-0.376614,-0.86925
1631118279309,-0.318176,-0.375882,-0.868518
1631118279318,-0.31781,-0.374845,-0.867298
1631118279328,-0.318176,-0.376431,-0.866688
1631118279337,-0.31890799999999997,-0.377224,-0.864309
1631118279347,-0.317017,-0.377102,-0.86254
1631118279357,-0.316956,-0.377956,-0.862784
1631118279366,-0.31646799999999997,-0.378871,-0.86559
1631118279376,-0.31598,-0.37838299999999997,-0.866505
1631118279385,-0.314882,-0.379054,-0.868213
1631118279395,-0.314882,-0.378566,-0.868762
1631118279405,-0.313967,-0.37868799999999997,-0.869799
1631118279414,-0.313662,-0.379176,-0.868945
1631118279424,-0.314028,-0.38003,-0.869311
1631118279433,-0.314089,-0.38143299999999997,-0.86864
1631118279443,-0.314394,-0.380762,-0.867115
1631118279453,-0.315248,-0.380396,-0.866749
1631118279462,-0.313296,-0.379176,-0.867359
1631118279472,-0.313418,-0.37698,-0.869067
1631118279481,-0.31232,-0.37746799999999997,-0.870714
1631118279491,-0.310673,-0.377712,-0.871507
1631118279501,-0.309453,-0.379237,-0.871568
1631118279510,-0.30750099999999997,-0.380274,-0.869372
1631118279520,-0.30744,-0.382287,-0.86742
1631118279529,-0.30658599999999997,-0.383812,-0.865895
1631118279539,-0.306342,-0.384666,-0.865224
1631118279549,-0.30475599999999997,-0.386984,-0.865407
1631118279558,-0.304085,-0.38795999999999997,-0.864553
1631118279568,-0.303475,-0.388814,-0.867054
1631118279577,-0.301767,-0.389668,-0.866383
1631118279587,-0.301096,-0.387838,-0.868152
1631118279597,-0.30134,-0.38734999999999997,-0.868884
1631118279606,-0.301096,-0.386557,-0.868945
1631118279616,-0.300669,-0.386557,-0.868152
1631118279625,-0.300547,-0.387228,-0.867176
1631118279635,-0.299266,-0.38674,-0.866749
1631118279645,-0.299205,-0.386374,-0.866383
1631118279654,-0.2989,-0.387228,-0.86681
1631118279664,-0.297253,-0.387777,-0.866749
1631118279673,-0.29700899999999997,-0.388082,-0.8662
1631118279683,-0.296338,-0.388509,-0.867237
1631118279693,-0.29578899999999997,-0.387838,-0.868091
1631118279702,-0.295972,-0.387228,-0.868274
1631118279712,-0.29609399999999997,-0.387411,-0.869616
1631118279721,-0.296155,-0.387045,-0.86986
1631118279731,-0.294996,-0.387106,-0.86986
1631118279741,-0.29524,-0.386435,-0.868518
1631118279750,-0.29487399999999997,-0.387106,-0.866749
1631118279760,-0.295118,-0.387899,-0.867542
1631118279769,-0.293715,-0.387411,-0.867298
1631118279779,-0.295118,-0.387899,-0.866444
1631118279789,-0.29524,-0.388387,-0.867298
1631118279798,-0.295057,-0.389668,-0.868152
1631118279808,-0.293837,-0.390034,-0.8699209999999999
1631118279817,-0.292556,-0.390522,-0.872544
1631118279827,-0.289994,-0.38948499999999997,-0.873825
1631118279837,-0.28914,-0.38978999999999997,-0.8741909999999999
1631118279846,-0.288469,-0.390461,-0.873154
1631118279856,-0.289689,-0.390766,-0.8702259999999999
1631118279865,-0.289079,-0.392108,-0.868091
1631118279875,-0.287615,-0.392657,-0.866932
1631118279885,-0.286456,-0.39344999999999997,-0.866627
1631118279894,-0.286273,-0.395036,-0.865895
1631118279904,-0.286456,-0.395524,-0.8662
1631118279913,-0.283833,-0.39527999999999996,-0.866627
1631118279923,-0.28346699999999997,-0.396134,-0.867542
1631118279933,-0.28255199999999997,-0.39558499999999996,-0.868762
1631118279942,-0.281515,-0.396927,-0.869555
1631118279952,-0.28243,-0.395707,-0.868152
1631118279961,-0.28133199999999997,-0.397232,-0.86925
1631118279971,-0.28133199999999997,-0.396439,-0.868213
1631118279981,-0.28163699999999997,-0.396256,-0.86742
1631118279990,-0.2806,-0.397354,-0.868396
1631118280000,-0.2806,-0.396744,-0.86864
1631118280009,-0.280478,-0.397354,-0.869311
1631118280019,-0.278648,-0.399062,-0.8699209999999999
1631118280029,-0.278648,-0.39955,-0.869982
1631118280038,-0.277916,-0.400465,-0.869677
1631118280048,-0.277123,-0.399733,-0.869433
1631118280057,-0.277001,-0.400343,-0.8705309999999999
1631118280067,-0.277489,-0.400099,-0.86925
1631118280077,-0.276757,-0.399062,-0.868213
1631118280086,-0.276574,-0.398147,-0.869006
1631118280096,-0.274805,-0.398208,-0.869982
1631118280105,-0.274134,-0.39894,-0.871019
1631118280115,-0.273646,-0.398147,-0.871324
1631118280125,-0.27327999999999997,-0.399428,-0.870714
1631118280134,-0.273219,-0.399855,-0.86925
1631118280144,-0.273097,-0.40089199999999997,-0.869189
1631118280153,-0.27297499999999997,-0.400953,-0.868945
1631118280163,-0.272182,-0.401624,-0.86925
1631118280173,-0.272304,-0.40150199999999997,-0.86986
1631118280182,-0.272548,-0.40089199999999997,-0.869738
1631118280192,-0.272121,-0.400221,-0.870043
1631118280201,-0.272182,-0.399855,-0.870409
1631118280211,-0.27236499999999997,-0.400221,-0.870653
1631118280221,-0.271328,-0.399489,-0.871812
1631118280230,-0.271267,-0.40028199999999997,-0.870653
1631118280240,-0.271389,-0.401014,-0.8711409999999999
1631118280249,-0.270962,-0.400526,-0.870409
1631118280259,-0.27144999999999997,-0.400953,-0.870653
1631118280269,-0.271633,-0.401014,-0.86986
1631118280278,-0.271206,-0.40119699999999997,-0.86986
1631118280288,-0.271694,-0.401746,-0.870104
1631118280297,-0.271511,-0.401746,-0.87047
1631118280307,-0.270779,-0.401624,-0.870958
1631118280317,-0.271572,-0.40119699999999997,-0.870104
1631118280326,-0.271328,-0.400526,-0.8705309999999999
1631118280336,-0.271511,-0.400221,-0.8705309999999999
1631118280345,-0.271328,-0.39967199999999997,-0.868884
1631118280355,-0.271633,-0.39894,-0.868335
1631118280365,-0.271572,-0.399611,-0.86925
1631118280374,-0.272121,-0.400404,-0.869067
1631118280384,-0.27236499999999997,-0.399794,-0.869372
1631118280393,-0.272792,-0.399855,-0.869616
1631118280403,-0.273036,-0.40119699999999997,-0.869311
1631118280413,-0.272304,-0.400343,-0.868884
1631118280422,-0.272304,-0.401014,-0.868884
1631118280432,-0.272243,-0.40077,-0.868518
1631118280441,-0.272426,-0.400343,-0.86864
1631118280451,-0.274012,-0.40016,-0.86925
1631118280461,-0.274012,-0.400404,-0.868884
1631118280470,-0.27388999999999997,-0.399733,-0.869067
1631118280480,-0.274317,-0.40058699999999997,-0.868152
1631118280489,-0.275598,-0.401075,-0.868701
1631118280499,-0.276818,-0.40119699999999997,-0.8702259999999999
1631118280509,-0.276818,-0.40077,-0.870165
1631118280518,-0.276147,-0.400465,-0.869494
1631118280528,-0.276818,-0.400953,-0.87047
1631118280537,-0.277001,-0.401563,-0.869738
1631118280547,-0.276452,-0.400709,-0.8702259999999999
1631118280557,-0.278038,-0.399306,-0.869616
1631118280566,-0.279624,-0.399062,-0.86986
1631118280576,-0.28072199999999997,-0.399001,-0.870043
1631118280585,-0.28121,-0.399062,-0.870653
1631118280595,-0.279685,-0.399062,-0.871263
1631118280605,-0.279868,-0.399123,-0.872849
1631118280614,-0.278831,-0.39936699999999997,-0.873337
1631118280624,-0.279746,-0.398757,-0.8729709999999999
1631118280633,-0.278648,-0.398818,-0.872544
1631118280643,-0.279624,-0.398025,-0.869799
1631118280653,-0.280234,-0.398696,-0.867664
1631118280662,-0.27999,-0.398086,-0.866627
1631118280672,-0.27938,-0.397598,-0.865712
1631118280681,-0.279563,-0.399062,-0.866932
1631118280691,-0.28011199999999997,-0.397537,-0.867847
1631118280701,-0.279685,-0.396805,-0.869006
1631118280710,-0.280234,-0.397659,-0.870104
1631118280720,-0.279624,-0.398818,-0.869067
1631118280729,-0.279563,-0.399428,-0.867969
1631118280739,-0.28041699999999997,-0.399184,-0.86742
1631118280749,-0.280905,-0.39955,-0.867298
1631118280758,-0.28102699999999997,-0.399855,-0.866871
1631118280768,-0.280966,-0.401014,-0.867237
1631118280777,-0.280234,-0.401014,-0.867786
1631118280787,-0.282308,-0.400343,-0.868396
1631118280797,-0.281698,-0.401075,-0.868945
1631118280806,-0.281515,-0.401258,-0.869799
1631118280816,-0.28243,-0.400221,-0.86803
1631118280825,-0.282369,-0.40028199999999997,-0.867908
1631118280835,-0.283345,-0.399733,-0.867847
1631118280845,-0.28377199999999997,-0.399855,-0.867054
1631118280854,-0.28285699999999997,-0.398269,-0.868091
1631118280864,-0.28243,-0.396805,-0.869372
1631118280873,-0.28285699999999997,-0.396805,-0.8699209999999999
1631118280883,-0.282918,-0.397354,-0.871202
1631118280893,-0.283528,-0.396561,-0.8702259999999999
1631118280902,-0.282979,-0.396622,-0.870165
1631118280912,-0.283406,-0.398086,-0.869433
1631118280921,-0.284016,-0.396805,-0.86803
1631118280931,-0.284138,-0.398391,-0.867969
1631118280941,-0.283284,-0.399001,-0.868396
1631118280950,-0.282369,-0.39772,-0.868274
1631118280960,-0.282125,-0.398147,-0.86925
1631118280969,-0.282369,-0.397781,-0.870104
1631118280979,-0.283711,-0.398635,-0.870043
1631118280989,-0.282613,-0.399428,-0.870165
1631118280998,-0.28194199999999997,-0.399916,-0.8705309999999999
1631118281008,-0.281515,-0.400709,-0.868945
1631118281017,-0.282125,-0.40089199999999997,-0.869738
1631118281027,-0.28133199999999997,-0.400038,-0.869128
1631118281037,-0.282308,-0.399916,-0.868457
1631118281046,-0.281393,-0.399916,-0.868945
1631118281056,-0.281088,-0.40016,-0.869433
1631118281065,-0.280905,-0.39894,-0.868396
1631118281075,-0.280356,-0.39955,-0.868274
1631118281085,-0.28133199999999997,-0.399306,-0.868884
1631118281094,-0.28011199999999997,-0.399184,-0.868518
1631118281104,-0.28072199999999997,-0.398818,-0.868152
1631118281113,-0.2806,-0.398696,-0.868091
1631118281123,-0.279685,-0.398269,-0.86803
1631118281133,-0.2806,-0.398452,-0.867847
1631118281142,-0.28072199999999997,-0.39936699999999997,-0.866627
1631118281152,-0.279502,-0.399123,-0.867054
1631118281161,-0.280295,-0.399184,-0.86742
1631118281171,-0.280173,-0.39936699999999997,-0.867481
1631118281181,-0.280295,-0.399794,-0.86742
1631118281190,-0.280966,-0.399916,-0.867603
1631118281200,-0.280539,-0.399123,-0.867176
1631118281209,-0.279502,-0.39967199999999997,-0.86803
1631118281219,-0.279868,-0.400526,-0.867786
1631118281229,-0.279807,-0.40016,-0.868152
1631118281238,-0.27999,-0.400465,-0.867298
1631118281248,-0.280478,-0.40058699999999997,-0.868091
1631118281257,-0.280539,-0.40089199999999997,-0.867969
1631118281267,-0.280295,-0.401563,-0.867542
1631118281277,-0.28072199999999997,-0.40138,-0.867054
1631118281286,-0.281088,-0.401258,-0.86681
1631118281296,-0.281698,-0.40199,-0.8662
1631118281305,-0.281698,-0.402234,-0.86681
1631118281315,-0.28194199999999997,-0.402478,-0.867786
1631118281325,-0.282186,-0.402661,-0.868457
1631118281334,-0.28182,-0.401868,-0.869006
1631118281344,-0.282186,-0.401685,-0.868274
1631118281353,-0.282064,-0.403149,-0.868762
1631118281363,-0.282613,-0.402783,-0.869311
1631118281373,-0.281088,-0.400404,-0.869006
1631118281382,-0.283589,-0.40150199999999997,-0.868579
1631118281392,-0.28316199999999997,-0.401746,-0.867908
1631118281401,-0.28438199999999997,-0.40199,-0.868274
1631118281411,-0.28346699999999997,-0.401319,-0.869189
1631118281421,-0.282186,-0.401746,-0.871507
1631118281430,-0.280356,-0.40058699999999997,-0.8732759999999999
1631118281440,-0.280905,-0.399855,-0.872727
1631118281449,-0.280173,-0.399855,-0.870104
1631118281459,-0.281454,-0.399245,-0.868091
1631118281469,-0.28072199999999997,-0.399855,-0.866078
1631118281478,-0.280905,-0.398879,-0.865346
1631118281488,-0.280539,-0.398818,-0.864309
1631118281497,-0.279197,-0.399245,-0.86498
1631118281507,-0.277672,-0.399855,-0.866017
1631118281517,-0.277062,-0.399916,-0.866261
1631118281526,-0.277611,-0.399855,-0.867054
1631118281536,-0.276757,-0.400099,-0.866383
1631118281545,-0.27755,-0.400465,-0.865895
1631118281555,-0.277733,-0.401563,-0.86498
1631118281565,-0.278709,-0.402905,-0.865163
1631118281574,-0.278465,-0.402844,-0.865895
1631118281584,-0.280295,-0.403149,-0.866139
1631118281593,-0.2806,-0.404064,-0.866444
1631118281603,-0.28072199999999997,-0.403393,-0.867359
1631118281613,-0.279624,-0.40321,-0.869799
1631118281622,-0.27999,-0.40199,-0.869494
1631118281632,-0.28072199999999997,-0.401258,-0.867969
1631118281641,-0.28163699999999997,-0.401014,-0.867908
1631118281651,-0.282796,-0.400343,-0.866505
1631118281661,-0.282491,-0.398879,-0.867603
1631118281670,-0.282369,-0.398269,-0.869311
1631118281680,-0.282918,-0.396805,-0.87047
1631118281689,-0.282064,-0.39772,-0.8705309999999999
1631118281699,-0.282491,-0.397537,-0.8699209999999999
1631118281709,-0.283223,-0.397354,-0.869006
1631118281718,-0.28304,-0.397476,-0.868945
1631118281728,-0.282491,-0.399428,-0.867908
1631118281737,-0.28304,-0.39967199999999997,-0.867054
1631118281747,-0.282064,-0.399611,-0.867908
1631118281757,-0.282125,-0.399794,-0.868091
1631118281766,-0.28194199999999997,-0.399855,-0.868457
1631118281776,-0.282064,-0.400221,-0.868945
1631118281785,-0.282064,-0.401136,-0.86925
1631118281795,-0.28224699999999997,-0.401685,-0.869555
1631118281805,-0.28182,-0.40199,-0.869372
1631118281814,-0.281271,-0.40333199999999997,-0.869006
1631118281824,-0.281454,-0.403088,-0.869616
1631118281833,-0.28133199999999997,-0.402905,-0.868884
1631118281843,-0.280966,-0.402539,-0.867908
1631118281853,-0.280661,-0.401624,-0.867237
1631118281862,-0.280356,-0.400709,-0.86742
1631118281872,-0.279807,-0.401563,-0.866261
1631118281881,-0.279258,-0.40058699999999997,-0.867298
1631118281891,-0.279258,-0.399794,-0.867359
1631118281901,-0.279746,-0.399184,-0.867725
1631118281910,-0.279197,-0.398635,-0.86803
1631118281920,-0.279441,-0.399855,-0.866871
1631118281929,-0.279868,-0.40058699999999997,-0.866505
1631118281939,-0.2806,-0.399855,-0.866261
1631118281949,-0.279868,-0.39955,-0.867176
1631118281958,-0.279868,-0.400648,-0.866505
1631118281968,-0.28041699999999997,-0.400404,-0.86742
1631118281977,-0.280478,-0.401319,-0.866627
1631118281987,-0.280295,-0.400709,-0.866505
1631118281997,-0.28041699999999997,-0.401319,-0.866932
1631118282006,-0.281698,-0.40199,-0.866444
1631118282016,-0.28255199999999997,-0.401746,-0.868091
1631118282025,-0.283284,-0.400953,-0.867847
1631118282035,-0.282918,-0.40150199999999997,-0.867298
1631118282045,-0.28316199999999997,-0.401136,-0.867664
1631118282054,-0.283406,-0.40089199999999997,-0.868335
1631118282064,-0.284565,-0.400831,-0.868518
1631118282073,-0.28407699999999997,-0.40028199999999997,-0.867847
1631118282083,-0.284443,-0.399428,-0.868274
1631118282093,-0.28468699999999997,-0.399489,-0.86803
1631118282102,-0.284504,-0.400038,-0.868457
1631118282112,-0.28487,-0.400221,-0.868335
1631118282121,-0.28365,-0.399611,-0.868152
1631118282131,-0.284199,-0.399062,-0.86742
1631118282141,-0.285968,-0.399184,-0.866078
1631118282150,-0.28529699999999997,-0.399306,-0.866322
1631118282160,-0.284199,-0.39967199999999997,-0.865651
1631118282169,-0.284809,-0.40028199999999997,-0.867054
1631118282179,-0.28529699999999997,-0.40138,-0.868579
1631118282189,-0.285114,-0.401014,-0.869311
1631118282198,-0.28487,-0.40058699999999997,-0.868091
1631118282208,-0.284565,-0.400038,-0.867237
1631118282217,-0.285541,-0.401136,-0.86803
1631118282227,-0.284626,-0.40119699999999997,-0.869677
1631118282237,-0.283955,-0.399855,-0.868518
1631118282246,-0.284504,-0.398208,-0.865285
1631118282256,-0.28560199999999997,-0.399489,-0.865712
1631118282265,-0.286639,-0.40089199999999997,-0.867664
1631118282275,-0.285419,-0.400343,-0.868701
1631118282285,-0.28426,-0.39936699999999997,-0.870897
1631118282294,-0.28304,-0.400038,-0.872178
1631118282304,-0.283284,-0.400099,-0.871995
1631118282313,-0.282613,-0.40016,-0.869555
1631118282323,-0.281271,-0.401136,-0.8662
1631118282333,-0.282613,-0.40180699999999997,-0.864431
1631118282342,-0.281149,-0.40119699999999997,-0.863638
1631118282352,-0.281149,-0.400953,-0.864126
1631118282361,-0.280905,-0.40119699999999997,-0.865285
1631118282371,-0.27999,-0.401441,-0.8644919999999999
1631118282381,-0.279258,-0.401441,-0.86559
1631118282390,-0.279075,-0.40077,-0.865407
1631118282400,-0.27938,-0.40150199999999997,-0.865346
1631118282409,-0.278648,-0.401075,-0.865651
1631118282419,-0.279258,-0.403088,-0.86498
1631118282429,-0.279136,-0.402905,-0.86498
1631118282438,-0.279563,-0.404796,-0.863394
1631118282448,-0.279624,-0.404613,-0.8647969999999999
1631118282457,-0.279502,-0.405833,-0.865712
1631118282467,-0.279075,-0.40607699999999997,-0.86803
1631118282477,-0.278221,-0.405589,-0.868701
1631118282486,-0.28011199999999997,-0.404369,-0.866932
1631118282496,-0.28102699999999997,-0.40504,-0.866139
1631118282505,-0.28072199999999997,-0.40516199999999997,-0.865712
1631118282515,-0.280844,-0.404613,-0.864675
1631118282525,-0.28011199999999997,-0.40394199999999997,-0.866993
1631118282534,-0.279624,-0.403393,-0.867481
1631118282544,-0.279868,-0.403393,-0.868823
1631118282553,-0.280783,-0.404064,-0.868701
1631118282563,-0.28011199999999997,-0.404064,-0.867298
1631118282573,-0.281454,-0.404064,-0.866444
1631118282582,-0.28041699999999997,-0.40504,-0.865834
1631118282592,-0.280295,-0.404674,-0.865285
1631118282601,-0.2806,-0.405101,-0.865041
1631118282611,-0.280051,-0.405528,-0.866139
1631118282621,-0.280844,-0.404491,-0.867298
1631118282630,-0.279685,-0.405345,-0.867786
1631118282640,-0.280051,-0.40516199999999997,-0.868335
1631118282649,-0.27999,-0.404003,-0.867908
1631118282659,-0.280295,-0.404064,-0.868701
1631118282669,-0.279868,-0.40394199999999997,-0.867847
1631118282678,-0.28072199999999997,-0.404796,-0.867542
1631118282688,-0.279685,-0.405894,-0.867664
1631118282697,-0.279868,-0.404613,-0.86681
1631118282707,-0.280356,-0.403881,-0.866749
1631118282717,-0.27999,-0.40363699999999997,-0.867115
1631118282726,-0.279197,-0.403759,-0.86742
1631118282736,-0.278892,-0.403759,-0.866749
1631118282745,-0.27877,-0.403454,-0.867237
1631118282755,-0.279136,-0.40363699999999997,-0.86681
1631118282765,-0.279014,-0.403393,-0.867481
1631118282774,-0.278709,-0.403393,-0.865956
1631118282784,-0.278404,-0.404064,-0.865834
1631118282793,-0.278587,-0.404064,-0.865407
1631118282803,-0.277428,-0.40363699999999997,-0.865224
1631118282813,-0.278587,-0.40302699999999997,-0.8651019999999999
1631118282822,-0.278587,-0.40333199999999997,-0.865163
1631118282832,-0.27816,-0.40302699999999997,-0.866139
1631118282841,-0.278343,-0.402844,-0.866444
1631118282851,-0.279014,-0.404064,-0.865163
1631118282861,-0.279868,-0.40455199999999997,-0.865834
1631118282870,-0.279258,-0.403393,-0.865346
1631118282880,-0.279502,-0.40424699999999997,-0.865712
1631118282889,-0.278038,-0.404308,-0.866261
1631118282899,-0.279014,-0.404369,-0.8662
1631118282909,-0.280295,-0.40443,-0.866078
1631118282918,-0.28041699999999997,-0.405406,-0.865895
1631118282928,-0.28072199999999997,-0.404796,-0.865895
1631118282937,-0.279868,-0.40546699999999997,-0.8651019999999999
1631118282947,-0.280783,-0.40607699999999997,-0.865041
1631118282957,-0.280966,-0.40607699999999997,-0.865651
1631118282966,-0.281759,-0.405955,-0.866078
1631118282976,-0.28182,-0.406138,-0.866261
1631118282985,-0.282613,-0.40687,-0.865956
1631118282995,-0.281881,-0.40748,-0.864858
1631118283005,-0.282125,-0.40821199999999996,-0.865041
1631118283014,-0.282674,-0.407785,-0.8641869999999999
1631118283024,-0.282613,-0.407846,-0.864309
1631118283033,-0.28304,-0.408578,-0.864248
1631118283043,-0.283833,-0.409554,-0.8647969999999999
1631118283053,-0.283406,-0.409676,-0.865834
1631118283062,-0.28285699999999997,-0.408883,-0.865529
1631118283072,-0.28365,-0.407846,-0.86498
1631118283081,-0.28365,-0.40748,-0.862845
1631118283091,-0.284809,-0.40821199999999996,-0.8617469999999999
1631118283101,-0.285236,-0.407663,-0.86193
1631118283110,-0.28609,-0.40699199999999996,-0.861625
1631118283120,-0.287371,-0.407541,-0.864004
1631118283129,-0.287005,-0.4087,-0.865773
1631118283139,-0.286761,-0.408883,-0.867542
1631118283149,-0.28529699999999997,-0.40760199999999996,-0.866932
1631118283158,-0.284443,-0.408395,-0.865834
1631118283168,-0.284504,-0.409371,-0.863089
1631118283177,-0.284321,-0.410286,-0.8620519999999999
1631118283187,-0.28468699999999997,-0.411018,-0.860283
1631118283197,-0.285236,-0.411811,-0.858514
1631118283206,-0.285541,-0.412238,-0.858453
1631118283216,-0.284443,-0.410652,-0.858514
1631118283225,-0.28426,-0.410896,-0.858453
1631118283235,-0.283223,-0.41114,-0.859795
1631118283245,-0.28316199999999997,-0.411872,-0.859063
1631118283254,-0.28255199999999997,-0.41175,-0.859246
1631118283264,-0.282918,-0.412177,-0.858209
1631118283273,-0.28426,-0.413031,-0.858209
1631118283283,-0.284138,-0.41419,-0.858026
1631118283293,-0.28499199999999997,-0.4148,-0.857965
1631118283302,-0.284931,-0.41534899999999997,-0.8590019999999999
1631118283312,-0.284809,-0.416203,-0.859734
1631118283321,-0.28590699999999997,-0.416447,-0.862174
1631118283331,-0.284565,-0.41541,-0.86376
1631118283341,-0.28590699999999997,-0.41443399999999997,-0.8626619999999999
1631118283350,-0.286334,-0.414373,-0.86254
1631118283360,-0.286944,-0.4148,-0.862235
1631118283369,-0.287127,-0.41443399999999997,-0.8617469999999999
1631118283379,-0.285968,-0.414495,-0.862174
1631118283389,-0.285419,-0.414617,-0.862906
1631118283398,-0.284626,-0.41504399999999997,-0.861503
1631118283408,-0.28468699999999997,-0.414617,-0.861625
1631118283417,-0.285175,-0.414678,-0.860893
1631118283427,-0.285175,-0.414495,-0.860588
1631118283437,-0.28407699999999997,-0.413458,-0.860771
1631118283446,-0.283955,-0.414007,-0.860649
1631118283456,-0.283711,-0.414251,-0.859795
1631118283465,-0.284016,-0.41297,-0.86132
1631118283475,-0.283223,-0.41473899999999997,-0.862418
1631118283485,-0.28224699999999997,-0.41419,-0.8629669999999999
1631118283494,-0.282735,-0.41419,-0.8632719999999999
1631118283504,-0.283284,-0.41358,-0.86315
1631118283513,-0.282186,-0.413092,-0.863699
1631118283523,-0.282674,-0.413458,-0.86315
1631118283533,-0.28304,-0.41358,-0.863455
1631118283542,-0.282491,-0.413458,-0.8629669999999999
1631118283552,-0.281576,-0.413702,-0.864614
1631118283561,-0.281454,-0.412482,-0.863821
1631118283571,-0.280478,-0.412848,-0.863455
1631118283581,-0.280905,-0.41199399999999997,-0.8638819999999999
1631118283590,-0.280234,-0.411201,-0.862784
1631118283600,-0.280356,-0.410774,-0.863028
1631118283609,-0.278709,-0.41053,-0.862479
1631118283619,-0.27877,-0.409554,-0.8626619999999999
1631118283629,-0.279258,-0.409493,-0.8620519999999999
1631118283638,-0.278465,-0.409066,-0.863028
1631118283648,-0.278465,-0.408761,-0.862845
1631118283657,-0.277855,-0.408456,-0.862601
1631118283667,-0.277123,-0.408517,-0.862784
1631118283677,-0.277611,-0.408761,-0.862906
1631118283686,-0.277001,-0.408578,-0.8623569999999999
1631118283696,-0.27816,-0.408151,-0.861869
1631118283705,-0.278282,-0.409005,-0.86254
1631118283715,-0.277977,-0.408273,-0.863089
1631118283725,-0.279502,-0.408334,-0.86376
1631118283734,-0.278404,-0.408883,-0.86315
1631118283744,-0.279746,-0.408761,-0.864248
1631118283753,-0.27999,-0.409188,-0.864309
1631118283763,-0.278892,-0.4087,-0.864675
1631118283773,-0.278892,-0.410042,-0.86498
1631118283782,-0.27877,-0.40931,-0.865163
1631118283792,-0.280234,-0.410225,-0.864553
1631118283801,-0.279441,-0.410225,-0.86437
1631118283811,-0.279197,-0.409188,-0.86498
1631118283821,-0.279014,-0.409859,-0.864736
1631118283830,-0.279502,-0.409676,-0.863638
1631118283840,-0.279441,-0.408395,-0.864309
1631118283849,-0.279624,-0.408395,-0.864004
1631118283859,-0.279502,-0.40809,-0.865285
1631118283869,-0.27999,-0.408151,-0.865407
1631118283878,-0.280173,-0.40931,-0.865285
1631118283888,-0.280173,-0.409127,-0.8651019999999999
1631118283897,-0.2806,-0.408822,-0.865346
1631118283907,-0.279807,-0.409798,-0.86681
1631118283917,-0.279319,-0.408944,-0.866871
1631118283926,-0.279868,-0.408883,-0.865224
1631118283936,-0.27999,-0.409737,-0.865346
1631118283945,-0.27999,-0.408883,-0.864309
1631118283955,-0.27999,-0.407053,-0.8629669999999999
1631118283965,-0.281515,-0.40729699999999996,-0.863394
1631118283974,-0.282125,-0.40790699999999996,-0.865224
1631118283984,-0.28121,-0.408151,-0.866688
1631118283993,-0.280539,-0.408151,-0.8699209999999999
1631118284003,-0.278892,-0.407785,-0.871568
1631118284013,-0.277794,-0.407114,-0.870287
1631118284022,-0.278099,-0.407785,-0.867115
1631118284032,-0.278404,-0.407663,-0.864126
1631118284041,-0.27877,-0.40790699999999996,-0.861869
1631118284051,-0.278953,-0.407419,-0.86071
1631118284061,-0.277306,-0.40699199999999996,-0.86071
1631118284070,-0.277062,-0.406748,-0.862235
1631118284080,-0.275537,-0.407053,-0.8629669999999999
1631118284089,-0.275842,-0.40699199999999996,-0.864309
1631118284099,-0.275476,-0.40760199999999996,-0.865041
1631118284109,-0.275232,-0.40809,-0.86437
1631118284118,-0.274988,-0.40821199999999996,-0.8632719999999999
1631118284128,-0.275415,-0.40821199999999996,-0.862723
1631118284137,-0.276086,-0.409127,-0.861198
1631118284147,-0.277489,-0.410225,-0.860954
1631118284157,-0.276025,-0.410225,-0.86193
1631118284166,-0.276879,-0.41199399999999997,-0.864004
1631118284176,-0.277794,-0.412848,-0.865041
1631118284185,-0.276818,-0.412238,-0.865468
1631118284195,-0.276757,-0.411811,-0.866688
1631118284205,-0.276818,-0.41138399999999997,-0.865468
1631118284214,-0.278282,-0.410774,-0.864858
1631118284224,-0.279075,-0.411506,-0.864553
1631118284233,-0.280173,-0.410225,-0.862906
1631118284243,-0.279929,-0.409615,-0.8641869999999999
1631118284253,-0.278831,-0.408639,-0.865895
1631118284262,-0.27938,-0.408822,-0.866688
1631118284272,-0.279136,-0.407663,-0.867054
1631118284281,-0.279868,-0.40687,-0.866261
1631118284291,-0.28011199999999997,-0.406504,-0.865895
1631118284301,-0.280173,-0.407541,-0.864553
1631118284310,-0.279929,-0.408151,-0.86315
1631118284320,-0.279624,-0.408029,-0.863028
1631118284329,-0.280051,-0.408273,-0.863943
1631118284339,-0.279502,-0.4087,-0.865468
1631118284349,-0.27999,-0.409188,-0.865529
1631118284358,-0.27938,-0.408944,-0.86742
1631118284368,-0.27999,-0.409554,-0.867298
1631118284377,-0.279502,-0.409859,-0.864858
1631118284387,-0.280539,-0.409127,-0.865651
1631118284397,-0.280783,-0.409249,-0.86498
1631118284406,-0.28011199999999997,-0.409493,-0.865346
1631118284416,-0.279502,-0.409615,-0.865529
1631118284425,-0.279136,-0.408822,-0.865041
1631118284435,-0.279075,-0.408029,-0.866078
1631118284445,-0.277977,-0.40760199999999996,-0.865834
1631118284454,-0.278038,-0.407541,-0.865956
1631118284464,-0.278038,-0.407236,-0.865041
1631118284473,-0.277794,-0.40729699999999996,-0.8651019999999999
1631118284483,-0.278587,-0.407541,-0.8647969999999999
1631118284493,-0.277367,-0.407419,-0.864675
1631118284502,-0.277001,-0.407114,-0.864126
1631118284512,-0.27633,-0.40699199999999996,-0.8638819999999999
1631118284521,-0.277367,-0.406931,-0.863455
1631118284531,-0.276452,-0.407419,-0.863333
1631118284541,-0.276574,-0.40748,-0.863394
1631118284550,-0.27694,-0.407785,-0.8638819999999999
1631118284560,-0.277794,-0.409371,-0.864065
1631118284569,-0.277184,-0.409066,-0.864431
1631118284579,-0.277367,-0.40931,-0.86498
1631118284589,-0.277184,-0.40992,-0.8647969999999999
1631118284598,-0.277855,-0.410408,-0.864309
1631118284608,-0.277855,-0.410835,-0.863211
1631118284617,-0.278587,-0.41114,-0.864309
1631118284627,-0.278282,-0.411018,-0.864858
1631118284637,-0.278282,-0.411933,-0.865712
1631118284646,-0.278221,-0.41114,-0.865041
1631118284656,-0.278404,-0.41107899999999997,-0.865651
1631118284665,-0.27877,-0.411933,-0.865407
1631118284675,-0.27877,-0.411201,-0.8647969999999999
1631118284685,-0.278282,-0.41114,-0.864858
1631118284694,-0.278465,-0.41138399999999997,-0.865163
1631118284704,-0.278282,-0.411018,-0.864065
1631118284713,-0.278587,-0.410774,-0.863516
1631118284723,-0.27816,-0.411323,-0.864126
1631118284733,-0.278465,-0.410896,-0.863821
1631118284742,-0.277672,-0.410713,-0.863455
1631118284752,-0.278465,-0.412116,-0.863516
1631118284761,-0.278282,-0.412482,-0.862906
1631118284771,-0.279258,-0.411445,-0.863638
1631118284781,-0.279929,-0.412482,-0.864309
1631118284790,-0.279075,-0.412055,-0.86376
1631118284800,-0.279014,-0.412726,-0.863699
1631118284809,-0.279441,-0.413763,-0.8632719999999999
1631118284819,-0.279136,-0.413458,-0.864248
1631118284829,-0.279441,-0.411262,-0.863638
1631118284838,-0.27999,-0.411628,-0.862906
1631118284848,-0.28163699999999997,-0.412482,-0.862723
1631118284857,-0.280173,-0.412726,-0.8641869999999999
1631118284867,-0.28041699999999997,-0.412116,-0.866017
1631118284877,-0.27816,-0.411628,-0.868091
1631118284886,-0.278038,-0.411628,-0.869433
1631118284896,-0.277306,-0.411262,-0.868274
1631118284905,-0.277916,-0.411445,-0.865468
1631118284915,-0.279136,-0.410713,-0.86254
1631118284925,-0.278404,-0.410286,-0.860039
1631118284934,-0.277123,-0.409554,-0.859734
1631118284944,-0.276269,-0.409554,-0.860405
1631118284953,-0.275415,-0.410103,-0.861076
1631118284963,-0.27511,-0.409981,-0.862113
1631118284973,-0.274012,-0.410042,-0.863333
1631118284982,-0.274378,-0.412116,-0.862723
1631118284992,-0.274988,-0.41199399999999997,-0.862845
1631118285001,-0.275354,-0.414312,-0.8626619999999999
1631118285011,-0.274561,-0.413763,-0.8617469999999999
1631118285021,-0.274805,-0.414617,-0.861564
1631118285030,-0.275415,-0.416203,-0.862235
1631118285040,-0.276696,-0.41663,-0.862479
1631118285049,-0.276147,-0.41626399999999997,-0.863028
1631118285059,-0.27694,-0.416325,-0.863455
1631118285069,-0.27755,-0.41565399999999997,-0.8651019999999999
1631118285078,-0.275842,-0.415593,-0.865041
1631118285088,-0.277184,-0.4148,-0.86437
1631118285097,-0.277428,-0.414068,-0.863699
1631118285107,-0.27816,-0.41297,-0.864431
1631118285117,-0.278831,-0.412421,-0.86315
1631118285126,-0.279258,-0.410652,-0.8632719999999999
1631118285136,-0.279075,-0.409066,-0.86559
1631118285145,-0.27877,-0.40809,-0.866627
1631118285155,-0.278526,-0.40699199999999996,-0.866932
1631118285165,-0.27877,-0.407541,-0.866322
1631118285174,-0.279929,-0.407175,-0.865041
1631118285184,-0.279075,-0.407968,-0.864248
1631118285193,-0.278709,-0.409676,-0.863943
1631118285203,-0.27816,-0.410286,-0.863943
1631118285213,-0.278526,-0.410957,-0.864736
1631118285222,-0.277672,-0.410652,-0.864736
1631118285232,-0.277123,-0.410774,-0.865651
1631118285241,-0.277977,-0.410896,-0.866322
1631118285251,-0.277428,-0.41107899999999997,-0.866078
1631118285261,-0.277062,-0.410347,-0.865224
1631118285270,-0.277062,-0.410896,-0.865529
1631118285280,-0.276818,-0.41114,-0.866444
1631118285289,-0.27633,-0.41138399999999997,-0.864858
1631118285299,-0.275537,-0.410652,-0.864919
1631118285309,-0.275781,-0.410347,-0.864919
1631118285318,-0.275354,-0.410774,-0.864675
1631118285328,-0.275537,-0.409798,-0.864553
1631118285337,-0.274378,-0.409127,-0.864553
1631118285347,-0.275476,-0.408822,-0.865346
1631118285357,-0.275232,-0.40809,-0.864614
1631118285366,-0.274561,-0.407846,-0.864919
1631118285376,-0.274988,-0.408822,-0.864919
1631118285385,-0.274988,-0.409493,-0.864126
1631118285395,-0.273829,-0.410286,-0.86437
1631118285405,-0.274012,-0.410103,-0.864614
1631118285414,-0.274317,-0.40992,-0.864309
1631118285424,-0.274012,-0.410957,-0.863699
1631118285433,-0.274744,-0.410652,-0.863638
1631118285443,-0.2745,-0.410713,-0.864614
1631118285453,-0.274744,-0.411323,-0.864736
1631118285462,-0.273768,-0.411872,-0.8644919999999999
1631118285472,-0.274561,-0.412726,-0.8632719999999999
1631118285481,-0.27511,-0.412421,-0.863394
1631118285491,-0.274134,-0.41260399999999997,-0.864065
1631118285501,-0.27511,-0.41260399999999997,-0.864126
1631118285510,-0.275842,-0.41229899999999997,-0.864553
1631118285520,-0.276086,-0.413336,-0.865651
1631118285529,-0.275842,-0.412482,-0.8651019999999999
1631118285539,-0.275964,-0.411872,-0.865041
1631118285549,-0.276452,-0.41114,-0.865712
1631118285558,-0.275964,-0.411323,-0.864614
1631118285568,-0.275964,-0.41199399999999997,-0.86498
1631118285577,-0.276452,-0.41138399999999997,-0.863455
1631118285587,-0.276147,-0.411811,-0.8644919999999999
1631118285597,-0.275354,-0.41236,-0.864309
1631118285606,-0.275781,-0.41236,-0.863821
1631118285616,-0.276635,-0.411933,-0.863638
1631118285625,-0.27572,-0.411567,-0.864309
1631118285635,-0.276391,-0.411933,-0.863821
1631118285645,-0.276208,-0.412665,-0.863943
1631118285654,-0.276574,-0.413275,-0.864431
1631118285664,-0.277062,-0.413092,-0.864553
1631118285673,-0.277062,-0.41321399999999997,-0.864553
1631118285683,-0.277001,-0.41229899999999997,-0.864004
1631118285693,-0.27694,-0.413702,-0.8647969999999999
1631118285702,-0.277611,-0.413763,-0.864553
1631118285712,-0.277367,-0.412116,-0.863455
1631118285721,-0.277123,-0.412238,-0.864004
1631118285731,-0.277916,-0.411445,-0.864004
1631118285741,-0.278282,-0.41107899999999997,-0.863333
1631118285750,-0.279075,-0.41175,-0.8638819999999999
1631118285760,-0.277977,-0.411445,-0.8651019999999999
1631118285769,-0.277855,-0.411811,-0.867237
1631118285779,-0.276818,-0.41168899999999997,-0.868762
1631118285789,-0.275598,-0.411811,-0.869677
1631118285798,-0.276147,-0.412177,-0.86681
1631118285808,-0.277367,-0.411811,-0.864309
1631118285817,-0.276208,-0.411506,-0.86193
1631118285827,-0.275842,-0.411201,-0.86132
1631118285837,-0.275537,-0.410469,-0.861625
1631118285846,-0.275476,-0.409981,-0.861259
1631118285856,-0.274439,-0.410774,-0.8623569999999999
1631118285865,-0.274134,-0.41175,-0.863211
1631118285875,-0.274378,-0.412482,-0.863394
1631118285885,-0.273219,-0.413275,-0.8626619999999999
1631118285894,-0.273646,-0.413702,-0.861503
1631118285904,-0.274256,-0.413702,-0.861686
1631118285913,-0.275354,-0.414922,-0.860954
1631118285923,-0.274988,-0.415776,-0.8614419999999999
1631118285933,-0.274988,-0.415593,-0.86315
1631118285942,-0.275049,-0.414678,-0.864126
1631118285952,-0.276025,-0.415898,-0.864248
1631118285961,-0.276635,-0.41663,-0.864431
1631118285971,-0.27633,-0.414312,-0.8651019999999999
1631118285981,-0.276635,-0.413397,-0.864614
1631118285990,-0.277611,-0.412726,-0.864614
1631118286000,-0.277184,-0.412421,-0.864858
1631118286009,-0.278648,-0.411506,-0.863089
1631118286019,-0.277672,-0.409188,-0.86437
1631118286029,-0.27877,-0.409066,-0.866627
1631118286038,-0.278038,-0.408273,-0.867054
1631118286048,-0.277916,-0.40760199999999996,-0.86742
1631118286057,-0.277977,-0.407846,-0.866383
1631118286067,-0.27755,-0.408578,-0.86437
1631118286077,-0.277428,-0.409005,-0.864065
1631118286086,-0.277672,-0.410164,-0.8644919999999999
1631118286096,-0.277306,-0.409676,-0.86376
1631118286105,-0.277062,-0.411262,-0.864126
1631118286115,-0.27633,-0.411933,-0.8647969999999999
1631118286125,-0.276452,-0.411018,-0.86559
1631118286134,-0.276208,-0.411811,-0.865651
1631118286144,-0.275659,-0.412055,-0.866078
1631118286153,-0.27572,-0.411811,-0.866261
1631118286163,-0.275537,-0.41138399999999997,-0.86681
1631118286173,-0.275842,-0.410835,-0.866139
1631118286182,-0.2745,-0.410408,-0.8651019999999999
1631118286192,-0.274988,-0.409554,-0.86559
1631118286201,-0.274622,-0.411018,-0.866322
1631118286211,-0.274561,-0.409432,-0.865529
1631118286221,-0.273829,-0.40931,-0.86498
1631118286230,-0.273707,-0.408334,-0.865224
1631118286240,-0.273219,-0.408578,-0.865407
1631118286249,-0.273158,-0.40809,-0.865163
1631118286259,-0.27358499999999997,-0.407785,-0.8647969999999999
1631118286269,-0.273463,-0.40790699999999996,-0.865895
1631118286278,-0.271999,-0.407663,-0.864553
1631118286288,-0.271938,-0.40748,-0.864675
1631118286297,-0.272548,-0.407785,-0.8651019999999999
1631118286307,-0.273524,-0.407724,-0.865285
1631118286317,-0.27327999999999997,-0.408761,-0.8641869999999999
1631118286326,-0.273768,-0.409554,-0.86498
1631118286336,-0.272548,-0.410225,-0.8662
1631118286345,-0.274012,-0.410042,-0.865407
1631118286355,-0.274378,-0.41053,-0.865346
1631118286365,-0.274256,-0.41107899999999997,-0.86498
1631118286374,-0.274866,-0.411018,-0.864858
1631118286384,-0.274256,-0.41107899999999997,-0.865468
1631118286393,-0.273951,-0.410652,-0.865956
1631118286403,-0.274317,-0.411933,-0.866139
1631118286413,-0.274134,-0.41236,-0.865407
1631118286422,-0.274988,-0.412848,-0.864736
1631118286432,-0.27511,-0.412055,-0.8651019999999999
1631118286441,-0.275598,-0.411201,-0.863821
1631118286451,-0.2745,-0.412055,-0.8638819999999999
1631118286461,-0.274866,-0.410774,-0.8651019999999999
1631118286470,-0.274805,-0.411445,-0.865834
1631118286480,-0.274866,-0.41175,-0.864248
1631118286489,-0.275293,-0.412421,-0.8644919999999999
1631118286499,-0.276147,-0.41229899999999997,-0.8635769999999999
1631118286509,-0.276208,-0.412177,-0.864614
1631118286518,-0.276086,-0.412726,-0.863699
1631118286528,-0.27633,-0.413153,-0.864126
1631118286537,-0.27572,-0.413641,-0.863211
1631118286547,-0.275903,-0.41358,-0.863943
1631118286557,-0.276879,-0.41443399999999997,-0.864919
1631118286566,-0.277245,-0.41443399999999997,-0.865163
1631118286576,-0.276025,-0.414495,-0.865407
1631118286585,-0.276879,-0.413153,-0.864126
1631118286595,-0.277611,-0.413458,-0.864004
1631118286605,-0.278038,-0.413641,-0.864309
1631118286614,-0.277855,-0.413031,-0.863943
1631118286624,-0.278221,-0.410652,-0.861564
1631118286633,-0.279197,-0.411933,-0.860588
1631118286643,-0.279929,-0.41290899999999997,-0.862784
1631118286653,-0.279136,-0.412055,-0.864858
1631118286662,-0.27816,-0.411628,-0.86681
1631118286672,-0.276269,-0.411933,-0.86925
1631118286681,-0.277184,-0.41236,-0.869128
1631118286691,-0.277306,-0.412238,-0.8662
1631118286701,-0.278099,-0.412116,-0.8632719999999999
1631118286710,-0.278099,-0.411872,-0.860954
1631118286720,-0.27755,-0.411567,-0.860283
1631118286729,-0.277306,-0.410225,-0.860344
1631118286739,-0.277489,-0.410957,-0.86132
1631118286749,-0.277977,-0.41053,-0.8626619999999999
1631118286758,-0.277672,-0.409676,-0.86193
1631118286768,-0.275781,-0.410347,-0.862418
1631118286777,-0.276818,-0.412116,-0.8620519999999999
1631118286787,-0.276208,-0.41260399999999997,-0.860283
1631118286797,-0.277062,-0.414007,-0.8608319999999999
1631118286806,-0.277611,-0.414922,-0.859978
1631118286816,-0.278099,-0.416813,-0.86071
1631118286825,-0.278709,-0.41687399999999997,-0.86193
1631118286835,-0.279075,-0.417118,-0.862174
1631118286845,-0.279868,-0.417057,-0.864431
1631118286854,-0.279929,-0.416996,-0.8644919999999999
1631118286864,-0.279868,-0.41541,-0.864126
1631118286873,-0.282125,-0.415532,-0.862479
1631118286883,-0.28182,-0.414861,-0.863333
1631118286893,-0.28255199999999997,-0.413458,-0.8626619999999999
1631118286902,-0.283223,-0.411933,-0.8623569999999999
1631118286912,-0.28133199999999997,-0.41168899999999997,-0.864248
1631118286921,-0.280539,-0.41053,-0.864675
1631118286931,-0.28182,-0.410042,-0.864736
1631118286941,-0.282308,-0.410347,-0.863516
1631118286950,-0.282735,-0.40992,-0.8626619999999999
1631118286960,-0.28255199999999997,-0.411018,-0.8620519999999999
1631118286969,-0.282491,-0.411872,-0.86193
1631118286979,-0.282735,-0.41297,-0.860954
1631118286989,-0.282186,-0.413336,-0.861808
1631118286998,-0.28194199999999997,-0.412665,-0.86193
1631118287008,-0.28243,-0.414495,-0.862479
1631118287017,-0.281576,-0.413458,-0.862906
1631118287027,-0.281149,-0.413946,-0.8629669999999999
1631118287037,-0.28102699999999997,-0.413702,-0.86315
1631118287046,-0.28133199999999997,-0.413397,-0.8638819999999999
1631118287056,-0.280905,-0.413763,-0.86498
1631118287065,-0.28163699999999997,-0.412238,-0.862723
1631118287075,-0.281271,-0.413092,-0.863211
1631118287085,-0.280356,-0.41199399999999997,-0.8629669999999999
1631118287094,-0.280661,-0.411628,-0.863089
1631118287104,-0.280295,-0.410286,-0.86376
1631118287113,-0.279868,-0.40992,-0.8635769999999999
1631118287123,-0.279868,-0.409432,-0.86376
1631118287133,-0.279441,-0.40821199999999996,-0.8632719999999999
1631118287142,-0.280478,-0.408639,-0.862845
1631118287152,-0.279685,-0.408456,-0.8632719999999999
1631118287161,-0.278404,-0.409066,-0.863028
1631118287171,-0.278404,-0.409493,-0.863028
1631118287181,-0.278282,-0.410774,-0.86315
1631118287190,-0.278648,-0.410835,-0.8638819999999999
1631118287200,-0.277306,-0.411201,-0.864126
1631118287209,-0.278526,-0.412177,-0.863333
1631118287219,-0.278282,-0.412116,-0.863394
1631118287229,-0.27877,-0.411872,-0.8632719999999999
1631118287238,-0.278648,-0.411933,-0.862845
1631118287248,-0.278282,-0.411506,-0.863333
1631118287257,-0.279136,-0.412482,-0.8632719999999999
1631118287267,-0.279502,-0.411506,-0.862906
1631118287277,-0.278404,-0.41114,-0.86376
1631118287286,-0.278526,-0.410225,-0.863455
1631118287296,-0.278099,-0.410652,-0.86437
1631118287305,-0.277977,-0.411018,-0.864126
1631118287315,-0.278343,-0.410713,-0.86437
1631118287325,-0.279441,-0.410835,-0.86498
1631118287334,-0.278465,-0.410957,-0.864004
1631118287344,-0.278587,-0.41114,-0.863211
1631118287353,-0.278892,-0.410774,-0.861991
1631118287363,-0.279319,-0.410957,-0.861808
1631118287373,-0.279136,-0.411506,-0.862113
1631118287382,-0.279136,-0.411018,-0.862845
1631118287392,-0.278892,-0.411933,-0.863028
1631118287401,-0.279868,-0.412482,-0.864126
1631118287411,-0.279014,-0.412055,-0.8635769999999999
1631118287421,-0.279563,-0.413092,-0.8651019999999999
1631118287430,-0.279502,-0.411872,-0.864736
1631118287440,-0.279807,-0.41290899999999997,-0.865529
1631118287449,-0.279258,-0.413641,-0.865285
1631118287459,-0.279136,-0.413397,-0.862845
1631118287469,-0.280661,-0.41297,-0.860588
1631118287478,-0.280661,-0.411323,-0.8601
1631118287488,-0.280844,-0.410957,-0.8601
1631118287497,-0.280478,-0.41175,-0.861381
1631118287507,-0.28102699999999997,-0.411933,-0.863943
1631118287517,-0.280966,-0.413092,-0.866444
1631118287526,-0.279197,-0.413275,-0.865956
1631118287536,-0.278404,-0.414373,-0.865895
1631118287545,-0.278221,-0.41504399999999997,-0.864248
1631118287555,-0.278221,-0.41663,-0.860954
1631118287565,-0.278831,-0.416813,-0.858514
1631118287574,-0.279258,-0.417362,-0.857965
1631118287584,-0.278648,-0.41724,-0.856928
1631118287593,-0.277794,-0.41626399999999997,-0.857599
1631118287603,-0.277367,-0.415532,-0.858819
1631118287613,-0.277001,-0.416142,-0.8596119999999999
1631118287622,-0.277733,-0.415471,-0.8590019999999999
1631118287632,-0.27755,-0.41626399999999997,-0.859124
1631118287641,-0.277428,-0.41626399999999997,-0.8583919999999999
1631118287651,-0.277977,-0.416142,-0.858575
1631118287661,-0.27816,-0.416142,-0.858148
1631118287670,-0.278526,-0.415776,-0.85949
1631118287680,-0.279563,-0.41778899999999997,-0.858331
1631118287689,-0.279136,-0.417728,-0.8599169999999999
1631118287699,-0.27999,-0.418155,-0.861625
1631118287709,-0.279746,-0.418155,-0.8626619999999999
1631118287718,-0.27999,-0.417972,-0.862723
1631118287728,-0.28121,-0.41748399999999997,-0.862296
1631118287737,-0.281759,-0.417423,-0.862113
1631118287747,-0.281698,-0.417606,-0.86071
1631118287757,-0.28072199999999997,-0.416996,-0.86071
1631118287766,-0.280539,-0.416752,-0.8623569999999999
1631118287776,-0.279441,-0.416996,-0.861991
1631118287785,-0.27938,-0.417972,-0.861808
1631118287795,-0.280478,-0.418277,-0.861869
1631118287805,-0.2806,-0.418216,-0.860588
1631118287814,-0.28072199999999997,-0.41809399999999997,-0.860893
1631118287824,-0.280051,-0.41724,-0.86071
1631118287833,-0.280783,-0.41724,-0.861198
1631118287843,-0.281393,-0.417118,-0.8611369999999999
1631118287853,-0.279624,-0.416935,-0.86254
1631118287862,-0.280051,-0.417301,-0.862174
1631118287872,-0.279319,-0.415837,-0.862845
1631118287881,-0.279624,-0.416203,-0.862235
1631118287891,-0.28041699999999997,-0.4148,-0.8620519999999999
1631118287901,-0.279319,-0.415288,-0.861381
1631118287910,-0.279746,-0.415227,-0.861686
1631118287920,-0.279319,-0.414312,-0.861686
1631118287929,-0.278099,-0.414556,-0.86132
1631118287939,-0.278526,-0.414312,-0.86254
1631118287949,-0.279197,-0.414556,-0.8629669999999999
1631118287958,-0.279502,-0.41358,-0.8617469999999999
1631118287968,-0.279014,-0.413092,-0.86254
1631118287977,-0.279258,-0.412421,-0.862296
1631118287987,-0.279319,-0.412482,-0.860649
1631118287997,-0.279075,-0.412055,-0.8611369999999999
1631118288006,-0.278038,-0.412543,-0.860893
1631118288016,-0.278526,-0.412238,-0.861381
1631118288025,-0.278648,-0.412238,-0.86132
1631118288035,-0.278099,-0.411506,-0.861625
1631118288045,-0.279136,-0.412238,-0.861198
1631118288054,-0.278953,-0.412482,-0.861259
1631118288064,-0.279624,-0.41290899999999997,-0.860649
1631118288073,-0.279441,-0.411811,-0.861381
1631118288083,-0.279014,-0.413092,-0.861564
1631118288093,-0.279258,-0.414678,-0.861625
1631118288102,-0.279441,-0.415105,-0.8617469999999999
1631118288112,-0.279502,-0.41473899999999997,-0.862296
1631118288121,-0.28011199999999997,-0.415227,-0.8626619999999999
1631118288131,-0.280966,-0.415593,-0.861808
1631118288141,-0.279868,-0.415288,-0.862296
1631118288150,-0.280234,-0.414983,-0.861686
1631118288160,-0.27938,-0.414922,-0.862174
1631118288169,-0.279502,-0.414922,-0.861686
1631118288179,-0.280478,-0.41534899999999997,-0.862601
1631118288189,-0.28041699999999997,-0.416508,-0.862235
1631118288198,-0.279075,-0.41687399999999997,-0.861686
1631118288208,-0.279929,-0.416752,-0.86193
1631118288217,-0.280173,-0.416142,-0.860954
1631118288227,-0.278526,-0.416386,-0.86193
1631118288237,-0.279258,-0.416508,-0.859978
1631118288246,-0.278953,-0.41687399999999997,-0.859795
1631118288256,-0.278648,-0.416142,-0.860649
1631118288265,-0.279075,-0.417118,-0.861869
1631118288275,-0.279502,-0.416142,-0.862113
1631118288285,-0.279319,-0.41626399999999997,-0.861076
1631118288294,-0.278953,-0.41748399999999997,-0.860954
1631118288304,-0.279258,-0.417545,-0.8605269999999999
1631118288313,-0.280661,-0.418033,-0.86071
1631118288323,-0.279746,-0.416691,-0.860039
1631118288333,-0.281088,-0.416386,-0.859673
1631118288342,-0.280905,-0.416325,-0.859673
1631118288352,-0.281881,-0.417118,-0.861503
1631118288361,-0.280966,-0.417362,-0.863394
1631118288371,-0.27938,-0.417362,-0.865346
1631118288381,-0.277672,-0.416813,-0.866932
1631118288390,-0.277672,-0.415715,-0.865773
1631118288400,-0.279197,-0.416081,-0.863516
1631118288409,-0.279807,-0.416447,-0.85888
1631118288419,-0.279563,-0.416203,-0.856318
1631118288429,-0.278648,-0.415532,-0.854488
1631118288438,-0.278831,-0.415593,-0.8556469999999999
1631118288448,-0.278099,-0.416142,-0.85705
1631118288457,-0.277855,-0.417057,-0.859063
1631118288467,-0.27633,-0.417728,-0.859185
1631118288477,-0.276574,-0.417118,-0.859978
1631118288486,-0.277367,-0.416386,-0.859795
1631118288496,-0.277977,-0.417057,-0.858026
1631118288505,-0.278343,-0.417362,-0.857721
1631118288515,-0.279014,-0.41870399999999997,-0.85705
1631118288525,-0.280478,-0.419192,-0.8583919999999999
1631118288534,-0.28072199999999997,-0.421266,-0.858819
1631118288544,-0.28133199999999997,-0.421449,-0.859673
1631118288553,-0.280356,-0.421449,-0.861198
1631118288563,-0.280173,-0.421083,-0.861625
1631118288573,-0.281698,-0.419802,-0.861503
1631118288582,-0.28163699999999997,-0.419375,-0.86071
1631118288592,-0.282064,-0.418155,-0.859429
1631118288601,-0.28285699999999997,-0.41778899999999997,-0.85888
1631118288611,-0.284504,-0.416691,-0.859124
1631118288621,-0.28346699999999997,-0.416508,-0.859673
1631118288630,-0.284138,-0.415593,-0.8614419999999999
1631118288640,-0.28468699999999997,-0.41504399999999997,-0.8626619999999999
1631118288649,-0.285358,-0.41602,-0.862906
1631118288659,-0.284626,-0.41534899999999997,-0.863211
1631118288669,-0.283894,-0.415715,-0.862418
1631118288678,-0.284748,-0.416203,-0.86132
1631118288688,-0.284321,-0.416935,-0.8596119999999999
1631118288697,-0.28426,-0.417545,-0.859368
1631118288707,-0.283589,-0.41809399999999997,-0.860039
1631118288717,-0.28346699999999997,-0.41724,-0.859246
1631118288726,-0.283589,-0.417545,-0.859795
1631118288736,-0.282796,-0.41724,-0.859673
1631118288745,-0.28426,-0.416691,-0.8596119999999999
1631118288755,-0.283894,-0.417423,-0.8601
1631118288765,-0.284504,-0.416813,-0.858758
1631118288774,-0.284443,-0.417545,-0.8596119999999999
1631118288784,-0.28304,-0.417728,-0.859551
1631118288793,-0.28377199999999997,-0.417423,-0.860039
1631118288803,-0.283589,-0.417911,-0.859551
1631118288813,-0.28426,-0.417606,-0.860588
1631118288822,-0.284016,-0.41663,-0.859978
1631118288832,-0.282979,-0.415776,-0.860466
1631118288841,-0.282979,-0.415105,-0.860466
1631118288851,-0.28365,-0.415288,-0.860283
1631118288861,-0.28346699999999997,-0.41473899999999997,-0.8590019999999999
1631118288870,-0.28346699999999997,-0.414556,-0.859368
1631118288880,-0.283528,-0.41541,-0.859429
1631118288889,-0.283284,-0.41534899999999997,-0.859185
1631118288899,-0.282308,-0.415471,-0.858819
1631118288909,-0.281759,-0.416508,-0.8590019999999999
1631118288918,-0.281271,-0.416203,-0.858758
1631118288928,-0.28102699999999997,-0.41656899999999997,-0.85949
1631118288937,-0.28133199999999997,-0.41687399999999997,-0.859185
1631118288947,-0.281576,-0.417667,-0.85888
1631118288957,-0.280844,-0.417118,-0.858758
1631118288966,-0.28182,-0.417911,-0.8586969999999999
1631118288976,-0.28182,-0.419131,-0.859856
1631118288985,-0.28194199999999997,-0.41907,-0.859978
1631118288995,-0.281759,-0.419375,-0.8602219999999999
1631118289005,-0.28182,-0.420168,-0.8602219999999999
1631118289014,-0.28102699999999997,-0.420778,-0.860039
1631118289024,-0.281271,-0.420656,-0.859856
1631118289033,-0.281088,-0.419497,-0.858941
1631118289043,-0.28194199999999997,-0.419375,-0.858941
1631118289053,-0.282003,-0.419497,-0.858514
1631118289062,-0.28133199999999997,-0.419253,-0.8601
1631118289072,-0.280966,-0.418155,-0.859063
1631118289081,-0.280356,-0.41846,-0.8586969999999999
1631118289091,-0.280173,-0.419253,-0.8593069999999999
1631118289101,-0.28102699999999997,-0.418277,-0.858941
1631118289110,-0.281576,-0.41839899999999997,-0.8583919999999999
1631118289120,-0.282064,-0.41907,-0.8601
1631118289129,-0.282491,-0.418277,-0.8605269999999999
1631118289139,-0.280478,-0.41907,-0.8596119999999999
1631118289149,-0.28182,-0.419436,-0.859795
1631118289158,-0.281881,-0.419131,-0.859429
1631118289168,-0.282186,-0.419131,-0.8599169999999999
1631118289177,-0.28224699999999997,-0.418216,-0.8593069999999999
1631118289187,-0.28163699999999997,-0.417606,-0.859795
1631118289197,-0.283528,-0.41907,-0.858636
1631118289206,-0.28407699999999997,-0.417972,-0.859978
1631118289216,-0.28285699999999997,-0.417972,-0.8602219999999999
1631118289225,-0.280905,-0.417362,-0.863699
1631118289235,-0.280539,-0.417362,-0.86498
1631118289245,-0.280844,-0.41778899999999997,-0.863638
1631118289254,-0.28133199999999997,-0.417728,-0.861686
1631118289264,-0.281576,-0.417728,-0.858453
1631118289273,-0.280844,-0.41724,-0.856745
1631118289283,-0.27999,-0.41626399999999997,-0.855708
1631118289293,-0.279319,-0.41717899999999997,-0.8565619999999999
1631118289302,-0.278953,-0.416752,-0.857111
1631118289312,-0.278648,-0.41778899999999997,-0.858575
1631118289321,-0.277672,-0.418216,-0.8590019999999999
1631118289331,-0.277489,-0.41846,-0.858575
1631118289341,-0.277733,-0.418155,-0.857965
1631118289350,-0.277977,-0.418948,-0.857416
1631118289360,-0.278221,-0.42022899999999996,-0.856989
1631118289369,-0.279685,-0.42029,-0.8556469999999999
1631118289379,-0.280173,-0.420595,-0.857599
1631118289389,-0.280173,-0.421022,-0.858209
1631118289398,-0.279502,-0.421327,-0.858514
1631118289408,-0.2806,-0.421022,-0.860344
1631118289417,-0.280478,-0.421266,-0.860954
1631118289427,-0.280539,-0.420168,-0.86132
1631118289437,-0.28243,-0.420107,-0.860405
1631118289446,-0.28285699999999997,-0.41968,-0.860344
1631118289456,-0.283284,-0.419558,-0.859856
1631118289465,-0.283223,-0.418033,-0.859734
1631118289475,-0.283528,-0.416813,-0.860466
1631118289485,-0.282735,-0.41534899999999997,-0.8617469999999999
1631118289494,-0.282491,-0.414617,-0.86254
1631118289504,-0.283284,-0.414251,-0.862784
1631118289513,-0.284016,-0.41412899999999997,-0.8620519999999999
1631118289523,-0.28255199999999997,-0.414678,-0.861259
1631118289533,-0.283711,-0.415227,-0.8599169999999999
1631118289542,-0.284016,-0.415776,-0.8593069999999999
1631118289552,-0.283345,-0.416081,-0.85949
1631118289561,-0.28243,-0.41595899999999997,-0.8601
1631118289571,-0.282369,-0.415227,-0.860588
1631118289581,-0.282003,-0.41602,-0.861259
1631118289590,-0.282125,-0.416386,-0.861808
1631118289600,-0.28224699999999997,-0.417362,-0.8617469999999999
1631118289609,-0.281576,-0.416386,-0.861808
1631118289619,-0.28243,-0.416691,-0.8614419999999999
1631118289629,-0.282064,-0.416325,-0.860893
1631118289638,-0.280966,-0.417423,-0.860405
1631118289648,-0.281271,-0.41626399999999997,-0.8601
1631118289657,-0.282491,-0.416203,-0.859856
1631118289667,-0.281088,-0.41534899999999997,-0.859673
1631118289677,-0.28041699999999997,-0.415227,-0.859124
1631118289686,-0.2806,-0.414068,-0.86132
1631118289696,-0.282003,-0.413702,-0.860649
1631118289705,-0.280783,-0.41382399999999997,-0.860466
1631118289715,-0.280478,-0.413336,-0.8611369999999999
1631118289725,-0.280478,-0.41321399999999997,-0.860588
1631118289734,-0.28102699999999997,-0.41358,-0.861503
1631118289744,-0.28011199999999997,-0.414068,-0.860283
1631118289753,-0.281271,-0.413885,-0.859856
1631118289763,-0.280966,-0.41419,-0.86071
1631118289773,-0.281393,-0.415105,-0.859795
1631118289782,-0.28224699999999997,-0.4148,-0.859856
1631118289792,-0.280844,-0.415166,-0.859429
1631118289801,-0.281149,-0.416325,-0.859978
1631118289811,-0.28182,-0.41656899999999997,-0.860039
1631118289821,-0.281698,-0.415776,-0.8602219999999999
1631118289830,-0.281698,-0.416508,-0.8601
1631118289840,-0.282186,-0.417057,-0.86071
1631118289849,-0.281576,-0.417911,-0.8601
1631118289859,-0.282003,-0.417911,-0.859978
1631118289869,-0.282186,-0.417423,-0.860039
1631118289878,-0.283284,-0.41717899999999997,-0.859551
1631118289888,-0.284016,-0.416447,-0.859856
1631118289897,-0.282979,-0.41656899999999997,-0.859978
1631118289907,-0.28285699999999997,-0.417118,-0.859856
1631118289917,-0.283528,-0.416447,-0.8596119999999999
1631118289926,-0.283406,-0.416142,-0.860283
1631118289936,-0.283284,-0.416447,-0.859795
1631118289945,-0.282491,-0.415898,-0.859551
1631118289955,-0.282918,-0.41724,-0.85949
1631118289965,-0.283894,-0.417423,-0.860039
1631118289974,-0.283833,-0.416691,-0.861564
1631118289984,-0.28377199999999997,-0.415227,-0.860954
1631118289993,-0.282918,-0.41656899999999997,-0.860954
1631118290003,-0.284138,-0.41785,-0.860466
1631118290013,-0.28255199999999997,-0.417057,-0.8605269999999999
1631118290022,-0.282918,-0.41541,-0.860161
1631118290032,-0.283345,-0.41504399999999997,-0.859673
1631118290041,-0.28468699999999997,-0.41541,-0.859795
1631118290051,-0.284016,-0.417362,-0.860161
1631118290061,-0.283833,-0.416386,-0.861503
1631118290070,-0.283284,-0.41626399999999997,-0.862479
1631118290080,-0.28224699999999997,-0.416386,-0.864309
1631118290089,-0.28163699999999997,-0.416142,-0.864431
1631118290099,-0.282491,-0.41626399999999997,-0.862723
1631118290109,-0.28224699999999997,-0.4148,-0.8601
1631118290118,-0.281698,-0.414922,-0.858209
1631118290128,-0.28243,-0.414007,-0.8574769999999999
1631118290137,-0.282064,-0.41358,-0.857233
1631118290147,-0.281149,-0.413397,-0.8583919999999999
1631118290157,-0.28011199999999997,-0.414922,-0.858331
1631118290166,-0.279868,-0.414068,-0.859734
1631118290176,-0.278648,-0.414556,-0.8601
1631118290185,-0.27938,-0.414007,-0.8593069999999999
1631118290195,-0.279624,-0.415105,-0.858453
1631118290205,-0.279868,-0.415532,-0.8583919999999999
1631118290214,-0.281576,-0.415166,-0.858575
1631118290224,-0.282003,-0.41687399999999997,-0.858819
1631118290233,-0.282308,-0.41846,-0.859795
1631118290243,-0.28182,-0.41809399999999997,-0.860588
1631118290253,-0.282491,-0.418643,-0.862235
1631118290262,-0.28133199999999997,-0.417606,-0.862723
1631118290272,-0.283101,-0.416203,-0.8629669999999999
1631118290281,-0.283528,-0.414373,-0.861015
1631118290291,-0.283589,-0.41358,-0.8614419999999999
1631118290301,-0.284748,-0.413153,-0.860954
1631118290310,-0.284504,-0.412116,-0.860893
1631118290320,-0.284809,-0.411201,-0.862418
1631118290329,-0.28468699999999997,-0.410591,-0.864553
1631118290339,-0.284565,-0.410896,-0.864126
1631118290349,-0.284016,-0.410896,-0.863638
1631118290358,-0.284626,-0.41168899999999997,-0.863516
1631118290368,-0.284565,-0.41297,-0.86254
1631118290377,-0.28487,-0.41321399999999997,-0.861564
1631118290387,-0.28365,-0.414617,-0.861259
1631118290397,-0.28304,-0.413641,-0.861869
1631118290406,-0.282308,-0.415288,-0.861503
1631118290416,-0.281881,-0.413885,-0.8611369999999999
1631118290425,-0.281759,-0.414007,-0.862235
1631118290435,-0.28182,-0.413885,-0.8605269999999999
1631118290445,-0.28182,-0.414556,-0.8608319999999999
1631118290454,-0.282186,-0.414617,-0.861564
1631118290464,-0.282491,-0.414861,-0.86193
1631118290473,-0.281576,-0.414556,-0.862235
1631118290483,-0.281149,-0.41412899999999997,-0.862296
1631118290493,-0.28194199999999997,-0.414251,-0.861869
1631118290502,-0.282369,-0.412787,-0.861503
1631118290512,-0.28072199999999997,-0.412116,-0.8614419999999999
1631118290521,-0.2806,-0.412421,-0.861259
1631118290531,-0.281576,-0.41229899999999997,-0.861625
1631118290541,-0.28133199999999997,-0.411506,-0.8617469999999999
1631118290550,-0.28072199999999997,-0.411933,-0.861381
1631118290560,-0.2806,-0.410896,-0.860466
1631118290569,-0.28072199999999997,-0.41107899999999997,-0.860588
1631118290579,-0.280539,-0.410835,-0.860161
1631118290589,-0.280661,-0.411811,-0.860405
1631118290598,-0.280539,-0.411201,-0.8605269999999999
1631118290608,-0.281088,-0.412055,-0.8605269999999999
1631118290617,-0.280356,-0.411872,-0.860649
1631118290627,-0.281454,-0.413336,-0.859978
1631118290637,-0.280783,-0.413458,-0.860283
1631118290646,-0.280661,-0.41290899999999997,-0.860405
1631118290656,-0.28163699999999997,-0.41473899999999997,-0.860039
1631118290665,-0.281881,-0.41443399999999997,-0.86071
1631118290675,-0.28224699999999997,-0.414007,-0.861198
1631118290685,-0.281576,-0.414373,-0.861686
1631118290694,-0.282125,-0.414678,-0.86132
1631118290704,-0.282186,-0.41419,-0.86132
1631118290713,-0.281393,-0.415166,-0.862174
1631118290723,-0.281454,-0.41473899999999997,-0.860649
1631118290733,-0.28243,-0.415471,-0.860405
1631118290742,-0.28243,-0.415105,-0.8605269999999999
1631118290752,-0.281515,-0.415776,-0.861564
1631118290761,-0.28133199999999997,-0.41541,-0.8617469999999999
1631118290771,-0.282125,-0.415166,-0.861808
1631118290781,-0.283284,-0.41565399999999997,-0.861076
1631118290790,-0.282186,-0.414922,-0.860039
1631118290800,-0.28224699999999997,-0.415532,-0.8602219999999999
1631118290809,-0.283528,-0.41565399999999997,-0.861076
1631118290819,-0.28285699999999997,-0.41656899999999997,-0.86254
1631118290829,-0.282918,-0.41534899999999997,-0.8626619999999999
1631118290838,-0.28304,-0.414861,-0.86193
1631118290848,-0.284016,-0.414495,-0.861808
1631118290857,-0.284016,-0.4148,-0.861808
1631118290867,-0.28255199999999997,-0.413275,-0.8626619999999999
1631118290877,-0.283284,-0.41053,-0.859856
1631118290886,-0.28560199999999997,-0.41114,-0.8601
1631118290896,-0.28590699999999997,-0.41290899999999997,-0.86132
1631118290905,-0.28560199999999997,-0.413946,-0.863211
1631118290915,-0.285175,-0.413336,-0.864431
1631118290925,-0.283589,-0.41297,-0.865712
1631118290934,-0.281576,-0.413031,-0.86559
1631118290944,-0.28304,-0.413092,-0.864858
1631118290953,-0.283894,-0.413275,-0.86132
1631118290963,-0.28365,-0.413153,-0.85705
1631118290973,-0.282674,-0.41236,-0.8571719999999999
1631118290982,-0.283589,-0.412177,-0.856928
1631118290992,-0.283101,-0.41175,-0.857538
1631118291001,-0.28243,-0.41175,-0.8586969999999999
1631118291011,-0.282674,-0.412055,-0.859795
1631118291021,-0.281698,-0.412238,-0.858636
1631118291030,-0.281698,-0.412482,-0.859063
1631118291040,-0.281881,-0.41351899999999997,-0.859734
1631118291049,-0.282064,-0.41419,-0.859368
1631118291059,-0.283101,-0.414983,-0.85888
1631118291069,-0.282613,-0.415898,-0.858514
1631118291078,-0.283223,-0.416081,-0.860161
1631118291088,-0.283528,-0.417118,-0.86132
1631118291097,-0.283894,-0.416996,-0.861991
1631118291107,-0.283406,-0.415898,-0.863638
1631118291117,-0.28468699999999997,-0.41358,-0.864126
1631118291126,-0.285663,-0.412238,-0.8620519999999999
1631118291136,-0.2867,-0.41199399999999997,-0.861198
1631118291145,-0.285968,-0.41229899999999997,-0.861686
1631118291155,-0.285358,-0.413336,-0.861564
1631118291165,-0.284748,-0.413153,-0.8638819999999999
1631118291174,-0.285663,-0.41199399999999997,-0.8638819999999999
1631118291184,-0.28499199999999997,-0.411506,-0.863516
1631118291193,-0.285419,-0.41114,-0.862296
1631118291203,-0.28590699999999997,-0.41114,-0.8614419999999999
1631118291213,-0.285724,-0.412238,-0.860771
1631118291222,-0.285724,-0.41199399999999997,-0.859673
1631118291232,-0.28560199999999997,-0.412116,-0.860588
1631118291241,-0.28426,-0.412726,-0.8617469999999999
1631118291251,-0.28560199999999997,-0.412726,-0.862845
1631118291261,-0.284748,-0.41236,-0.86315
1631118291270,-0.28438199999999997,-0.41229899999999997,-0.863638
1631118291280,-0.284748,-0.412055,-0.863638
1631118291289,-0.285114,-0.41199399999999997,-0.8641869999999999
1631118291299,-0.284931,-0.411201,-0.864248
1631118291309,-0.284565,-0.410774,-0.8635769999999999
1631118291318,-0.283894,-0.410408,-0.864553
1631118291328,-0.283406,-0.409615,-0.8638819999999999
1631118291337,-0.283711,-0.409859,-0.863028
1631118291347,-0.282369,-0.409493,-0.86315
1631118291357,-0.282796,-0.408944,-0.863516
1631118291366,-0.282613,-0.408395,-0.8638819999999999
1631118291376,-0.283284,-0.407785,-0.862845
1631118291385,-0.282613,-0.407968,-0.863028
1631118291395,-0.282003,-0.40729699999999996,-0.862723
1631118291405,-0.282064,-0.40821199999999996,-0.861625
1631118291414,-0.28163699999999997,-0.40809,-0.862723
1631118291424,-0.281454,-0.408029,-0.86315
1631118291433,-0.281454,-0.40790699999999996,-0.861503
1631118291443,-0.282369,-0.407724,-0.861625
1631118291453,-0.281881,-0.4087,-0.861869
1631118291462,-0.28255199999999997,-0.408029,-0.863089
1631118291472,-0.281881,-0.409371,-0.8629669999999999
1631118291481,-0.282186,-0.409371,-0.86254
1631118291491,-0.282491,-0.40931,-0.862174
1631118291501,-0.282979,-0.410042,-0.862784
1631118291510,-0.282308,-0.409005,-0.8629669999999999
1631118291520,-0.282064,-0.410225,-0.862235
1631118291529,-0.283223,-0.409493,-0.86193
1631118291539,-0.283406,-0.410835,-0.8614419999999999
1631118291549,-0.283284,-0.41053,-0.861808
1631118291558,-0.28304,-0.410713,-0.8620519999999999
1631118291568,-0.28365,-0.41107899999999997,-0.8617469999999999
1631118291577,-0.282796,-0.411323,-0.862418
1631118291587,-0.283528,-0.411506,-0.862174
1631118291597,-0.28255199999999997,-0.41260399999999997,-0.862174
1631118291606,-0.283406,-0.412238,-0.86132
1631118291616,-0.283894,-0.412116,-0.861564
1631118291625,-0.28407699999999997,-0.41138399999999997,-0.862296
1631118291635,-0.28438199999999997,-0.41229899999999997,-0.861991
1631118291645,-0.28377199999999997,-0.412421,-0.863821
1631118291654,-0.283528,-0.411445,-0.864736
1631118291664,-0.283528,-0.411933,-0.864736
1631118291673,-0.284199,-0.411872,-0.864065
1631118291683,-0.284626,-0.41199399999999997,-0.86193
1631118291693,-0.283894,-0.41229899999999997,-0.860954
1631118291702,-0.28407699999999997,-0.410225,-0.8602219999999999
1631118291712,-0.285419,-0.410164,-0.860893
1631118291721,-0.28609,-0.41168899999999997,-0.862906
1631118291731,-0.28609,-0.413031,-0.8651019999999999
1631118291741,-0.284931,-0.41290899999999997,-0.865407
1631118291750,-0.283528,-0.412726,-0.866322
1631118291760,-0.28285699999999997,-0.412116,-0.865895
1631118291769,-0.28365,-0.41321399999999997,-0.864248
1631118291779,-0.28304,-0.413153,-0.861869
1631118291789,-0.28377199999999997,-0.414312,-0.859124
1631118291798,-0.283101,-0.41382399999999997,-0.858209
1631118291808,-0.283345,-0.412787,-0.858758
1631118291817,-0.28243,-0.412543,-0.858819
1631118291827,-0.281881,-0.412055,-0.860954
1631118291837,-0.28182,-0.411628,-0.859978
1631118291846,-0.28121,-0.411628,-0.860466
1631118291856,-0.280966,-0.411506,-0.859673
1631118291865,-0.28163699999999997,-0.411201,-0.859734
1631118291875,-0.282064,-0.411445,-0.859368
1631118291885,-0.282369,-0.41229899999999997,-0.858514
1631118291894,-0.281759,-0.41236,-0.8596119999999999
1631118291904,-0.282674,-0.41321399999999997,-0.859551
1631118291913,-0.282613,-0.414312,-0.861076
1631118291923,-0.282491,-0.413946,-0.861869
1631118291933,-0.282674,-0.41260399999999997,-0.862479
1631118291942,-0.283894,-0.411567,-0.862906
1631118291952,-0.284321,-0.412238,-0.86376
1631118291961,-0.284504,-0.412177,-0.863943
1631118291971,-0.285419,-0.412177,-0.862296
1631118291981,-0.285053,-0.41168899999999997,-0.86315
1631118291990,-0.284626,-0.41114,-0.864858
1631118292000,-0.285175,-0.411567,-0.8644919999999999
1631118292009,-0.284626,-0.41168899999999997,-0.864858
1631118292019,-0.28407699999999997,-0.41236,-0.863821
1631118292029,-0.285236,-0.411506,-0.862784
1631118292038,-0.28468699999999997,-0.41229899999999997,-0.862479
1631118292048,-0.284748,-0.411628,-0.861808
1631118292057,-0.285053,-0.41199399999999997,-0.861686
1631118292067,-0.28487,-0.412665,-0.861564
1631118292077,-0.285175,-0.41260399999999997,-0.862235
1631118292086,-0.28487,-0.412055,-0.863516
1631118292096,-0.28548,-0.410286,-0.863089
1631118292105,-0.285358,-0.410042,-0.863333
1631118292115,-0.285785,-0.409615,-0.863699
1631118292125,-0.285663,-0.408456,-0.86315
1631118292134,-0.286029,-0.40668699999999997,-0.861991
1631118292144,-0.28621199999999997,-0.406626,-0.862723
1631118292153,-0.286334,-0.405589,-0.863699
1631118292163,-0.28609,-0.405406,-0.863699
1631118292173,-0.286151,-0.404918,-0.864004
1631118292182,-0.287066,-0.404003,-0.8635769999999999
1631118292192,-0.286944,-0.40443,-0.863333
1631118292201,-0.286639,-0.404064,-0.863943
1631118292211,-0.286883,-0.404003,-0.864614
1631118292221,-0.2867,-0.404369,-0.864431
1631118292230,-0.285541,-0.403759,-0.8641869999999999
1631118292240,-0.28590699999999997,-0.404003,-0.863394
1631118292249,-0.28529699999999997,-0.4026,-0.8635769999999999
1631118292259,-0.284565,-0.402539,-0.8626619999999999
1631118292269,-0.285053,-0.402966,-0.86254
1631118292278,-0.283711,-0.402539,-0.86315
1631118292288,-0.284626,-0.403088,-0.864248
1631118292297,-0.285114,-0.402783,-0.864065
1631118292307,-0.286578,-0.4026,-0.865163
1631118292317,-0.285541,-0.402478,-0.866261
1631118292326,-0.285358,-0.40138,-0.866322
1631118292336,-0.286334,-0.402234,-0.865651
1631118292345,-0.286029,-0.40272199999999997,-0.865163
1631118292355,-0.286151,-0.403515,-0.866871
1631118292365,-0.286151,-0.403881,-0.866444
1631118292374,-0.28548,-0.403698,-0.866566
1631118292384,-0.28560199999999997,-0.402844,-0.86742
1631118292393,-0.28609,-0.40363699999999997,-0.866444
1631118292403,-0.286151,-0.402356,-0.865346
1631118292413,-0.285419,-0.402234,-0.8651019999999999
1631118292422,-0.286334,-0.401563,-0.864736
1631118292432,-0.28560199999999997,-0.399611,-0.865773
1631118292441,-0.286944,-0.399184,-0.866688
1631118292451,-0.28621199999999997,-0.39833,-0.866261
1631118292461,-0.286883,-0.397354,-0.866139
1631118292470,-0.287432,-0.397232,-0.866871
1631118292480,-0.288164,-0.397354,-0.867176
1631118292489,-0.287676,-0.396866,-0.867969
1631118292499,-0.288103,-0.396561,-0.86864
1631118292509,-0.289018,-0.395158,-0.868152
1631118292518,-0.289872,-0.395463,-0.868091
1631118292528,-0.288652,-0.395829,-0.867176
1631118292537,-0.289384,-0.394914,-0.867481
1631118292547,-0.28914,-0.39283999999999997,-0.867542
1631118292557,-0.29036,-0.394426,-0.866932
1631118292566,-0.291153,-0.39436499999999997,-0.867786
1631118292576,-0.290604,-0.395097,-0.86864
1631118292585,-0.290543,-0.394731,-0.869555
1631118292595,-0.289201,-0.395768,-0.870958
1631118292605,-0.288774,-0.393572,-0.871507
1631118292614,-0.287981,-0.393206,-0.8699209999999999
1631118292624,-0.287615,-0.392779,-0.868457
1631118292633,-0.288164,-0.392352,-0.867542
1631118292643,-0.288408,-0.392657,-0.8647969999999999
1631118292653,-0.288774,-0.392169,-0.864248
1631118292662,-0.28853,-0.392047,-0.86437
1631118292672,-0.287798,-0.39222999999999997,-0.866139
1631118292681,-0.287066,-0.392108,-0.866688
1631118292691,-0.287188,-0.392779,-0.867176
1631118292701,-0.286578,-0.391742,-0.866749
1631118292710,-0.287127,-0.391193,-0.866261
1631118292720,-0.287615,-0.391559,-0.866383
1631118292729,-0.287981,-0.391559,-0.866627
1631118292739,-0.288652,-0.392962,-0.867054
1631118292749,-0.288469,-0.394792,-0.867969
1631118292758,-0.289201,-0.394426,-0.868579
1631118292768,-0.289079,-0.394609,-0.86986
1631118292777,-0.28975,-0.395402,-0.869616
1631118292787,-0.289445,-0.39588999999999996,-0.87047
1631118292797,-0.288896,-0.394426,-0.870775
1631118292806,-0.289872,-0.39344999999999997,-0.869433
1631118292816,-0.29097,-0.392352,-0.868884
1631118292825,-0.290787,-0.392474,-0.869189
1631118292835,-0.291824,-0.391559,-0.868091
1631118292845,-0.290543,-0.39009499999999997,-0.869616
1631118292854,-0.290055,-0.389546,-0.871812
1631118292864,-0.290116,-0.389058,-0.871812
1631118292873,-0.290726,-0.389729,-0.8720559999999999
1631118292883,-0.291214,-0.388814,-0.8723609999999999
1631118292893,-0.290726,-0.38948499999999997,-0.8708359999999999
1631118292902,-0.29097,-0.39039999999999997,-0.869555
1631118292912,-0.29036,-0.390644,-0.869311
1631118292921,-0.290665,-0.390156,-0.869555
1631118292931,-0.289628,-0.391071,-0.870592
1631118292941,-0.288896,-0.391132,-0.871385
1631118292950,-0.288347,-0.390522,-0.870897
1631118292960,-0.288896,-0.390949,-0.870775
1631118292969,-0.287859,-0.391498,-0.870043
1631118292979,-0.288347,-0.39131499999999997,-0.8702259999999999
1631118292989,-0.288286,-0.391254,-0.870165
1631118292998,-0.28731,-0.39222999999999997,-0.870592
1631118293008,-0.287371,-0.392413,-0.86986
1631118293017,-0.28590699999999997,-0.393267,-0.8699209999999999
1631118293027,-0.286883,-0.393572,-0.869128
1631118293037,-0.28590699999999997,-0.393511,-0.869433
1631118293046,-0.285846,-0.393267,-0.869799
1631118293056,-0.285419,-0.39344999999999997,-0.869738
1631118293065,-0.284504,-0.392962,-0.869128
1631118293075,-0.28438199999999997,-0.393267,-0.869616
1631118293085,-0.284504,-0.392047,-0.869494
1631118293094,-0.283833,-0.392779,-0.869494
1631118293104,-0.283955,-0.39222999999999997,-0.868823
1631118293113,-0.28285699999999997,-0.392718,-0.868152
1631118293123,-0.282979,-0.392657,-0.868213
1631118293133,-0.28316199999999997,-0.393023,-0.867969
1631118293142,-0.283528,-0.393816,-0.866688
1631118293152,-0.283589,-0.395402,-0.867176
1631118293161,-0.28365,-0.39588999999999996,-0.867664
1631118293171,-0.28377199999999997,-0.395707,-0.867786
1631118293181,-0.28346699999999997,-0.396622,-0.867786
1631118293190,-0.283284,-0.396927,-0.86803
1631118293200,-0.284016,-0.396744,-0.868518
1631118293209,-0.283833,-0.397964,-0.869372
1631118293219,-0.284321,-0.397293,-0.868823
1631118293229,-0.284626,-0.398513,-0.869128
1631118293238,-0.283711,-0.397781,-0.868335
1631118293248,-0.283345,-0.398086,-0.86803
1631118293257,-0.283284,-0.398391,-0.867847
1631118293267,-0.283101,-0.398574,-0.868518
1631118293277,-0.283528,-0.398757,-0.868701
1631118293286,-0.283345,-0.398391,-0.867908
1631118293296,-0.283894,-0.39711,-0.867481
1631118293305,-0.283955,-0.39772,-0.867359
1631118293315,-0.283284,-0.398025,-0.867603
1631118293325,-0.284016,-0.398452,-0.867786
1631118293334,-0.285114,-0.399184,-0.867908
1631118293344,-0.284504,-0.398879,-0.869067
1631118293353,-0.284016,-0.398635,-0.869128
1631118293363,-0.284809,-0.398757,-0.868396
1631118293373,-0.28438199999999997,-0.399916,-0.867969
1631118293382,-0.28468699999999997,-0.39936699999999997,-0.868335
1631118293392,-0.283955,-0.398025,-0.867908
1631118293401,-0.28548,-0.396378,-0.867481
1631118293411,-0.285724,-0.397476,-0.86803
1631118293421,-0.285724,-0.398696,-0.868579
1631118293430,-0.28590699999999997,-0.397293,-0.86864
1631118293440,-0.283711,-0.397964,-0.870897
1631118293449,-0.282735,-0.398513,-0.872544
1631118293459,-0.281881,-0.398391,-0.872239
1631118293469,-0.283223,-0.397659,-0.870714
1631118293478,-0.28499199999999997,-0.397903,-0.868274
1631118293488,-0.283528,-0.396317,-0.866566
1631118293497,-0.283833,-0.395829,-0.864614
1631118293507,-0.282796,-0.396256,-0.864858
1631118293517,-0.281576,-0.396317,-0.86559
1631118293526,-0.281271,-0.3965,-0.866688
1631118293536,-0.280539,-0.397354,-0.867542
1631118293545,-0.280539,-0.396744,-0.86742
1631118293555,-0.280478,-0.397232,-0.867786
1631118293565,-0.281454,-0.398086,-0.866322
1631118293574,-0.282735,-0.398696,-0.864919
1631118293584,-0.28163699999999997,-0.399489,-0.865895
1631118293593,-0.28224699999999997,-0.399184,-0.866566
1631118293603,-0.28304,-0.400648,-0.867603
1631118293613,-0.28243,-0.40016,-0.867237
1631118293622,-0.28316199999999997,-0.400038,-0.869189
1631118293632,-0.283345,-0.399794,-0.869677
1631118293641,-0.28304,-0.398452,-0.86986
1631118293651,-0.284443,-0.397171,-0.868518
1631118293661,-0.28548,-0.396744,-0.868396
1631118293670,-0.285175,-0.397293,-0.868091
1631118293680,-0.28487,-0.3965,-0.867237
1631118293689,-0.284321,-0.395768,-0.868091
1631118293699,-0.28438199999999997,-0.394731,-0.870348
1631118293709,-0.284504,-0.393816,-0.870714
1631118293718,-0.28438199999999997,-0.393816,-0.871568
1631118293728,-0.284138,-0.394243,-0.871385
1631118293737,-0.28468699999999997,-0.39466999999999997,-0.870104
1631118293747,-0.28487,-0.395646,-0.869372
1631118293757,-0.28499199999999997,-0.3965,-0.869433
1631118293766,-0.28499199999999997,-0.396439,-0.868823
1631118293776,-0.28407699999999997,-0.396073,-0.8699209999999999
1631118293785,-0.283894,-0.396622,-0.870043
1631118293795,-0.282735,-0.39711,-0.869738
1631118293805,-0.282064,-0.396561,-0.8708359999999999
1631118293814,-0.28285699999999997,-0.396561,-0.871324
1631118293824,-0.282369,-0.396622,-0.870897
1631118293833,-0.28194199999999997,-0.396012,-0.871202
1631118293843,-0.28285699999999997,-0.395646,-0.870958
1631118293853,-0.282308,-0.396744,-0.87047
1631118293862,-0.281576,-0.396622,-0.8702259999999999
1631118293872,-0.28194199999999997,-0.395768,-0.870104
1631118293881,-0.281454,-0.396134,-0.870165
1631118293891,-0.280173,-0.395219,-0.869189
1631118293901,-0.2806,-0.394548,-0.870592
1631118293910,-0.2806,-0.394548,-0.870897
1631118293920,-0.281088,-0.394487,-0.870287
1631118293929,-0.280173,-0.39466999999999997,-0.869067
1631118293939,-0.280539,-0.39405999999999997,-0.86986
1631118293949,-0.281149,-0.394182,-0.868152
1631118293958,-0.279929,-0.393816,-0.86925
1631118293968,-0.280295,-0.393816,-0.869555
1631118293977,-0.279685,-0.394304,-0.868274
1631118293987,-0.279746,-0.394304,-0.867664
1631118293997,-0.280844,-0.394731,-0.86742
1631118294006,-0.28182,-0.395402,-0.868457
1631118294016,-0.280295,-0.396683,-0.86803
1631118294025,-0.280478,-0.396317,-0.868823
1631118294035,-0.2806,-0.396622,-0.869128
1631118294045,-0.28041699999999997,-0.398025,-0.869494
1631118294054,-0.280783,-0.397903,-0.8699209999999999
1631118294064,-0.280478,-0.396988,-0.869433
1631118294073,-0.280783,-0.397537,-0.869006
1631118294083,-0.281576,-0.39772,-0.869494
1631118294093,-0.282674,-0.397903,-0.868579
1631118294102,-0.28255199999999997,-0.39833,-0.868152
1631118294112,-0.282064,-0.398208,-0.867664
1631118294121,-0.282064,-0.398452,-0.868579
1631118294131,-0.28194199999999997,-0.397415,-0.868518
1631118294141,-0.282918,-0.397354,-0.869067
1631118294150,-0.28243,-0.397964,-0.868335
1631118294160,-0.282918,-0.397842,-0.868213
1631118294169,-0.281881,-0.398025,-0.867664
1631118294179,-0.283406,-0.397964,-0.867786
1631118294189,-0.283894,-0.398269,-0.869006
1631118294198,-0.283406,-0.398574,-0.870043
1631118294208,-0.283223,-0.39833,-0.869372
1631118294217,-0.283223,-0.397232,-0.868762
1631118294227,-0.28407699999999997,-0.398147,-0.868274
1631118294237,-0.28426,-0.398818,-0.86986
1631118294246,-0.28377199999999997,-0.397598,-0.870409
1631118294256,-0.284565,-0.395463,-0.866993
1631118294265,-0.286456,-0.395524,-0.866566
1631118294275,-0.287127,-0.397293,-0.867725
1631118294285,-0.285541,-0.397842,-0.869189
1631118294294,-0.285785,-0.398452,-0.87047
1631118294304,-0.284565,-0.397781,-0.872544
1631118294313,-0.283284,-0.397781,-0.873032
1631118294323,-0.283711,-0.399123,-0.8723
1631118294333,-0.28346699999999997,-0.398452,-0.870104
1631118294342,-0.284565,-0.399123,-0.866261
1631118294352,-0.28426,-0.398269,-0.86437
1631118294361,-0.284443,-0.398513,-0.864004
1631118294371,-0.283589,-0.399306,-0.865468
1631118294381,-0.282491,-0.398696,-0.865895
1631118294390,-0.280966,-0.398452,-0.867176
1631118294400,-0.281576,-0.398818,-0.867359
1631118294409,-0.280966,-0.39833,-0.866871
1631118294419,-0.28182,-0.399001,-0.866017
1631118294429,-0.282186,-0.400221,-0.865895
1631118294438,-0.28224699999999997,-0.400221,-0.865468
1631118294448,-0.283284,-0.40089199999999997,-0.865163
1631118294457,-0.28346699999999997,-0.401258,-0.866078
1631118294467,-0.28377199999999997,-0.403698,-0.866749
1631118294477,-0.284565,-0.40272199999999997,-0.867908
1631118294486,-0.283711,-0.40180699999999997,-0.869128
1631118294496,-0.28346699999999997,-0.402051,-0.868701
1631118294505,-0.28487,-0.401075,-0.868396
1631118294515,-0.285358,-0.39936699999999997,-0.867542
1631118294525,-0.28548,-0.399184,-0.866688
1631118294534,-0.286334,-0.398818,-0.865224
1631118294544,-0.285724,-0.39894,-0.865956
1631118294553,-0.28548,-0.399306,-0.868884
1631118294563,-0.285724,-0.398818,-0.86803
1631118294573,-0.286395,-0.398696,-0.868884
1631118294582,-0.28560199999999997,-0.399428,-0.867847
1631118294592,-0.287371,-0.398574,-0.86681
1631118294601,-0.28731,-0.399245,-0.866566
1631118294611,-0.287005,-0.399428,-0.865834
1631118294621,-0.286456,-0.400099,-0.867054
1631118294630,-0.286151,-0.400953,-0.867664
1631118294640,-0.285663,-0.400709,-0.869006
1631118294649,-0.28621199999999997,-0.40119699999999997,-0.869372
1631118294659,-0.28590699999999997,-0.399916,-0.8702259999999999
1631118294669,-0.286151,-0.399001,-0.8708359999999999
1631118294678,-0.284321,-0.399794,-0.870287
1631118294688,-0.285175,-0.39833,-0.869006
1631118294697,-0.28499199999999997,-0.397049,-0.868518
1631118294707,-0.28438199999999997,-0.396378,-0.868945
1631118294717,-0.283223,-0.396317,-0.868091
