timestamp,ax,ay,az
1631118993676,-0.010735999999999999,0.43066,0.8973099999999999
1631118993686,-0.010858,0.433344,0.896639
1631118993695,-0.009516,0.431209,0.8994449999999999
1631118993705,-0.0075639999999999995,0.429989,0.900909
1631118993715,-0.006161,0.426207,0.901641
1631118993724,-0.004331,0.423218,0.903227
1631118993734,-0.002257,0.420168,0.9058499999999999
1631118993743,0.0006709999999999999,0.417606,0.9070699999999999
1631118993753,0.002562,0.41297,0.905118
1631118993763,0.001586,0.409981,0.9021899999999999
1631118993772,0.000366,0.40992,0.9015799999999999
1631118993782,0.00042699999999999997,0.410469,0.901031
1631118993791,-0.000366,0.41290899999999997,0.901946
1631118993801,0.000183,0.414312,0.901702
1631118993811,0.00061,0.41534899999999997,0.901214
1631118993820,0.0023179999999999997,0.41443399999999997,0.902434
1631118993830,0.0028669999999999998,0.412421,0.903837
1631118993839,0.00488,0.410103,0.907131
1631118993849,0.00549,0.409005,0.909937
1631118993859,0.0075639999999999995,0.409432,0.913719
1631118993868,0.009333,0.406626,0.916098
1631118993878,0.010369999999999999,0.40272199999999997,0.917196
1631118993887,0.011041,0.398574,0.9192089999999999
1631118993897,0.010614,0.393938,0.9211
1631118993907,0.010369999999999999,0.389729,0.923296
1631118993916,0.008845,0.389363,0.923357
1631118993926,0.007625,0.38674,0.921771
1631118993935,0.006039,0.392474,0.924272
1631118993945,0.007808,0.398696,0.923113
1631118993955,0.006222,0.404064,0.920063
1631118993964,0.002989,0.406565,0.918782
1631118993974,0.002562,0.40821199999999996,0.917135
1631118271004,-0.10577399999999999,0.65453,0.7397469999999999
1631118271014,-0.104188,0.656604,0.7385269999999999
1631118271024,-0.1037,0.658251,0.73688
1631118271033,-0.102541,0.659227,0.7357819999999999
1631118271043,-0.10309,0.660081,0.732671
1631118271052,-0.10345599999999999,0.661606,0.73078
1631118271062,-0.1037,0.662826,0.730536
1631118271072,-0.103944,0.6652049999999999,0.72956
1631118271081,-0.102724,0.668377,0.729621
1631118271091,-0.10187,0.669353,0.72834
1631118271100,-0.10144299999999999,0.671305,0.728218
1631118271110,-0.100101,0.673806,0.72834
1631118271120,-0.099674,0.673806,0.7272419999999999
1631118271129,-0.100345,0.675087,0.725107
1631118271139,-0.10126,0.676429,0.724192
1631118271148,-0.101809,0.676612,0.721386
1631118271158,-0.101626,0.676185,0.720349
1631118271168,-0.101687,0.675636,0.720898
1631118271177,-0.10187,0.676246,0.720044
1631118271187,-0.099979,0.677771,0.719556
1631118271196,-0.10052799999999999,0.679723,0.719556
1631118271206,-0.100284,0.6825289999999999,0.718336
1631118271216,-0.099796,0.6831389999999999,0.7166279999999999
1631118271225,-0.10004,0.684481,0.718031
1631118271235,-0.10052799999999999,0.684298,0.7184579999999999
1631118271244,-0.100101,0.682956,0.718702
1631118271254,-0.101382,0.682285,0.720532
1631118271264,-0.102114,0.67954,0.721386
1631118271273,-0.101992,0.67771,0.723033
1631118271283,-0.102297,0.676673,0.724314
1631118271292,-0.102419,0.677283,0.724802
1631118271302,-0.103273,0.67649,0.725351
1631118271312,-0.10309,0.676734,0.725961
1631118271321,-0.102175,0.678747,0.726754
1631118271331,-0.10113799999999999,0.678991,0.72773
1631118271340,-0.100162,0.6771,0.728096
1631118271350,-0.102541,0.674538,0.728889
1631118271360,-0.10406599999999999,0.671732,0.72834
1631118271369,-0.104859,0.6700849999999999,0.7305969999999999
1631118271379,-0.10467599999999999,0.670512,0.731268
1631118271388,-0.10498099999999999,0.670268,0.732854
1631118271398,-0.10577399999999999,0.670634,0.733403
1631118271408,-0.10577399999999999,0.6700849999999999,0.734806
1631118271417,-0.105286,0.6700849999999999,0.736331
1631118271427,-0.104432,0.668743,0.737856
1631118271436,-0.103517,0.668743,0.7381
1631118271446,-0.1037,0.667889,0.738405
1631118271456,-0.103944,0.665754,0.73871
1631118271465,-0.105103,0.6655099999999999,0.739015
1631118271475,-0.104005,0.6645949999999999,0.737978
1631118271484,-0.103944,0.662887,0.73749
1631118271494,-0.104432,0.663558,0.7381
1631118271504,-0.10315099999999999,0.6648999999999999,0.737246
1631118271513,-0.101504,0.666181,0.737673
1631118271523,-0.101077,0.668377,0.737673
1631118271532,-0.10083299999999999,0.667706,0.736575
1631118271542,-0.10205299999999999,0.668987,0.7345619999999999
1631118271552,-0.101321,0.668194,0.732
1631118271561,-0.10052799999999999,0.67039,0.73078
1631118271571,-0.101382,0.672464,0.730536
1631118271580,-0.099796,0.673806,0.729926
1631118271590,-0.099613,0.67405,0.729743
1631118271600,-0.10022299999999999,0.672952,0.7287669999999999
1631118271609,-0.099979,0.671732,0.72651
1631118271619,-0.101077,0.672342,0.726449
1631118271628,-0.100284,0.671854,0.7275469999999999
1631118271638,-0.100406,0.671915,0.726998
1631118271648,-0.099735,0.672525,0.72651
1631118271657,-0.099857,0.673135,0.72468
1631118271667,-0.10052799999999999,0.674294,0.724192
1631118271676,-0.10144299999999999,0.675331,0.724009
1631118271686,-0.101687,0.676246,0.724375
1631118271696,-0.102175,0.676368,0.725534
1631118271705,-0.10309,0.676856,0.726205
1631118271715,-0.10315099999999999,0.677039,0.726022
1631118271724,-0.103334,0.677527,0.726449
1631118271734,-0.103883,0.677283,0.725534
1631118271744,-0.104249,0.677527,0.725595
1631118271753,-0.104737,0.678198,0.725107
1631118271763,-0.10577399999999999,0.680211,0.723826
1631118271772,-0.10760399999999999,0.679967,0.722179
1631118271782,-0.108092,0.679296,0.720532
1631118271792,-0.109129,0.679418,0.719434
1631118271801,-0.109861,0.6797839999999999,0.7190679999999999
1631118271811,-0.111264,0.680211,0.7190679999999999
1631118271820,-0.111447,0.680455,0.719495
1631118271830,-0.111996,0.68137,0.719007
1631118271840,-0.111996,0.680882,0.718641
1631118271849,-0.113277,0.681065,0.7184579999999999
1631118271859,-0.11345999999999999,0.681736,0.718885
1631118271868,-0.114558,0.6831389999999999,0.719129
1631118271878,-0.115351,0.6828339999999999,0.718092
1631118271888,-0.115534,0.683383,0.71614
1631118271897,-0.116266,0.683322,0.715469
1631118271907,-0.11699799999999999,0.683871,0.7157129999999999
1631118271916,-0.118218,0.682895,0.7163229999999999
1631118271926,-0.11901099999999999,0.6834439999999999,0.716262
1631118271936,-0.118889,0.6828339999999999,0.717299
1631118271945,-0.11931599999999999,0.682468,0.718336
1631118271955,-0.120292,0.681736,0.720044
1631118271964,-0.121817,0.681492,0.72102
1631118271974,-0.123464,0.681797,0.72041
1631118271984,-0.125538,0.681858,0.719678
1631118271993,-0.126514,0.682163,0.721081
1631118272003,-0.126758,0.682102,0.721996
1631118272012,-0.127612,0.682468,0.721142
1631118272022,-0.128405,0.6822239999999999,0.72041
1631118272032,-0.128832,0.681797,0.719617
1631118272041,-0.128039,0.68137,0.72102
1631118272051,-0.127795,0.682407,0.721386
1631118272060,-0.12834399999999999,0.680028,0.719495
1631118272070,-0.129076,0.6791739999999999,0.718275
1631118272080,-0.127429,0.682102,0.719007
1631118272089,-0.127612,0.683322,0.720837
1631118272099,-0.126941,0.6825289999999999,0.721752
1631118272108,-0.126392,0.678503,0.720349
1631118272118,-0.127917,0.675636,0.720166
1631118272128,-0.128222,0.673867,0.719678
1631118272137,-0.127368,0.675392,0.720044
1631118272147,-0.126026,0.677161,0.720959
1631118272156,-0.126331,0.676673,0.72285
1631118272166,-0.125782,0.677161,0.723155
1631118272176,-0.124806,0.676795,0.724985
1631118272185,-0.124318,0.675514,0.723948
1631118272195,-0.12444,0.675392,0.724436
1631118272204,-0.125416,0.674599,0.723094
1631118272214,-0.125904,0.673928,0.721996
1631118272224,-0.125904,0.674477,0.722362
1631118272233,-0.125416,0.673379,0.72285
1631118272243,-0.126026,0.674172,0.722301
1631118272252,-0.125599,0.674843,0.722972
1631118272262,-0.124745,0.676002,0.725412
1631118272272,-0.124928,0.67771,0.7269369999999999
1631118272281,-0.12456199999999999,0.676856,0.72895
1631118272291,-0.12456199999999999,0.675941,0.7278519999999999
1631118272300,-0.125294,0.677771,0.7259
1631118272310,-0.125965,0.678686,0.726266
1631118272320,-0.124928,0.678686,0.7272419999999999
1631118272329,-0.12395199999999999,0.679113,0.725839
1631118272339,-0.12486699999999999,0.676917,0.724985
1631118272348,-0.125172,0.674843,0.723948
1631118272358,-0.12444,0.674721,0.723399
1631118272368,-0.124623,0.675331,0.723643
1631118272377,-0.12425699999999999,0.675758,0.724497
1631118272387,-0.12395199999999999,0.67466,0.72468
1631118272396,-0.12395199999999999,0.672037,0.725412
1631118272406,-0.122976,0.671366,0.7259
1631118272416,-0.12285399999999999,0.670878,0.726693
1631118272425,-0.12261,0.6700849999999999,0.727181
1631118272435,-0.12254899999999999,0.669292,0.72773
1631118272444,-0.12261,0.668438,0.728706
1631118272454,-0.122793,0.667889,0.729438
1631118272464,-0.122427,0.668072,0.729804
1631118272473,-0.12193899999999999,0.668743,0.730109
1631118272483,-0.12193899999999999,0.667279,0.731268
1631118272492,-0.121756,0.6664249999999999,0.731695
1631118272502,-0.121817,0.665022,0.731451
1631118272512,-0.120963,0.665998,0.73139
1631118272521,-0.121756,0.665022,0.732183
1631118272531,-0.120841,0.6664249999999999,0.732549
1631118272540,-0.12139,0.6664249999999999,0.73261
1631118272550,-0.120841,0.666059,0.733769
1631118272560,-0.119438,0.666242,0.732854
1631118272569,-0.119804,0.665144,0.734928
1631118272579,-0.118645,0.663741,0.735111
1631118272588,-0.12023099999999999,0.663741,0.7351719999999999
1631118272598,-0.118584,0.662399,0.734501
1631118272608,-0.119255,0.6630699999999999,0.7351719999999999
1631118272617,-0.118767,0.663192,0.73505
1631118272627,-0.118584,0.663924,0.733586
1631118272636,-0.118462,0.664046,0.73261
1631118272646,-0.119438,0.6636799999999999,0.732183
1631118272656,-0.11834,0.664473,0.731878
1631118272665,-0.119377,0.664717,0.731756
1631118272675,-0.11895,0.664717,0.7305969999999999
1631118272684,-0.11931599999999999,0.664717,0.7327319999999999
1631118272694,-0.118279,0.666303,0.73383
1631118272704,-0.11773,0.6664249999999999,0.732976
1631118272713,-0.118523,0.666974,0.73322
1631118272723,-0.119377,0.666913,0.7339519999999999
1631118272732,-0.119743,0.667584,0.734501
1631118272742,-0.11956,0.668438,0.734745
1631118272752,-0.120841,0.667706,0.732976
1631118272761,-0.121451,0.665266,0.732793
1631118272771,-0.123586,0.664351,0.730536
1631118272780,-0.122488,0.665388,0.73078
1631118272790,-0.122,0.668987,0.7321219999999999
1631118272800,-0.121268,0.668682,0.731451
1631118272809,-0.12285399999999999,0.670817,0.730963
1631118272819,-0.122488,0.67283,0.732244
1631118272828,-0.12261,0.673928,0.732854
1631118272838,-0.122915,0.671549,0.7327319999999999
1631118272848,-0.123769,0.667828,0.730109
1631118272857,-0.125172,0.666181,0.729011
1631118272867,-0.124684,0.6652049999999999,0.728096
1631118272876,-0.123464,0.667096,0.728401
1631118272886,-0.122732,0.669658,0.7290719999999999
1631118272896,-0.122976,0.671244,0.729255
1631118272905,-0.122793,0.670634,0.7287669999999999
1631118272915,-0.123281,0.669841,0.727486
1631118272924,-0.123342,0.668316,0.7281569999999999
1631118272934,-0.12425699999999999,0.666486,0.727913
1631118272944,-0.123281,0.664839,0.7269369999999999
1631118272953,-0.123708,0.6642899999999999,0.726632
1631118272963,-0.12383,0.6648999999999999,0.726998
1631118272972,-0.123342,0.664778,0.726998
1631118272982,-0.12315899999999999,0.665632,0.727425
1631118272992,-0.123708,0.664656,0.7278519999999999
1631118273001,-0.12395199999999999,0.665937,0.728584
1631118273011,-0.12444,0.666486,0.729804
1631118273020,-0.124928,0.666791,0.731268
1631118273030,-0.124806,0.667401,0.7321219999999999
1631118273040,-0.12486699999999999,0.6697799999999999,0.732854
1631118273049,-0.124989,0.670024,0.7339519999999999
1631118273059,-0.124196,0.670329,0.734074
1631118273068,-0.12254899999999999,0.672464,0.733586
1631118273078,-0.12261,0.670268,0.73322
1631118273088,-0.12364699999999999,0.668926,0.731695
1631118273097,-0.122732,0.668133,0.732244
1631118273107,-0.123281,0.667096,0.7318169999999999
1631118273116,-0.122366,0.666608,0.7321219999999999
1631118273126,-0.121817,0.665327,0.731573
1631118273136,-0.121512,0.664534,0.732
1631118273145,-0.122366,0.663436,0.7309019999999999
1631118273155,-0.12132899999999999,0.662521,0.731146
1631118273164,-0.121451,0.6624599999999999,0.732793
1631118273174,-0.12163399999999999,0.661118,0.733769
1631118273184,-0.120963,0.661484,0.7357819999999999
1631118273193,-0.120841,0.6609349999999999,0.736514
1631118273203,-0.121085,0.661301,0.73871
1631118273212,-0.121268,0.662887,0.739259
1631118273222,-0.121085,0.662521,0.73871
1631118273232,-0.121146,0.663253,0.738893
1631118273241,-0.121512,0.6642899999999999,0.738466
1631118273251,-0.123525,0.664229,0.736636
1631118273260,-0.12322,0.664656,0.736819
1631118273270,-0.12315899999999999,0.664412,0.736575
1631118273280,-0.122061,0.6639849999999999,0.7360869999999999
1631118273289,-0.12315899999999999,0.663497,0.734684
1631118273299,-0.12383,0.6612399999999999,0.733586
1631118273308,-0.123891,0.662521,0.734379
1631118273318,-0.123464,0.662338,0.733769
1631118273328,-0.12364699999999999,0.662521,0.734379
1631118273337,-0.124013,0.663436,0.733708
1631118273347,-0.124196,0.663619,0.7327319999999999
1631118273356,-0.12425699999999999,0.6636799999999999,0.733098
1631118273366,-0.123342,0.6627649999999999,0.732854
1631118273376,-0.124379,0.6618499999999999,0.7330369999999999
1631118273385,-0.124623,0.661972,0.733708
1631118273395,-0.124501,0.6597149999999999,0.733403
1631118273404,-0.12383,0.659654,0.7342569999999999
1631118273414,-0.12456199999999999,0.659898,0.735294
1631118273424,-0.124318,0.659959,0.736148
1631118273433,-0.124501,0.660752,0.735721
1631118273443,-0.12383,0.660447,0.736148
1631118273452,-0.123708,0.660081,0.7357819999999999
1631118273462,-0.122793,0.659654,0.736575
1631118273472,-0.122915,0.659654,0.736758
1631118273481,-0.123037,0.661301,0.737734
1631118273491,-0.12224399999999999,0.659593,0.736819
1631118273500,-0.122671,0.657214,0.73749
1631118273510,-0.122427,0.656421,0.7382219999999999
1631118273520,-0.12254899999999999,0.655933,0.738954
1631118273529,-0.122915,0.657641,0.740296
1631118273539,-0.121512,0.657336,0.740418
1631118273548,-0.12139,0.655628,0.740174
1631118273558,-0.12163399999999999,0.654042,0.739686
1631118273568,-0.122488,0.655079,0.741516
1631118273577,-0.121695,0.656299,0.74176
1631118273587,-0.122122,0.655994,0.741089
1631118273596,-0.12254899999999999,0.657092,0.741333
1631118273606,-0.122183,0.658617,0.74237
1631118273616,-0.12078,0.658129,0.743163
1631118273625,-0.12078,0.656177,0.74298
1631118273635,-0.123464,0.653005,0.74176
1631118273644,-0.12456199999999999,0.65026,0.742004
1631118273654,-0.125111,0.64965,0.742614
1631118273664,-0.125355,0.650321,0.744017
1631118273673,-0.124806,0.651175,0.745542
1631118273683,-0.125111,0.652578,0.747921
1631118273692,-0.12425699999999999,0.652456,0.74847
1631118273702,-0.123708,0.650809,0.749873
1631118273712,-0.12425699999999999,0.650321,0.750849
1631118273721,-0.125111,0.647881,0.750422
1631118273731,-0.126026,0.647576,0.750178
1631118273740,-0.125843,0.647393,0.748836
1631118273750,-0.126941,0.648003,0.747677
1631118273760,-0.126819,0.648186,0.746701
1631118273769,-0.127124,0.648979,0.746213
1631118273779,-0.127185,0.650626,0.746945
1631118273788,-0.126941,0.650992,0.746274
1631118273798,-0.12688,0.650443,0.747677
1631118273808,-0.127307,0.64965,0.747311
1631118273817,-0.128039,0.649345,0.747494
1631118273827,-0.12864899999999999,0.646905,0.74664
1631118273836,-0.128222,0.646539,0.747677
1631118273846,-0.12871,0.646722,0.747494
1631118273856,-0.12895399999999999,0.64782,0.747799
1631118273865,-0.127917,0.648735,0.747921
1631118273875,-0.128832,0.649345,0.748165
1631118273884,-0.12932,0.64721,0.744932
1631118273894,-0.131638,0.646478,0.743712
1631118273904,-0.131394,0.646478,0.744444
1631118273913,-0.132065,0.646234,0.746274
1631118273923,-0.131699,0.647515,0.747311
1631118273932,-0.13115,0.648735,0.748348
1631118273942,-0.131089,0.649467,0.748958
1631118273952,-0.132675,0.65087,0.74847
1631118273961,-0.133773,0.65148,0.747372
1631118273971,-0.13541999999999998,0.653127,0.747067
1631118273980,-0.135298,0.651968,0.746091
1631118273990,-0.136457,0.651175,0.7431019999999999
1631118274000,-0.136823,0.650138,0.73993
1631118274009,-0.136152,0.649894,0.7397469999999999
1631118274019,-0.13572499999999998,0.650443,0.738588
1631118274028,-0.135786,0.65087,0.739503
1631118274038,-0.13602999999999998,0.650748,0.7385269999999999
1631118274048,-0.134688,0.651602,0.738405
1631118274057,-0.137067,0.652517,0.738039
1631118274067,-0.13725,0.653737,0.738771
1631118274076,-0.137311,0.654774,0.736026
1631118274086,-0.139141,0.6554449999999999,0.733769
1631118274096,-0.14097099999999999,0.653981,0.7321219999999999
1631118274105,-0.142923,0.655628,0.731268
1631118274115,-0.142862,0.658068,0.732366
1631118274124,-0.143411,0.661118,0.734989
1631118274134,-0.143777,0.663741,0.73688
1631118274144,-0.143045,0.665693,0.737368
1631118274153,-0.142862,0.664778,0.7357819999999999
1631118274163,-0.142008,0.664229,0.7351719999999999
1631118274172,-0.14213,0.665632,0.73444
1631118274182,-0.142252,0.665266,0.733769
1631118274192,-0.14188599999999998,0.665083,0.733525
1631118274201,-0.142984,0.664534,0.733159
1631118274211,-0.141337,0.6642899999999999,0.731878
1631118274220,-0.140605,0.663802,0.732976
1631118274230,-0.139324,0.662216,0.732
1631118274240,-0.13847,0.6618499999999999,0.733525
1631118274249,-0.136701,0.659959,0.7339519999999999
1631118274259,-0.13633499999999998,0.659837,0.7345619999999999
1631118274268,-0.13541999999999998,0.660264,0.736514
1631118274278,-0.134627,0.660203,0.736941
1631118274288,-0.133895,0.659654,0.7381
1631118274297,-0.133224,0.660691,0.738344
1631118274307,-0.132492,0.660569,0.7394419999999999
1631118274316,-0.130845,0.6600199999999999,0.7400519999999999
1631118274326,-0.129991,0.659349,0.739686
1631118274336,-0.129015,0.658007,0.739015
1631118274345,-0.12895399999999999,0.6578849999999999,0.739198
1631118274355,-0.128161,0.6581899999999999,0.740235
1631118274364,-0.126697,0.656909,0.739259
1631118274374,-0.127551,0.657702,0.737063
1631118274384,-0.127063,0.659349,0.736148
1631118274393,-0.124806,0.660874,0.737795
1631118274403,-0.123769,0.6600199999999999,0.737429
1631118274412,-0.124684,0.656604,0.736636
1631118274422,-0.125599,0.654774,0.734989
1631118274432,-0.125843,0.653371,0.73444
1631118274441,-0.125904,0.654408,0.7342569999999999
1631118274451,-0.125538,0.656421,0.735416
1631118274460,-0.12364699999999999,0.6575799999999999,0.736331
1631118274470,-0.124013,0.657763,0.737246
1631118274480,-0.124135,0.6581899999999999,0.737673
1631118274489,-0.123403,0.656543,0.738466
1631118274499,-0.122671,0.656116,0.737673
1631118274508,-0.122366,0.656848,0.738466
1631118274518,-0.121817,0.6569699999999999,0.737551
1631118274528,-0.121817,0.6566649999999999,0.7370019999999999
1631118274537,-0.12193899999999999,0.655567,0.7348669999999999
1631118274547,-0.121451,0.655994,0.7336469999999999
1631118274556,-0.12078,0.6566649999999999,0.73383
1631118274566,-0.120536,0.6569699999999999,0.733464
1631118274576,-0.11962099999999999,0.658556,0.733586
1631118274585,-0.119438,0.657092,0.73444
1631118274595,-0.120292,0.656299,0.7342569999999999
1631118274604,-0.119499,0.653066,0.734379
1631118274614,-0.119804,0.650138,0.733769
1631118274624,-0.11931599999999999,0.650321,0.7354769999999999
1631118274633,-0.118462,0.65148,0.7382219999999999
1631118274643,-0.116754,0.65148,0.741821
1631118274652,-0.116327,0.651175,0.7431019999999999
1631118274662,-0.11730299999999999,0.648491,0.745481
1631118274672,-0.118157,0.645075,0.747555
1631118274681,-0.118035,0.640439,0.747189
1631118274691,-0.11577799999999999,0.636047,0.748348
1631118274700,-0.11516799999999999,0.633729,0.746579
1631118274710,-0.11779099999999999,0.63196,0.745786
1631118274720,-0.119438,0.632143,0.745969
1631118274729,-0.11840099999999999,0.631106,0.749629
1631118274739,-0.11870599999999999,0.626958,0.751032
1631118274748,-0.118828,0.62342,0.752374
1631118274758,-0.12163399999999999,0.622078,0.753228
1631118274768,-0.123708,0.621346,0.756827
1631118274777,-0.12627,0.622383,0.762622
1631118274787,-0.12749,0.622261,0.770003
1631118274796,-0.13054,0.619821,0.773114
1631118274806,-0.13298,0.616344,0.775676
1631118274816,-0.13359,0.6156119999999999,0.778848
1631118274825,-0.134566,0.616466,0.783972
1631118274835,-0.135237,0.61793,0.791414
1631118274844,-0.13602999999999998,0.615978,0.79544
1631118274854,-0.137006,0.610854,0.796843
1631118274864,-0.1403,0.606035,0.795806
1631118274873,-0.143045,0.599752,0.794403
1631118274883,-0.146095,0.5894429999999999,0.7908649999999999
1631118274892,-0.147559,0.584197,0.792024
1631118274902,-0.148596,0.579988,0.794708
1631118274912,-0.148413,0.575413,0.7987339999999999
1631118274921,-0.151585,0.572302,0.806115
1631118274931,-0.151097,0.572363,0.811727
1631118274940,-0.15128,0.573095,0.813862
1631118274950,-0.149328,0.575169,0.81313
1631118274960,-0.14865699999999998,0.57584,0.809958
1631118274969,-0.15006,0.571875,0.8063589999999999
1631118274979,-0.151097,0.569252,0.8023939999999999
1631118274988,-0.150609,0.5632739999999999,0.7993439999999999
1631118274998,-0.150731,0.558577,0.798551
1631118275008,-0.151158,0.554734,0.80154
1631118275017,-0.150487,0.550098,0.806481
1631118275027,-0.150731,0.547719,0.814106
1631118275036,-0.149938,0.548695,0.823012
1631118275046,-0.150548,0.553026,0.830454
1631118275056,-0.15067,0.555588,0.835944
1631118275065,-0.149999,0.557479,0.833382
1631118275075,-0.14945,0.555466,0.826611
1631118275084,-0.15128,0.550281,0.818498
1631118275094,-0.150182,0.545279,0.8118489999999999
1631118275104,-0.148718,0.542534,0.807701
1631118275113,-0.148474,0.5428999999999999,0.8109339999999999
1631118275123,-0.1464,0.542778,0.81557
1631118275132,-0.144936,0.543876,0.821548
1631118275142,-0.14188599999999998,0.546743,0.829112
1631118275152,-0.14097099999999999,0.547231,0.831186
1631118275161,-0.141642,0.545157,0.8297829999999999
1631118275171,-0.142557,0.543937,0.829661
1631118275180,-0.14036099999999999,0.544669,0.8291729999999999
1631118275190,-0.139812,0.5419849999999999,0.827404
1631118275200,-0.139202,0.538874,0.824964
1631118275209,-0.140117,0.533384,0.82411
1631118275219,-0.139507,0.532164,0.8276479999999999
1631118275228,-0.13786,0.532164,0.832955
1631118275238,-0.134932,0.532469,0.837042
1631118275248,-0.132736,0.529724,0.838811
1631118275257,-0.13237,0.528931,0.842349
1631118275267,-0.131577,0.531371,0.844606
1631118275276,-0.13419999999999999,0.532591,0.844362
1631118275286,-0.13480999999999999,0.532164,0.844728
1631118275296,-0.135481,0.530395,0.841617
1631118275305,-0.136396,0.531615,0.8377129999999999
1631118275315,-0.136091,0.533445,0.83692
1631118275324,-0.13480999999999999,0.533506,0.835029
1631118275334,-0.132919,0.531554,0.8343579999999999
1631118275344,-0.132248,0.532896,0.834236
1631118275353,-0.128893,0.535641,0.836127
1631118275363,-0.128527,0.536922,0.839177
1631118275372,-0.129137,0.5383249999999999,0.844057
1631118275382,-0.12993,0.540094,0.848815
1631118275392,-0.131638,0.543632,0.851194
1631118275401,-0.131211,0.548268,0.851438
1631118275411,-0.129625,0.552538,0.848754
1631118275420,-0.127978,0.554002,0.842776
1631118275430,-0.12505,0.547353,0.82838
1631118275440,-0.123769,0.5422899999999999,0.821121
1631118275449,-0.12261,0.542839,0.821731
1631118275459,-0.12017,0.541253,0.8235
1631118275468,-0.117181,0.540338,0.828746
1631118275478,-0.11547299999999999,0.540338,0.833199
1631118275488,-0.114924,0.541741,0.8361879999999999
1631118275497,-0.113887,0.541802,0.8380179999999999
1631118275507,-0.113948,0.5428999999999999,0.838262
1631118275516,-0.115046,0.543937,0.8346629999999999
1631118275526,-0.116205,0.544242,0.829234
1631118275536,-0.11529,0.542961,0.819169
1631118275545,-0.11712,0.538447,0.808128
1631118275555,-0.116022,0.5398499999999999,0.806298
1631118275564,-0.114558,0.547719,0.8136789999999999
1631118275574,-0.113277,0.555161,0.820267
1631118275584,-0.111569,0.564067,0.824476
1631118275593,-0.108214,0.5693739999999999,0.8264279999999999
1631118275603,-0.105469,0.576694,0.829295
1631118275612,-0.102541,0.580659,0.828136
1631118275622,-0.09820999999999999,0.5845629999999999,0.825025
1631118275632,-0.093391,0.584136,0.815631
1631118275641,-0.087047,0.578768,0.801662
1631118275651,-0.080093,0.573278,0.792207
1631118275660,-0.073505,0.567361,0.7853749999999999
1631118275670,-0.068076,0.562237,0.785619
1631118275680,-0.063745,0.558455,0.792695
1631118275689,-0.057096,0.552904,0.800686
1631118275699,-0.051118,0.546804,0.8042239999999999
1631118275708,-0.04575,0.542534,0.8054439999999999
1631118275718,-0.040077,0.541863,0.805688
1631118275728,-0.035623999999999996,0.543937,0.806481
1631118275737,-0.029585,0.550281,0.811117
1631118275747,-0.024461,0.557418,0.81496
1631118275756,-0.019398,0.559858,0.815692
1631118275766,-0.014884,0.560651,0.815326
1631118275776,-0.01098,0.559858,0.818559
1631118275785,-0.00671,0.559858,0.822585
1631118275795,-0.0030499999999999998,0.559675,0.8276479999999999
1631118275804,0.0017079999999999999,0.558272,0.832589
1631118275814,0.00549,0.556564,0.833199
1631118275824,0.009882,0.555649,0.830637
1631118275833,0.014091,0.556686,0.826489
1631118275843,0.018605,0.559004,0.82167
1631118275852,0.021228,0.559858,0.815143
1631118275862,0.023302,0.559248,0.80947
1631118275872,0.025436999999999998,0.555588,0.801418
1631118275881,0.026474,0.550586,0.795867
1631118275891,0.028059999999999998,0.547292,0.794342
1631118275900,0.029768,0.544181,0.7991
1631118275910,0.031598,0.543266,0.805871
1631118275920,0.035623999999999996,0.543632,0.812947
1631118275929,0.038491,0.545523,0.818437
1631118275939,0.039589,0.551928,0.826611
1631118275948,0.042212,0.55876,0.835151
1631118275958,0.044164,0.561261,0.838262
1631118275968,0.043981,0.55693,0.83448
1631118275977,0.041358,0.554856,0.831186
1631118275987,0.039345,0.553941,0.83326
1631118275996,0.038796,0.550708,0.834785
1631118276006,0.038369,0.549732,0.83448
1631118276016,0.036722,0.546316,0.834907
1631118276025,0.035563,0.544974,0.839055
1631118276035,0.034404,0.544364,0.843325
1631118276044,0.0305,0.546316,0.84363
1631118276054,0.028548,0.548451,0.844667
1631118276064,0.026168999999999998,0.550098,0.842959
1631118276073,0.023912,0.547048,0.836005
1631118276083,0.022692,0.541741,0.825025
1631118276092,0.018971,0.543083,0.819779
1631118276102,0.015555,0.545462,0.821182
1631118276112,0.013481,0.547719,0.823927
1631118276121,0.011529,0.548695,0.829356
1631118276131,0.011833999999999999,0.547048,0.838201
1631118276140,0.011773,0.5465599999999999,0.844911
1631118276150,0.010369999999999999,0.548146,0.84668
1631118276160,0.010369999999999999,0.550586,0.846558
1631118276169,0.011467999999999999,0.548756,0.83753
1631118276179,0.009821,0.545584,0.825574
1631118276188,0.0057339999999999995,0.5428999999999999,0.818925
1631118276198,0.002989,0.541741,0.819718
1631118276208,0.001586,0.5410699999999999,0.8224629999999999
1631118276217,-6.1e-05,0.544486,0.82716
1631118276227,-0.0021349999999999997,0.550586,0.833565
1631118276236,-0.0030499999999999998,0.557113,0.837286
1631118276246,-0.0040869999999999995,0.563213,0.838079
1631118276256,-0.004331,0.571082,0.837652
1631118276265,-0.004148,0.575169,0.829417
1631118276275,-0.002257,0.571692,0.819718
1631118276284,-0.004148,0.565897,0.809165
1631118276294,-0.0060999999999999995,0.563762,0.8060539999999999
1631118276304,-0.007137,0.56181,0.8075789999999999
1631118276313,-0.009028,0.557845,0.80581
1631118276323,-0.009699,0.552599,0.802455
1631118276332,-0.011895,0.545584,0.797453
1631118276342,-0.01281,0.541497,0.795928
1631118276352,-0.014152,0.543754,0.79788
1631118276361,-0.014091,0.5471699999999999,0.797758
1631118276371,-0.015555,0.552843,0.796172
1631118276380,-0.016897,0.556808,0.7914749999999999
1631118276390,-0.018117,0.558333,0.7850699999999999
1631118276400,-0.020557,0.5611389999999999,0.784033
1631118276409,-0.022509,0.564677,0.785802
1631118276419,-0.02318,0.569313,0.791597
1631118276428,-0.024827,0.574437,0.798917
1631118276438,-0.026413,0.577243,0.8051389999999999
1631118276448,-0.02745,0.57584,0.809348
1631118276457,-0.030866,0.571326,0.812093
1631118276467,-0.034159999999999996,0.568642,0.81618
1631118276476,-0.037087999999999996,0.5673,0.816241
1631118276486,-0.041907,0.566141,0.818132
1631118276496,-0.045933,0.5663239999999999,0.820267
1631118276505,-0.050447,0.568215,0.819596
1631118276515,-0.054473,0.5721189999999999,0.820694
1631118276524,-0.056669,0.579683,0.824476
1631118276534,-0.057462,0.584197,0.8285629999999999
1631118276544,-0.05734,0.589931,0.831796
1631118276553,-0.057583999999999996,0.593347,0.8334429999999999
1631118276563,-0.05978,0.5906629999999999,0.8325279999999999
1631118276572,-0.059962999999999995,0.589382,0.833504
1631118276582,-0.061854,0.58621,0.832589
1631118276592,-0.060146,0.585356,0.8337479999999999
1631118276601,-0.062647,0.584197,0.8331379999999999
1631118276611,-0.063989,0.582123,0.8325279999999999
1631118276620,-0.066612,0.579012,0.8300879999999999
1631118276630,-0.068991,0.577121,0.8267329999999999
1631118276640,-0.072163,0.574803,0.8236829999999999
1631118276649,-0.076006,0.576328,0.820755
1631118276659,-0.078812,0.576999,0.820084
1631118276668,-0.080947,0.577731,0.816729
1631118276678,-0.081618,0.578402,0.816241
1631118276688,-0.08204499999999999,0.578707,0.815326
1631118276697,-0.08064199999999999,0.577243,0.814167
1631118276707,-0.080764,0.573766,0.81313
1631118276716,-0.083326,0.569252,0.809165
1631118276726,-0.083875,0.563152,0.807823
1631118276736,-0.086315,0.559126,0.80764
1631118276745,-0.088328,0.55693,0.808677
1631118276755,-0.090341,0.557052,0.810751
1631118276764,-0.091927,0.557601,0.81191
1631118276774,-0.093025,0.55998,0.812642
1631118276784,-0.093879,0.563518,0.813435
1631118276793,-0.092903,0.567727,0.813618
1631118276803,-0.092781,0.56913,0.8109339999999999
1631118276812,-0.092842,0.568276,0.805688
1631118276822,-0.093025,0.566446,0.800137
1631118276832,-0.09265899999999999,0.563335,0.795928
1631118276841,-0.092598,0.559004,0.793366
1631118276851,-0.094916,0.558272,0.791963
1631118276860,-0.096258,0.55449,0.793244
1631118276870,-0.098393,0.554002,0.800015
1631118276880,-0.099491,0.555527,0.8060539999999999
1631118276889,-0.09881999999999999,0.560773,0.813923
1631118276899,-0.096563,0.564372,0.819718
1631118276908,-0.096746,0.5660189999999999,0.821365
1631118276918,-0.096258,0.569435,0.823927
1631118276928,-0.09455,0.5705939999999999,0.8258179999999999
1631118276937,-0.093086,0.5712039999999999,0.825635
1631118276947,-0.09235399999999999,0.56852,0.826977
1631118276956,-0.09394,0.5629689999999999,0.829295
1631118276966,-0.09394,0.558699,0.832711
1631118276976,-0.095221,0.554124,0.838384
1631118276985,-0.09558699999999999,0.552599,0.845338
1631118276995,-0.094916,0.553087,0.850401
1631118277004,-0.095038,0.556076,0.856989
1631118277014,-0.095526,0.557601,0.861076
1631118277024,-0.09394,0.556869,0.861076
1631118277033,-0.094733,0.560895,0.86498
1631118277043,-0.09406199999999999,0.569923,0.8744959999999999
1631118277052,-0.091622,0.5715089999999999,0.879498
1631118277062,-0.090768,0.571143,0.8784
1631118277072,-0.088572,0.5699839999999999,0.873215
1631118277081,-0.0854,0.56547,0.8620519999999999
1631118277091,-0.082594,0.560407,0.849364
1631118277100,-0.080154,0.558272,0.8386279999999999
1631118277110,-0.07942199999999999,0.556198,0.829112
1631118277120,-0.07911699999999999,0.5551,0.820389
1631118277129,-0.077836,0.555954,0.813923
1631118277139,-0.07649399999999999,0.557052,0.8078839999999999
1631118277148,-0.075823,0.556198,0.80032
1631118277158,-0.073993,0.555283,0.793793
1631118277168,-0.072895,0.5551,0.787937
1631118277177,-0.069906,0.556137,0.7859849999999999
1631118277187,-0.06740499999999999,0.557357,0.781166
1631118277196,-0.065819,0.5608339999999999,0.781227
1631118277206,-0.063623,0.564006,0.782508
1631118277216,-0.06222,0.564921,0.782081
1631118277225,-0.059109,0.562176,0.776408
1631118277235,-0.055388,0.557967,0.767075
1631118277244,-0.053436,0.555039,0.759572
1631118277254,-0.053496999999999996,0.553331,0.758047
1631118277264,-0.054229,0.553636,0.763354
1631118277273,-0.054655999999999996,0.55388,0.775371
1631118277283,-0.055570999999999995,0.552599,0.787083
1631118277292,-0.056852,0.5551,0.797575
1631118277302,-0.056669,0.558638,0.804956
1631118277312,-0.059109,0.55876,0.812703
1631118277321,-0.05978,0.560712,0.817461
1631118277331,-0.061244,0.562908,0.821426
1631118277340,-0.060573,0.5681539999999999,0.8273429999999999
1631118277350,-0.060329,0.574071,0.8325279999999999
1631118277360,-0.059047999999999996,0.577182,0.837835
1631118277369,-0.059536,0.575352,0.8380179999999999
1631118277379,-0.059962999999999995,0.573034,0.835395
1631118277388,-0.061732,0.574254,0.838262
1631118277398,-0.063074,0.575291,0.838262
1631118277408,-0.066551,0.574132,0.831552
1631118277417,-0.070882,0.573766,0.825269
1631118277427,-0.074542,0.57645,0.817888
1631118277436,-0.077592,0.579317,0.8148989999999999
1631118277446,-0.077592,0.580842,0.813313
1631118277456,-0.079544,0.585722,0.813313
1631118277465,-0.081252,0.593042,0.815265
1631118277475,-0.080886,0.598166,0.817705
1631118277484,-0.081008,0.599691,0.817705
1631118277494,-0.08479,0.599813,0.816546
1631118277504,-0.08723,0.598898,0.814045
1631118277513,-0.090951,0.598715,0.809531
1631118277523,-0.094306,0.597556,0.801906
1631118277532,-0.097844,0.598654,0.794586
1631118277542,-0.098698,0.599386,0.7875099999999999
1631118277552,-0.09943,0.599569,0.784216
1631118277561,-0.098698,0.601704,0.783118
1631118277571,-0.098454,0.604022,0.782752
1631118277580,-0.098088,0.604754,0.7820199999999999
1631118277590,-0.099003,0.599813,0.780251
1631118277600,-0.100284,0.597739,0.780129
1631118277609,-0.099491,0.602619,0.780983
1631118277619,-0.098759,0.6107319999999999,0.782752
1631118277628,-0.096868,0.61732,0.780739
1631118277638,-0.095221,0.623054,0.778543
1631118277648,-0.096685,0.626531,0.775127
1631118277657,-0.09729499999999999,0.62952,0.771162
1631118277667,-0.096197,0.62342,0.769393
1631118277676,-0.095526,0.6198819999999999,0.768356
1631118277686,-0.094916,0.618113,0.76799
1631118277696,-0.093208,0.615368,0.768478
1631118277705,-0.09028,0.61549,0.76982
1631118277715,-0.088023,0.6192719999999999,0.768356
1631118277724,-0.086742,0.620126,0.76921
1631118277734,-0.084241,0.622444,0.772382
1631118277744,-0.081435,0.624396,0.773907
1631118277753,-0.082228,0.620736,0.770186
1631118277763,-0.08479,0.6146969999999999,0.768478
1631118277772,-0.086864,0.608658,0.76738
1631118277782,-0.089487,0.604632,0.767929
1631118277792,-0.093147,0.603168,0.768051
1631118277801,-0.094123,0.605425,0.771406
1631118277811,-0.093818,0.611708,0.776469
1631118277820,-0.091012,0.619028,0.780434
1631118277830,-0.091927,0.624762,0.7829349999999999
1631118277840,-0.092293,0.628422,0.7853749999999999
1631118277849,-0.09394,0.629215,0.786351
1631118277859,-0.096502,0.630435,0.783667
1631118277868,-0.098088,0.63013,0.782874
1631118277878,-0.100101,0.631106,0.7804949999999999
1631118277888,-0.102663,0.630984,0.778421
1631118277897,-0.104249,0.630862,0.775798
1631118277907,-0.105469,0.629398,0.772931
1631118277916,-0.10668899999999999,0.630557,0.772992
1631118277926,-0.107238,0.630862,0.771467
1631118277936,-0.108946,0.626043,0.766892
1631118277945,-0.10961699999999999,0.621956,0.7671359999999999
1631118277955,-0.10900699999999999,0.620614,0.768051
1631118277964,-0.107848,0.621956,0.770308
1631118277974,-0.105591,0.625799,0.771772
1631118277984,-0.105408,0.629032,0.773175
1631118277993,-0.104859,0.6320209999999999,0.772138
1631118278003,-0.10577399999999999,0.631777,0.770125
1631118278012,-0.10675,0.630984,0.765977
1631118278022,-0.109556,0.627263,0.762195
1631118278032,-0.110593,0.626653,0.759328
1631118278041,-0.10919,0.627385,0.760304
1631118278051,-0.108702,0.626714,0.761707
1631118278060,-0.108946,0.623481,0.762805
1631118278070,-0.109861,0.62281,0.762378
1631118278080,-0.108458,0.6222,0.762317
1631118278089,-0.109739,0.620553,0.76067
1631118278099,-0.11083699999999999,0.622444,0.759694
1631118278108,-0.110471,0.628422,0.760304
1631118278118,-0.109556,0.634644,0.761768
1631118278128,-0.108458,0.6402559999999999,0.761585
1631118278137,-0.107238,0.6454409999999999,0.762012
1631118278147,-0.10553,0.647088,0.764452
1631118278156,-0.105103,0.64477,0.764635
1631118278166,-0.106445,0.644038,0.764452
1631118278176,-0.108397,0.6384259999999999,0.761463
1631118278185,-0.11102,0.635742,0.758413
1631118278195,-0.112972,0.6323259999999999,0.756278
1631118278204,-0.112911,0.630374,0.753838
1631118278214,-0.114619,0.625982,0.7503
1631118278224,-0.114802,0.624762,0.748226
1631118278233,-0.114741,0.627873,0.749202
1631118278243,-0.113826,0.630008,0.749629
1631118278252,-0.114985,0.629825,0.750605
1631118278262,-0.116754,0.62647,0.751337
1631118278272,-0.117852,0.62586,0.754204
1631118278281,-0.119438,0.624518,0.7570709999999999
1631118278291,-0.12078,0.625677,0.759877
1631118278300,-0.121512,0.628178,0.7622559999999999
1631118278310,-0.121146,0.633119,0.76372
1631118278320,-0.121451,0.637328,0.765733
1631118278329,-0.12017,0.640622,0.766038
1631118278339,-0.11962099999999999,0.642208,0.763842
1631118278348,-0.121512,0.642818,0.76311
1631118278358,-0.124196,0.641232,0.761768
1631118278368,-0.1281,0.637572,0.760487
1631118278377,-0.131394,0.634888,0.76006
1631118278387,-0.133163,0.634217,0.761585
1631118278396,-0.133468,0.6365959999999999,0.762134
1631118278406,-0.134261,0.6381209999999999,0.762927
1631118278416,-0.13237,0.642025,0.763964
1631118278425,-0.131028,0.643672,0.764635
1631118278435,-0.131211,0.645319,0.765184
1631118278444,-0.131516,0.646722,0.7653059999999999
1631118278454,-0.13176,0.646966,0.764513
1631118278464,-0.133529,0.647454,0.763049
1631118278473,-0.133346,0.64965,0.7604259999999999
1631118278483,-0.133224,0.653127,0.760304
1631118278492,-0.133834,0.655262,0.759145
1631118278502,-0.132004,0.6600199999999999,0.757742
1631118278512,-0.131272,0.659471,0.756705
1631118278521,-0.132004,0.6606299999999999,0.7534109999999999
1631118278531,-0.130662,0.661362,0.752557
1631118278540,-0.130113,0.6609349999999999,0.749019
1631118278550,-0.129015,0.662826,0.746701
1631118278560,-0.128466,0.6652049999999999,0.745969
1631118278569,-0.125843,0.665083,0.744627
1631118278579,-0.12193899999999999,0.663558,0.742065
1631118278588,-0.120536,0.662033,0.740418
1631118278598,-0.119804,0.665632,0.734196
1631118278608,-0.11834,0.663192,0.7366969999999999
1631118278617,-0.11577799999999999,0.664168,0.735904
1631118278627,-0.114375,0.664656,0.7351719999999999
1631118278636,-0.11284999999999999,0.662887,0.732915
1631118278646,-0.112301,0.660752,0.7296819999999999
1631118278656,-0.110593,0.661667,0.72712
1631118278665,-0.110166,0.6624599999999999,0.725717
1631118278675,-0.108763,0.663131,0.725961
1631118278684,-0.10675,0.664229,0.723887
1631118278694,-0.10607899999999999,0.666181,0.723033
1631118278704,-0.104798,0.6670349999999999,0.723399
1631118278713,-0.104493,0.669658,0.723033
1631118278723,-0.103334,0.670695,0.722179
1631118278732,-0.102602,0.672769,0.72224
1631118278742,-0.101504,0.674904,0.721691
1631118278752,-0.100711,0.675819,0.721752
1631118278761,-0.099491,0.677039,0.721264
1631118278771,-0.098759,0.678259,0.7187629999999999
1631118278780,-0.096502,0.679906,0.718214
1631118278790,-0.096136,0.682956,0.718702
1631118278800,-0.094489,0.684908,0.717787
1631118278809,-0.09333,0.6861889999999999,0.714737
1631118278819,-0.091683,0.6886289999999999,0.714371
1631118278828,-0.092476,0.690947,0.712419
1631118278838,-0.09174399999999999,0.691923,0.7111379999999999
1631118278848,-0.090768,0.693875,0.710894
1631118278857,-0.08881599999999999,0.6944239999999999,0.710345
1631118278867,-0.08784,0.693021,0.7090029999999999
1631118278876,-0.086376,0.691923,0.7083929999999999
1631118278886,-0.084119,0.691313,0.70821
1631118278896,-0.083204,0.691191,0.70821
1631118278905,-0.081801,0.691557,0.7074779999999999
1631118278915,-0.081252,0.691252,0.7071729999999999
1631118278924,-0.080154,0.693326,0.706929
1631118278934,-0.078568,0.694668,0.707051
1631118278944,-0.077714,0.697718,0.70821
1631118278953,-0.076738,0.699243,0.707966
1631118278963,-0.07618899999999999,0.70211,0.708515
1631118278972,-0.075884,0.7044279999999999,0.7099179999999999
1631118278982,-0.075518,0.704306,0.71126
1631118278992,-0.07503,0.702049,0.7117479999999999
1631118279001,-0.075823,0.698572,0.711931
1631118279011,-0.077836,0.69662,0.711809
1631118279020,-0.077226,0.695461,0.710894
1631118279030,-0.07625,0.696193,0.712785
1631118279040,-0.075274,0.697474,0.713639
1631118279049,-0.073444,0.69845,0.714066
1631118279059,-0.073322,0.697657,0.71431
1631118279068,-0.073444,0.697291,0.714127
1631118279078,-0.07259,0.696132,0.7141879999999999
1631118279088,-0.07259,0.695583,0.7144929999999999
1631118279097,-0.073322,0.69357,0.7126629999999999
1631118279107,-0.07387099999999999,0.6925939999999999,0.7111379999999999
1631118279116,-0.073932,0.690215,0.709796
1631118279126,-0.074664,0.688202,0.709491
1631118279136,-0.074847,0.689605,0.7102229999999999
1631118279145,-0.075274,0.690642,0.711931
1631118279155,-0.075152,0.692655,0.713334
1631118279164,-0.075335,0.694546,0.714676
1631118279174,-0.07448099999999999,0.696742,0.7157129999999999
1631118279184,-0.073139,0.69784,0.7166279999999999
1631118279193,-0.07387099999999999,0.696437,0.716567
1631118279203,-0.074542,0.694912,0.714005
1631118279212,-0.0732,0.69479,0.713456
1631118279222,-0.074359,0.692533,0.712602
1631118279232,-0.073383,0.692533,0.713517
1631118279241,-0.074115,0.690642,0.7137
1631118279251,-0.07448099999999999,0.688263,0.7137
1631118279260,-0.074054,0.686982,0.713944
1631118279270,-0.0732,0.68686,0.713822
1631118279280,-0.072712,0.686067,0.713456
1631118279289,-0.071797,0.688141,0.7137
1631118279299,-0.071187,0.6849689999999999,0.71309
1631118279308,-0.071797,0.683993,0.712907
1631118279318,-0.072651,0.68137,0.7141879999999999
1631118279328,-0.071431,0.680516,0.715469
1631118279337,-0.072041,0.67954,0.716567
1631118279347,-0.072529,0.678747,0.719922
1631118279356,-0.073932,0.679113,0.722301
1631118279366,-0.073078,0.679723,0.724314
1631118279376,-0.071736,0.681187,0.724863
1631118279385,-0.07259,0.683261,0.7259
1631118279395,-0.07259,0.684725,0.726693
1631118279404,-0.073749,0.686555,0.72712
1631118279414,-0.075274,0.684603,0.724924
1631118279424,-0.076067,0.684847,0.723155
1631118279433,-0.078202,0.682163,0.723155
1631118279443,-0.079239,0.681431,0.725046
1631118279452,-0.079239,0.680455,0.727059
1631118279462,-0.079605,0.681797,0.728706
1631118279472,-0.078385,0.681736,0.729926
1631118279481,-0.078507,0.6819189999999999,0.730841
1631118279491,-0.078324,0.682468,0.7321219999999999
1631118279500,-0.078324,0.681553,0.731451
1631118279510,-0.078263,0.681858,0.729194
1631118279520,-0.079361,0.681248,0.727364
1631118279529,-0.080459,0.680638,0.726449
1631118279539,-0.08204499999999999,0.679845,0.725656
1631118279548,-0.083509,0.67832,0.72529
1631118279558,-0.08479,0.67771,0.726205
1631118279568,-0.083143,0.678503,0.727486
1631118279577,-0.08326499999999999,0.677832,0.728523
1631118279587,-0.083021,0.678442,0.729255
1631118279596,-0.083448,0.678625,0.729804
1631118279606,-0.083509,0.678015,0.7309019999999999
1631118279616,-0.083814,0.67771,0.730719
1631118279625,-0.083448,0.676612,0.732
1631118279635,-0.084058,0.675331,0.731756
1631118279644,-0.084302,0.673562,0.7315119999999999
1631118279654,-0.08356999999999999,0.670695,0.732
1631118279664,-0.084119,0.671,0.732549
1631118279673,-0.085217,0.671671,0.7336469999999999
1631118279683,-0.08558299999999999,0.671061,0.7348669999999999
1631118279692,-0.084607,0.670451,0.733891
1631118279702,-0.084058,0.671305,0.734074
1631118279712,-0.08418,0.670878,0.735416
1631118279721,-0.084546,0.671,0.73444
1631118279731,-0.084363,0.671427,0.7342569999999999
1631118279740,-0.084729,0.672098,0.7351719999999999
1631118279750,-0.083692,0.673806,0.735843
1631118279760,-0.083936,0.671244,0.735599
1631118279769,-0.08527799999999999,0.667218,0.733769
1631118279779,-0.08662,0.6630699999999999,0.732854
1631118279788,-0.087596,0.659349,0.733098
1631118279798,-0.087596,0.658434,0.7345619999999999
1631118279808,-0.087657,0.660447,0.735904
1631118279817,-0.087047,0.662338,0.737368
1631118279827,-0.086986,0.662704,0.7379169999999999
1631118279836,-0.087474,0.663558,0.73932
1631118279846,-0.087169,0.663009,0.739869
1631118279856,-0.086681,0.662338,0.7406619999999999
1631118279865,-0.086925,0.661606,0.741943
1631118279875,-0.08820599999999999,0.660874,0.742065
1631118279884,-0.08973099999999999,0.658922,0.742004
1631118279894,-0.090036,0.658922,0.7424919999999999
1631118279904,-0.089975,0.6587999999999999,0.7427969999999999
1631118279913,-0.090219,0.660386,0.7431019999999999
1631118279923,-0.090829,0.660203,0.742675
1631118279932,-0.090646,0.661728,0.742675
1631118279942,-0.091866,0.662277,0.743041
1631118279952,-0.092232,0.6624599999999999,0.7424919999999999
1631118279961,-0.09333,0.662338,0.7431019999999999
1631118279971,-0.092232,0.661911,0.742736
1631118279980,-0.093452,0.659166,0.743773
1631118279990,-0.09406199999999999,0.658983,0.744383
1631118280000,-0.094001,0.659959,0.745908
1631118280009,-0.093574,0.660264,0.74664
1631118280019,-0.093757,0.661972,0.74664
1631118280028,-0.093879,0.6600199999999999,0.745786
1631118280038,-0.094489,0.6581899999999999,0.74542
1631118280048,-0.095526,0.656421,0.746091
1631118280057,-0.096075,0.655018,0.746457
1631118280067,-0.096075,0.654774,0.747006
1631118280076,-0.096685,0.655628,0.748287
1631118280086,-0.09497699999999999,0.655872,0.749324
1631118280096,-0.09516,0.655933,0.749995
1631118280105,-0.094184,0.65453,0.750727
1631118280115,-0.094916,0.653981,0.750422
1631118280124,-0.095465,0.654164,0.750239
1631118280134,-0.09497699999999999,0.653798,0.750361
1631118280144,-0.096014,0.652151,0.750056
1631118280153,-0.09577,0.652578,0.750178
1631118280163,-0.096685,0.652517,0.750056
1631118280172,-0.096807,0.65209,0.749873
1631118280182,-0.097539,0.651907,0.750544
1631118280192,-0.097356,0.65209,0.750727
1631118280201,-0.097478,0.652944,0.749141
1631118280211,-0.096502,0.653554,0.74847
1631118280220,-0.096563,0.652822,0.748653
1631118280230,-0.096746,0.653432,0.74908
1631118280240,-0.096258,0.6527,0.749141
1631118280249,-0.097356,0.651846,0.748775
1631118280259,-0.097417,0.652334,0.748104
1631118280268,-0.098088,0.651663,0.748592
1631118280278,-0.098088,0.652578,0.74786
1631118280288,-0.098149,0.653432,0.747921
1631118280297,-0.09851499999999999,0.652395,0.747311
1631118280307,-0.097844,0.653554,0.747677
1631118280316,-0.09820999999999999,0.654286,0.746579
1631118280326,-0.097539,0.654347,0.746091
1631118280336,-0.09729499999999999,0.653676,0.746579
1631118280345,-0.09759999999999999,0.652273,0.74725
1631118280355,-0.096868,0.652395,0.747677
1631118280364,-0.096746,0.651541,0.747677
1631118280374,-0.096807,0.651663,0.74725
1631118280384,-0.096868,0.651785,0.74786
1631118280393,-0.09577,0.65148,0.747738
1631118280403,-0.09638,0.65209,0.747494
1631118280412,-0.096929,0.652883,0.746396
1631118280422,-0.097112,0.653432,0.747311
1631118280432,-0.096197,0.655323,0.747189
1631118280441,-0.096441,0.656421,0.747433
1631118280451,-0.09528199999999999,0.6575799999999999,0.747616
1631118280460,-0.096136,0.657702,0.747128
1631118280470,-0.096563,0.6566649999999999,0.74542
1631118280480,-0.096746,0.657092,0.744505
1631118280489,-0.09638,0.658739,0.745969
1631118280499,-0.096014,0.658007,0.745725
1631118280508,-0.096319,0.657763,0.744139
1631118280518,-0.096136,0.659349,0.743285
1631118280528,-0.094489,0.661057,0.743529
1631118280537,-0.093452,0.662277,0.744383
1631118280547,-0.093574,0.659471,0.743468
1631118280556,-0.094428,0.655994,0.743041
1631118280566,-0.095099,0.653371,0.742004
1631118280576,-0.095526,0.653737,0.742614
1631118280585,-0.09528199999999999,0.654286,0.743468
1631118280595,-0.093757,0.65453,0.743651
1631118280604,-0.093391,0.656299,0.744688
1631118280614,-0.094794,0.657763,0.745481
1631118280624,-0.094123,0.657702,0.74542
1631118280633,-0.09467199999999999,0.657519,0.745847
1631118280643,-0.093757,0.657458,0.744932
1631118280652,-0.094123,0.6575799999999999,0.745176
1631118280662,-0.09455,0.656482,0.744322
1631118280672,-0.095099,0.657397,0.744139
1631118280681,-0.09528199999999999,0.6587999999999999,0.743346
1631118280691,-0.093513,0.659471,0.7427969999999999
1631118280700,-0.093757,0.660996,0.742553
1631118280710,-0.094611,0.662338,0.742553
1631118280720,-0.094794,0.661789,0.741699
1631118280729,-0.094428,0.661301,0.741089
1631118280739,-0.09455,0.6618499999999999,0.7406619999999999
1631118280748,-0.094245,0.660264,0.7400519999999999
1631118280758,-0.094245,0.660569,0.740174
1631118280768,-0.094001,0.660508,0.739503
1631118280777,-0.093513,0.660142,0.741821
1631118280787,-0.092964,0.661728,0.742431
1631118280796,-0.09204899999999999,0.6618499999999999,0.742614
1631118280806,-0.092903,0.660142,0.742675
1631118280816,-0.093147,0.6581899999999999,0.741028
1631118280825,-0.092842,0.6563599999999999,0.7415769999999999
1631118280835,-0.093269,0.657397,0.7418819999999999
1631118280844,-0.09333,0.656848,0.7424919999999999
1631118280854,-0.093147,0.657153,0.742858
1631118280864,-0.093086,0.657946,0.742919
1631118280873,-0.09272,0.658739,0.743834
1631118280883,-0.092415,0.6603249999999999,0.743285
1631118280892,-0.092232,0.659654,0.7434069999999999
1631118280902,-0.093208,0.660264,0.743346
1631118280912,-0.093696,0.659349,0.742858
1631118280921,-0.094489,0.658983,0.743163
1631118280931,-0.09436699999999999,0.659288,0.743346
1631118280940,-0.093879,0.659776,0.7424919999999999
1631118280950,-0.093757,0.659776,0.7431019999999999
1631118280960,-0.094794,0.659593,0.742675
1631118280969,-0.09528199999999999,0.6600199999999999,0.7424919999999999
1631118280979,-0.09406199999999999,0.660447,0.7427969999999999
1631118280988,-0.09406199999999999,0.659837,0.742126
1631118280998,-0.09497699999999999,0.6594099999999999,0.742248
1631118281008,-0.095038,0.659288,0.742736
1631118281017,-0.095404,0.6603249999999999,0.74176
1631118281027,-0.09497699999999999,0.660142,0.742126
1631118281036,-0.09516,0.659288,0.742919
1631118281046,-0.09516,0.658678,0.743163
1631118281056,-0.094855,0.658983,0.744383
1631118281065,-0.095526,0.658739,0.743651
1631118281075,-0.096075,0.658678,0.743163
1631118281084,-0.095221,0.658739,0.743895
1631118281094,-0.09528199999999999,0.659044,0.743712
1631118281104,-0.095709,0.6591049999999999,0.74298
1631118281113,-0.09497699999999999,0.659898,0.7434069999999999
1631118281123,-0.095404,0.6597149999999999,0.743468
1631118281132,-0.095648,0.658983,0.742675
1631118281142,-0.095648,0.658556,0.7424919999999999
1631118281152,-0.095404,0.658861,0.7427969999999999
1631118281161,-0.09516,0.658068,0.7418819999999999
1631118281171,-0.09516,0.6575799999999999,0.7424919999999999
1631118281180,-0.09394,0.657641,0.742553
1631118281190,-0.094306,0.658068,0.742065
1631118281200,-0.094184,0.658068,0.7434069999999999
1631118281209,-0.094855,0.6581899999999999,0.744688
1631118281219,-0.094245,0.657824,0.744871
1631118281228,-0.093147,0.658251,0.744261
1631118281238,-0.093147,0.657397,0.744444
1631118281248,-0.093513,0.657946,0.74542
1631118281257,-0.092964,0.657519,0.745054
1631118281267,-0.093391,0.658068,0.746091
1631118281276,-0.093696,0.658251,0.74481
1631118281286,-0.094245,0.657214,0.742431
1631118281296,-0.094001,0.657031,0.74298
1631118281305,-0.093513,0.658739,0.743956
1631118281315,-0.093025,0.6584949999999999,0.7434069999999999
1631118281324,-0.093635,0.6572749999999999,0.74237
1631118281334,-0.093879,0.658922,0.7412719999999999
1631118281344,-0.093452,0.660874,0.742736
1631118281353,-0.091622,0.661789,0.743529
1631118281363,-0.0915,0.660447,0.743651
1631118281372,-0.093208,0.656543,0.7434069999999999
1631118281382,-0.094733,0.653554,0.741821
1631118281392,-0.09528199999999999,0.652944,0.742126
1631118281401,-0.095038,0.653615,0.743224
1631118281411,-0.094428,0.6560549999999999,0.745481
1631118281420,-0.094184,0.6572749999999999,0.745908
1631118281430,-0.095221,0.658251,0.745908
1631118281440,-0.095526,0.658251,0.745725
1631118281449,-0.09497699999999999,0.657824,0.746762
1631118281459,-0.095404,0.656726,0.747921
1631118281468,-0.09589199999999999,0.656787,0.746579
1631118281478,-0.096746,0.656238,0.746152
1631118281488,-0.097173,0.656909,0.745176
1631118281497,-0.09698999999999999,0.658739,0.74298
1631118281507,-0.096624,0.6594099999999999,0.742736
1631118281516,-0.09638,0.660264,0.741455
1631118281526,-0.096868,0.661728,0.741028
1631118281536,-0.096624,0.6624599999999999,0.74115
1631118281545,-0.096685,0.6612399999999999,0.741516
1631118281555,-0.096319,0.660691,0.742065
1631118281564,-0.095465,0.659288,0.7412719999999999
1631118281574,-0.096685,0.658617,0.7415769999999999
1631118281584,-0.095526,0.6597149999999999,0.74115
1631118281593,-0.09516,0.661057,0.743895
1631118281603,-0.09333,0.6615449999999999,0.744688
1631118281612,-0.09455,0.6606299999999999,0.744078
1631118281622,-0.095038,0.6575799999999999,0.7434069999999999
1631118281632,-0.094855,0.656848,0.743041
1631118281641,-0.09467199999999999,0.655567,0.74298
1631118281651,-0.09406199999999999,0.655933,0.744261
1631118281660,-0.094001,0.656238,0.7442
1631118281670,-0.094123,0.656726,0.744017
1631118281680,-0.093635,0.6569699999999999,0.743834
1631118281689,-0.093391,0.657031,0.744871
1631118281699,-0.094001,0.657336,0.744139
1631118281708,-0.094428,0.658251,0.7434069999999999
1631118281718,-0.09455,0.657946,0.743285
1631118281728,-0.095404,0.658129,0.74359
1631118281737,-0.095404,0.6581899999999999,0.743163
1631118281747,-0.095709,0.658434,0.74359
1631118281756,-0.09638,0.658251,0.743834
1631118281766,-0.09577,0.658007,0.74359
1631118281776,-0.096014,0.6587999999999999,0.743712
1631118281785,-0.095343,0.658678,0.744627
1631118281795,-0.096807,0.658861,0.743773
1631118281804,-0.097051,0.658068,0.743224
1631118281814,-0.096197,0.657641,0.743651
1631118281824,-0.096624,0.657946,0.744261
1631118281833,-0.096868,0.657824,0.744627
1631118281843,-0.096868,0.6569699999999999,0.744749
1631118281852,-0.097539,0.656787,0.744322
1631118281862,-0.097661,0.657397,0.744871
1631118281872,-0.09729499999999999,0.657824,0.745176
1631118281881,-0.097478,0.659166,0.74481
1631118281891,-0.097722,0.658251,0.744505
1631118281900,-0.097112,0.659837,0.743651
1631118281910,-0.096685,0.659532,0.7434069999999999
1631118281920,-0.096502,0.6587999999999999,0.742004
1631118281929,-0.096746,0.659227,0.742004
1631118281939,-0.097173,0.658556,0.741211
1631118281948,-0.096258,0.658434,0.74115
1631118281958,-0.09577,0.659349,0.741638
1631118281968,-0.096136,0.6597149999999999,0.742065
1631118281977,-0.096624,0.6597149999999999,0.7424919999999999
1631118281987,-0.096075,0.6603249999999999,0.742431
1631118281996,-0.095404,0.660142,0.74176
1631118282006,-0.094855,0.658983,0.742553
1631118282016,-0.094184,0.659044,0.742614
1631118282025,-0.094184,0.657824,0.742309
1631118282035,-0.095038,0.658129,0.74237
1631118282044,-0.09394,0.6581899999999999,0.741821
1631118282054,-0.094306,0.6563599999999999,0.742919
1631118282064,-0.094306,0.6569699999999999,0.743712
1631118282073,-0.093696,0.657641,0.744017
1631118282083,-0.09394,0.6569699999999999,0.743529
1631118282092,-0.094184,0.657702,0.744688
1631118282102,-0.094184,0.6581899999999999,0.744871
1631118282112,-0.093391,0.658373,0.744749
1631118282121,-0.093696,0.658556,0.744322
1631118282131,-0.095038,0.660386,0.74481
1631118282140,-0.094794,0.659349,0.745054
1631118282150,-0.09558699999999999,0.6587999999999999,0.742919
1631118282160,-0.09497699999999999,0.659776,0.7418819999999999
1631118282169,-0.096014,0.6597149999999999,0.742248
1631118282179,-0.09558699999999999,0.661118,0.742614
1631118282188,-0.096075,0.659288,0.740784
1631118282198,-0.096502,0.659349,0.738405
1631118282208,-0.095648,0.663253,0.74176
1631118282217,-0.094733,0.664534,0.744017
1631118282227,-0.094306,0.662826,0.742614
1631118282236,-0.096075,0.657946,0.741089
1631118282246,-0.097539,0.654347,0.741638
1631118282256,-0.09759999999999999,0.653188,0.740906
1631118282265,-0.096868,0.655018,0.743529
1631118282275,-0.096502,0.656482,0.744932
1631118282284,-0.09558699999999999,0.656604,0.745725
1631118282294,-0.09558699999999999,0.657397,0.746762
1631118282304,-0.095831,0.6569699999999999,0.747067
1631118282313,-0.096258,0.656482,0.747738
1631118282323,-0.096319,0.655018,0.747555
1631118282332,-0.096624,0.654286,0.746579
1631118282342,-0.096868,0.652944,0.745054
1631118282352,-0.097417,0.653981,0.744444
1631118282361,-0.097722,0.653432,0.744566
1631118282371,-0.09820999999999999,0.655201,0.744383
1631118282380,-0.09698999999999999,0.655079,0.744932
1631118282390,-0.097356,0.655994,0.745298
1631118282400,-0.096563,0.6560549999999999,0.744444
1631118282409,-0.096685,0.656238,0.745847
1631118282419,-0.09729499999999999,0.655933,0.746701
1631118282428,-0.097234,0.65453,0.746884
1631118282438,-0.097478,0.6557499999999999,0.746701
1631118282448,-0.096624,0.656604,0.747128
1631118282457,-0.09528199999999999,0.657336,0.748348
1631118282467,-0.095099,0.657519,0.748958
1631118282476,-0.095465,0.656238,0.74725
1631118282486,-0.096807,0.653188,0.747067
1631118282496,-0.09698999999999999,0.651785,0.74603
1631118282505,-0.09589199999999999,0.651846,0.746945
1631118282515,-0.095343,0.651907,0.746884
1631118282524,-0.095038,0.652944,0.747799
1631118282534,-0.09497699999999999,0.653859,0.747006
1631118282544,-0.095404,0.653432,0.747494
1631118282553,-0.094245,0.653066,0.747494
1631118282563,-0.093818,0.653005,0.747982
1631118282572,-0.094611,0.65331,0.747006
1631118282582,-0.094733,0.651724,0.746762
1631118282592,-0.09558699999999999,0.652334,0.746884
1631118282601,-0.095343,0.652334,0.74725
1631118282611,-0.095953,0.652578,0.747677
1631118282620,-0.095953,0.653676,0.748165
1631118282630,-0.095709,0.653188,0.748348
1631118282640,-0.096197,0.653066,0.747921
1631118282649,-0.096258,0.653798,0.747982
1631118282659,-0.096014,0.653493,0.748409
1631118282668,-0.096014,0.654286,0.748897
1631118282678,-0.097112,0.654713,0.748531
1631118282688,-0.09698999999999999,0.654408,0.749141
1631118282697,-0.097234,0.654652,0.749202
1631118282707,-0.097539,0.65392,0.747982
1631118282716,-0.096868,0.65392,0.747677
1631118282726,-0.097051,0.654835,0.747433
1631118282736,-0.09729499999999999,0.655079,0.746335
1631118282745,-0.098027,0.654347,0.745908
1631118282755,-0.097844,0.654591,0.745664
1631118282764,-0.09851499999999999,0.654591,0.74603
1631118282774,-0.097661,0.655933,0.745359
1631118282784,-0.09820999999999999,0.655384,0.744932
1631118282793,-0.097722,0.65514,0.744627
1631118282803,-0.097478,0.654713,0.74542
1631118282812,-0.097173,0.6554449999999999,0.745969
1631118282822,-0.097661,0.6554449999999999,0.745115
1631118282832,-0.096929,0.65514,0.746091
1631118282841,-0.096807,0.655262,0.745786
1631118282851,-0.096746,0.654896,0.74725
1631118282860,-0.096807,0.654652,0.74725
1631118282870,-0.096014,0.65514,0.747677
1631118282880,-0.095038,0.6563599999999999,0.748714
1631118282889,-0.094306,0.655384,0.747982
1631118282899,-0.093452,0.654774,0.747677
1631118282908,-0.094123,0.654774,0.747677
1631118282918,-0.09455,0.653798,0.748043
1631118282928,-0.093879,0.653737,0.747677
1631118282937,-0.093208,0.654469,0.748592
1631118282947,-0.092842,0.654652,0.748836
1631118282956,-0.09333,0.65453,0.748958
1631118282966,-0.091927,0.654164,0.748653
1631118282976,-0.091927,0.654408,0.749385
1631118282985,-0.091561,0.655018,0.748226
1631118282995,-0.091378,0.654957,0.747433
1631118283004,-0.090768,0.654408,0.748653
1631118283014,-0.09113399999999999,0.653493,0.747921
1631118283024,-0.091317,0.653371,0.746091
1631118283033,-0.090585,0.652944,0.745176
1631118283043,-0.089914,0.6557499999999999,0.746396
1631118283052,-0.08906,0.655689,0.746274
1631118283062,-0.09028,0.655933,0.745481
1631118283072,-0.090463,0.657214,0.746823
1631118283081,-0.08967,0.657214,0.748348
1631118283091,-0.088389,0.656116,0.747738
1631118283100,-0.08851099999999999,0.652517,0.74725
1631118283110,-0.088633,0.650565,0.746396
1631118283120,-0.08820599999999999,0.649833,0.747799
1631118283129,-0.086376,0.650931,0.749812
1631118283139,-0.08601,0.653554,0.7518859999999999
1631118283148,-0.08588799999999999,0.654286,0.751398
1631118283158,-0.085461,0.654225,0.750544
1631118283168,-0.086559,0.652212,0.750117
1631118283177,-0.086132,0.650687,0.748348
1631118283187,-0.087291,0.64965,0.747433
1631118283196,-0.085644,0.648979,0.748104
1631118283206,-0.086315,0.648613,0.74725
1631118283216,-0.085705,0.649406,0.747006
1631118283225,-0.08601,0.651236,0.747189
1631118283235,-0.085156,0.65209,0.748287
1631118283244,-0.084485,0.65331,0.748836
1631118283254,-0.084546,0.653249,0.750239
1631118283264,-0.083753,0.65331,0.7506659999999999
1631118283273,-0.08479,0.652578,0.7506659999999999
1631118283283,-0.085766,0.649894,0.7512759999999999
1631118283292,-0.084668,0.651663,0.751642
1631118283302,-0.085461,0.652456,0.752374
1631118283312,-0.083814,0.65331,0.752313
1631118283321,-0.083021,0.654286,0.7521909999999999
1631118283331,-0.083753,0.653066,0.751459
1631118283340,-0.083326,0.648918,0.750422
1631118283350,-0.084729,0.647698,0.750422
1631118283360,-0.084119,0.64782,0.750544
1631118283369,-0.08295999999999999,0.648979,0.750483
1631118283379,-0.08418,0.649467,0.750178
1631118283388,-0.084668,0.649101,0.7503
1631118283398,-0.084668,0.648674,0.74969
1631118283408,-0.08497299999999999,0.648186,0.749629
1631118283417,-0.085339,0.648918,0.750422
1631118283427,-0.0854,0.649101,0.751215
1631118283436,-0.085827,0.647698,0.752618
1631118283446,-0.08649799999999999,0.648491,0.7524959999999999
1631118283456,-0.087352,0.648735,0.75274
1631118283465,-0.08790099999999999,0.648918,0.7518859999999999
1631118283475,-0.087779,0.65148,0.752252
1631118283484,-0.089182,0.652212,0.752252
1631118283494,-0.089914,0.651968,0.751764
1631118283504,-0.089792,0.652273,0.752252
1631118283513,-0.090524,0.651907,0.752374
1631118283523,-0.091073,0.651236,0.750544
1631118283532,-0.090829,0.650443,0.7506659999999999
1631118283542,-0.091622,0.650199,0.751154
1631118283552,-0.09204899999999999,0.650382,0.750056
1631118283561,-0.092842,0.651358,0.74908
1631118283571,-0.092598,0.651297,0.748714
1631118283580,-0.093208,0.650138,0.748836
1631118283590,-0.093147,0.650565,0.748897
1631118283600,-0.093696,0.650016,0.748836
1631118283609,-0.093025,0.650138,0.74969
1631118283619,-0.09333,0.651175,0.749385
1631118283628,-0.09333,0.651236,0.750178
1631118283638,-0.093025,0.650992,0.750178
1631118283648,-0.09436699999999999,0.650931,0.7503
1631118283657,-0.094489,0.652578,0.749873
1631118283667,-0.094001,0.652639,0.749812
1631118283676,-0.094428,0.653188,0.748714
1631118283686,-0.09497699999999999,0.652578,0.748287
1631118283696,-0.094184,0.652944,0.748409
1631118283705,-0.094123,0.6527,0.748348
1631118283715,-0.093696,0.652395,0.747433
1631118283724,-0.094428,0.651419,0.748409
1631118283734,-0.094306,0.65087,0.748592
1631118283744,-0.094001,0.651114,0.749263
1631118283753,-0.094306,0.651114,0.750483
1631118283763,-0.094306,0.65148,0.750361
1631118283772,-0.093757,0.65148,0.751398
1631118283782,-0.09272,0.650992,0.751093
1631118283792,-0.092964,0.651541,0.751764
1631118283801,-0.093391,0.651053,0.751764
1631118283811,-0.092964,0.650626,0.7509709999999999
1631118283820,-0.093818,0.649894,0.751154
1631118283830,-0.093696,0.65026,0.7512759999999999
1631118283840,-0.093208,0.651114,0.75091
1631118283849,-0.093879,0.651602,0.7518859999999999
1631118283859,-0.093757,0.650748,0.7506659999999999
1631118283868,-0.094611,0.649406,0.749202
1631118283878,-0.09516,0.650748,0.748165
1631118283888,-0.09497699999999999,0.653188,0.749202
1631118283897,-0.094733,0.655079,0.749446
1631118283907,-0.09497699999999999,0.65453,0.746823
1631118283916,-0.095038,0.655933,0.747372
1631118283926,-0.094794,0.657458,0.748592
1631118283936,-0.094916,0.655628,0.749263
1631118283945,-0.095404,0.651358,0.747738
1631118283955,-0.096441,0.648796,0.746396
1631118283964,-0.096563,0.645685,0.746823
1631118283974,-0.095648,0.648186,0.748592
1631118283984,-0.095221,0.650016,0.749202
1631118283993,-0.094733,0.651358,0.750056
1631118284003,-0.09497699999999999,0.651358,0.751032
1631118284012,-0.095709,0.650138,0.751398
1631118284022,-0.096258,0.649223,0.751703
1631118284032,-0.09577,0.648125,0.752069
1631118284041,-0.096319,0.646966,0.752435
1631118284051,-0.09729499999999999,0.646478,0.751764
1631118284060,-0.09698999999999999,0.647576,0.7524959999999999
1631118284070,-0.095709,0.648979,0.75091
1631118284080,-0.097356,0.649589,0.749812
1631118284089,-0.096197,0.65087,0.750361
1631118284099,-0.095648,0.652578,0.749629
1631118284108,-0.096197,0.653615,0.749934
1631118284118,-0.095831,0.653066,0.749141
1631118284128,-0.09577,0.651846,0.748653
1631118284137,-0.096258,0.650565,0.749568
1631118284147,-0.09638,0.649162,0.74969
1631118284156,-0.097051,0.649223,0.74908
1631118284166,-0.095221,0.651724,0.750117
1631118284176,-0.095099,0.652822,0.751337
1631118284185,-0.093696,0.654164,0.752252
1631118284195,-0.09406199999999999,0.652883,0.752008
1631118284204,-0.09467199999999999,0.650016,0.75091
1631118284214,-0.094611,0.647637,0.751703
1631118284224,-0.09497699999999999,0.64782,0.75152
1631118284233,-0.09406199999999999,0.648186,0.751642
1631118284243,-0.094428,0.649345,0.7515809999999999
1631118284252,-0.092842,0.649406,0.750788
1631118284262,-0.093269,0.649772,0.75152
1631118284272,-0.09272,0.65026,0.751154
1631118284281,-0.093757,0.650382,0.750422
1631118284291,-0.093513,0.649772,0.750178
1631118284300,-0.094428,0.64904,0.7503
1631118284310,-0.09406199999999999,0.64904,0.749629
1631118284320,-0.094611,0.649833,0.750117
1631118284329,-0.094794,0.650443,0.749995
1631118284339,-0.093635,0.651236,0.750178
1631118284348,-0.094001,0.65148,0.750178
1631118284358,-0.094489,0.651053,0.750788
1631118284368,-0.09528199999999999,0.652334,0.7506659999999999
1631118284377,-0.09577,0.651053,0.748592
1631118284387,-0.09638,0.651236,0.748348
1631118284396,-0.096868,0.650138,0.748958
1631118284406,-0.096929,0.650321,0.749995
1631118284416,-0.096014,0.650138,0.749385
1631118284425,-0.095648,0.650931,0.749629
1631118284435,-0.097112,0.650565,0.7503
1631118284444,-0.096746,0.650626,0.749873
1631118284454,-0.096624,0.650565,0.750483
1631118284464,-0.097722,0.650687,0.750544
1631118284473,-0.096868,0.649589,0.750544
1631118284483,-0.096685,0.650504,0.750239
1631118284492,-0.096136,0.650138,0.751032
1631118284502,-0.096624,0.650016,0.750361
1631118284512,-0.095831,0.650382,0.749873
1631118284521,-0.09577,0.650443,0.75091
1631118284531,-0.096075,0.649894,0.750117
1631118284540,-0.096075,0.649528,0.750361
1631118284550,-0.095343,0.649955,0.7503
1631118284560,-0.09577,0.650443,0.750056
1631118284569,-0.09528199999999999,0.650687,0.749751
1631118284579,-0.094245,0.650992,0.7512759999999999
1631118284588,-0.09394,0.65026,0.7518859999999999
1631118284598,-0.094855,0.650138,0.751642
1631118284608,-0.093574,0.648613,0.751093
1631118284617,-0.093269,0.648857,0.752252
1631118284627,-0.093513,0.648613,0.752923
1631118284636,-0.093757,0.648369,0.752435
1631118284646,-0.092903,0.647759,0.7524959999999999
1631118284656,-0.093391,0.647393,0.753228
1631118284665,-0.093269,0.646905,0.753777
1631118284675,-0.093208,0.647454,0.752923
1631118284684,-0.092171,0.647698,0.753045
1631118284694,-0.093452,0.647942,0.753472
1631118284704,-0.092903,0.647576,0.753228
1631118284713,-0.09265899999999999,0.64843,0.75335
1631118284723,-0.092171,0.649284,0.753167
1631118284732,-0.093086,0.649406,0.752618
1631118284742,-0.092171,0.648003,0.7509709999999999
1631118284752,-0.092415,0.647698,0.7509709999999999
1631118284761,-0.092293,0.64904,0.7518859999999999
1631118284771,-0.09204899999999999,0.650077,0.7509709999999999
1631118284780,-0.09272,0.649711,0.749446
1631118284790,-0.093208,0.650809,0.749202
1631118284800,-0.09204899999999999,0.6527,0.75091
1631118284809,-0.091256,0.653005,0.7503
1631118284819,-0.091622,0.650504,0.750605
1631118284828,-0.093208,0.6451359999999999,0.748958
1631118284838,-0.093818,0.642452,0.749629
1631118284848,-0.09406199999999999,0.643123,0.751032
1631118284857,-0.093147,0.644892,0.7521909999999999
1631118284867,-0.092415,0.647027,0.7540209999999999
1631118284876,-0.092842,0.648186,0.7549359999999999
1631118284886,-0.092903,0.64721,0.75335
1631118284896,-0.093818,0.6457459999999999,0.7537159999999999
1631118284905,-0.09467199999999999,0.64477,0.7549359999999999
1631118284915,-0.094001,0.644709,0.756278
1631118284924,-0.094123,0.644648,0.7567659999999999
1631118284934,-0.094245,0.645502,0.755668
1631118284944,-0.09406199999999999,0.647027,0.7552409999999999
1631118284953,-0.095099,0.646905,0.75335
1631118284963,-0.094001,0.648064,0.752618
1631118284972,-0.094245,0.650321,0.751642
1631118284982,-0.094794,0.650809,0.750788
1631118284992,-0.094306,0.649711,0.7509709999999999
1631118285001,-0.09406199999999999,0.650382,0.750422
1631118285011,-0.09406199999999999,0.649772,0.749751
1631118285020,-0.093391,0.649345,0.750849
1631118285030,-0.093574,0.648796,0.751032
1631118285040,-0.093574,0.647698,0.7528009999999999
1631118285049,-0.092598,0.64843,0.7524959999999999
1631118285059,-0.092964,0.649284,0.754143
1631118285068,-0.092903,0.649955,0.755058
1631118285078,-0.092476,0.648491,0.754875
1631118285088,-0.093513,0.646234,0.753533
1631118285097,-0.093818,0.644648,0.753045
1631118285107,-0.094794,0.64416,0.752435
1631118285116,-0.093452,0.6451359999999999,0.752008
1631118285126,-0.093635,0.645929,0.752923
1631118285136,-0.093574,0.647698,0.7537159999999999
1631118285145,-0.093818,0.648186,0.754509
1631118285155,-0.093879,0.649101,0.7534109999999999
1631118285164,-0.093818,0.649101,0.752679
1631118285174,-0.094123,0.647881,0.752069
1631118285184,-0.09558699999999999,0.648674,0.751398
1631118285193,-0.09558699999999999,0.64904,0.7503
1631118285203,-0.09638,0.648857,0.750056
1631118285212,-0.09589199999999999,0.649406,0.74969
1631118285222,-0.096319,0.64965,0.750178
1631118285232,-0.09638,0.649162,0.750849
1631118285241,-0.096136,0.649345,0.750605
1631118285251,-0.096563,0.648857,0.750239
1631118285260,-0.096807,0.649284,0.751215
1631118285270,-0.09638,0.648491,0.752862
1631118285280,-0.096807,0.64843,0.75274
1631118285289,-0.097722,0.647698,0.752374
1631118285299,-0.097356,0.648003,0.752313
1631118285308,-0.09698999999999999,0.648003,0.752862
1631118285318,-0.098088,0.647759,0.752557
1631118285328,-0.097722,0.648247,0.753228
1631118285337,-0.097234,0.647637,0.7540209999999999
1631118285347,-0.09759999999999999,0.648064,0.75335
1631118285356,-0.097783,0.648186,0.75274
1631118285366,-0.097173,0.647515,0.751703
1631118285376,-0.097722,0.64721,0.752374
1631118285385,-0.09729499999999999,0.647881,0.751947
1631118285395,-0.097112,0.647698,0.751398
1631118285404,-0.097051,0.647942,0.751703
1631118285414,-0.096685,0.648735,0.751459
1631118285424,-0.096807,0.648003,0.751215
1631118285433,-0.09638,0.648552,0.75213
1631118285443,-0.09589199999999999,0.648125,0.7524959999999999
1631118285452,-0.095465,0.648491,0.75274
1631118285462,-0.096014,0.648369,0.753228
1631118285472,-0.095465,0.647576,0.7524959999999999
1631118285481,-0.095465,0.646661,0.752923
1631118285491,-0.095221,0.646966,0.752252
1631118285500,-0.095221,0.646966,0.752374
1631118285510,-0.095648,0.647027,0.752984
1631118285520,-0.095038,0.646844,0.754082
1631118285529,-0.094245,0.646112,0.752679
1631118285539,-0.094123,0.646295,0.7537159999999999
1631118285548,-0.094184,0.645929,0.7534109999999999
1631118285558,-0.094611,0.646844,0.753594
1631118285568,-0.094184,0.646173,0.753533
1631118285577,-0.094794,0.646234,0.75274
1631118285587,-0.094489,0.646722,0.753655
1631118285596,-0.09455,0.646234,0.753472
1631118285606,-0.094245,0.647149,0.753472
1631118285616,-0.094001,0.647637,0.753045
1631118285625,-0.09394,0.648064,0.7518859999999999
1631118285635,-0.094916,0.646783,0.751398
1631118285644,-0.095465,0.647515,0.7509709999999999
1631118285654,-0.095038,0.648613,0.7518859999999999
1631118285664,-0.094733,0.648491,0.752984
1631118285673,-0.094428,0.649162,0.751093
1631118285683,-0.095526,0.649772,0.749934
1631118285692,-0.094245,0.651907,0.75152
1631118285702,-0.092842,0.651846,0.752435
1631118285712,-0.093208,0.648857,0.7512759999999999
1631118285721,-0.094001,0.6448309999999999,0.75091
1631118285731,-0.094794,0.6423909999999999,0.751032
1631118285740,-0.094611,0.64233,0.75152
1631118285750,-0.09558699999999999,0.644892,0.753167
1631118285760,-0.09406199999999999,0.647271,0.75396
1631118285769,-0.094001,0.647332,0.75457
1631118285779,-0.094306,0.648064,0.755424
1631118285788,-0.09436699999999999,0.647271,0.756522
1631118285798,-0.095221,0.645319,0.755363
1631118285808,-0.094001,0.645807,0.755973
1631118285817,-0.09455,0.6451359999999999,0.755607
1631118285827,-0.095038,0.644282,0.75457
1631118285836,-0.09497699999999999,0.6457459999999999,0.752923
1631118285846,-0.094489,0.646112,0.75213
1631118285856,-0.095648,0.648308,0.752008
1631118285865,-0.09497699999999999,0.648491,0.751032
1631118285875,-0.09516,0.648186,0.751032
1631118285884,-0.094916,0.648979,0.74969
1631118285894,-0.094855,0.649223,0.749812
1631118285904,-0.094489,0.648125,0.750727
1631118285913,-0.095526,0.647454,0.751703
1631118285923,-0.09497699999999999,0.646112,0.751764
1631118285932,-0.094733,0.647088,0.7521909999999999
1631118285942,-0.094184,0.64843,0.75396
1631118285952,-0.093818,0.649284,0.755729
1631118285961,-0.092598,0.649162,0.75579
1631118285971,-0.09333,0.646722,0.7552409999999999
1631118285980,-0.094245,0.6445259999999999,0.754082
1631118285990,-0.094611,0.643733,0.753167
1631118286000,-0.09558699999999999,0.643977,0.7531059999999999
1631118286009,-0.094245,0.644892,0.752923
1631118286019,-0.094306,0.646295,0.752435
1631118286028,-0.09516,0.64782,0.752679
1631118286038,-0.095526,0.647332,0.751398
1631118286048,-0.095343,0.647454,0.751764
1631118286057,-0.095404,0.647393,0.751642
1631118286067,-0.095953,0.647576,0.7515809999999999
1631118286076,-0.096075,0.648003,0.7512759999999999
1631118286086,-0.09698999999999999,0.646783,0.7515809999999999
1631118286096,-0.097844,0.647637,0.7512759999999999
1631118286105,-0.097966,0.648491,0.752069
1631118286115,-0.097783,0.649589,0.75152
1631118286124,-0.098454,0.649711,0.751825
1631118286134,-0.09820999999999999,0.64904,0.7515809999999999
1631118286144,-0.09851499999999999,0.649101,0.7518859999999999
1631118286153,-0.099064,0.648735,0.752313
1631118286163,-0.098698,0.648979,0.752069
1631118286172,-0.099796,0.646905,0.750788
1631118286182,-0.10065,0.647332,0.751459
1631118286192,-0.099735,0.64782,0.751703
1631118286201,-0.100467,0.647271,0.75213
1631118286211,-0.100589,0.646783,0.7524959999999999
1631118286220,-0.100894,0.647027,0.75213
1631118286230,-0.100101,0.647576,0.752923
1631118286240,-0.099796,0.647271,0.753167
1631118286249,-0.100101,0.647759,0.7524959999999999
1631118286259,-0.100162,0.64843,0.753228
1631118286268,-0.099796,0.648491,0.753228
1631118286278,-0.100162,0.647698,0.752923
1631118286288,-0.100345,0.647576,0.752618
1631118286297,-0.099796,0.647759,0.752313
1631118286307,-0.098698,0.648125,0.752557
1631118286316,-0.098759,0.647942,0.7521909999999999
1631118286326,-0.099247,0.648857,0.75152
1631118286336,-0.098332,0.647881,0.751398
1631118286345,-0.098942,0.647088,0.752252
1631118286355,-0.098637,0.64782,0.751764
1631118286364,-0.097173,0.647576,0.752679
1631118286374,-0.097356,0.647759,0.7528009999999999
1631118286384,-0.096929,0.647149,0.753228
1631118286393,-0.097173,0.646173,0.753289
1631118286403,-0.096014,0.645929,0.752618
1631118286412,-0.09638,0.646234,0.752618
1631118286422,-0.096319,0.645929,0.75335
1631118286432,-0.096685,0.646051,0.753777
1631118286441,-0.096136,0.645197,0.7537159999999999
1631118286451,-0.095526,0.645258,0.754204
1631118286460,-0.096075,0.645197,0.754082
1631118286470,-0.095709,0.645014,0.75457
1631118286480,-0.095526,0.6451359999999999,0.7543259999999999
1631118286489,-0.095038,0.645563,0.754753
1631118286499,-0.094123,0.646966,0.755912
1631118286508,-0.094245,0.647271,0.755424
1631118286518,-0.094611,0.647271,0.754997
1631118286528,-0.09558699999999999,0.646356,0.7534109999999999
1631118286537,-0.095526,0.646234,0.75274
1631118286547,-0.09455,0.647454,0.752862
1631118286556,-0.095038,0.649711,0.7528009999999999
1631118286566,-0.094611,0.648308,0.751032
1631118286576,-0.094489,0.648308,0.748897
1631118286585,-0.094184,0.650809,0.749873
1631118286595,-0.09333,0.652456,0.752252
1631118286604,-0.093391,0.650992,0.752374
1631118286614,-0.093696,0.645563,0.751032
1631118286624,-0.095221,0.642818,0.750605
1631118286633,-0.094916,0.642757,0.7512759999999999
1631118286643,-0.094916,0.644465,0.753228
1631118286652,-0.094184,0.64721,0.754448
1631118286662,-0.092964,0.648003,0.756217
1631118286672,-0.093391,0.648064,0.7564
1631118286681,-0.094794,0.649162,0.756644
1631118286691,-0.09528199999999999,0.648552,0.757132
1631118286700,-0.095526,0.64599,0.7552409999999999
1631118286710,-0.094794,0.645502,0.754204
1631118286720,-0.095404,0.644587,0.752679
1631118286729,-0.095038,0.644648,0.7518859999999999
1631118286739,-0.093757,0.646112,0.751459
1631118286748,-0.094489,0.647027,0.750544
1631118286758,-0.093574,0.648491,0.749446
1631118286768,-0.093635,0.649772,0.7503
1631118286777,-0.093086,0.649772,0.750117
1631118286787,-0.093086,0.650382,0.7509709999999999
1631118286796,-0.092842,0.650321,0.7515809999999999
1631118286806,-0.092598,0.64721,0.751459
1631118286816,-0.09272,0.648247,0.7515809999999999
1631118286825,-0.091561,0.65026,0.753228
1631118286835,-0.091073,0.650443,0.754692
1631118286844,-0.091378,0.651175,0.75396
1631118286854,-0.090829,0.648247,0.754204
1631118286864,-0.091317,0.645563,0.753655
1631118286873,-0.091561,0.64416,0.753228
1631118286883,-0.090524,0.643855,0.753533
1631118286892,-0.090341,0.6439159999999999,0.753228
1631118286902,-0.089487,0.644465,0.753533
1631118286912,-0.090036,0.645685,0.7534109999999999
1631118286921,-0.089853,0.646478,0.753045
1631118286931,-0.08851099999999999,0.646966,0.753655
1631118286940,-0.08973099999999999,0.647576,0.7537159999999999
1631118286950,-0.08967,0.646844,0.752862
1631118286960,-0.091317,0.646478,0.751215
1631118286969,-0.091317,0.647271,0.751093
1631118286979,-0.091622,0.648003,0.751398
1631118286988,-0.091988,0.646783,0.7512759999999999
1631118286998,-0.09204899999999999,0.647576,0.751337
1631118287008,-0.092476,0.648064,0.7512759999999999
1631118287017,-0.09211,0.64843,0.751398
1631118287027,-0.092537,0.648613,0.7528009999999999
1631118287036,-0.09272,0.649101,0.752374
1631118287046,-0.093696,0.647759,0.753533
1631118287056,-0.094184,0.647515,0.754448
1631118287065,-0.094184,0.647454,0.75457
1631118287075,-0.09467199999999999,0.648186,0.755302
1631118287084,-0.094245,0.647271,0.754814
1631118287094,-0.095099,0.647942,0.753594
1631118287104,-0.09589199999999999,0.647149,0.752984
1631118287113,-0.09577,0.64782,0.753045
1631118287123,-0.09589199999999999,0.64843,0.75213
1631118287132,-0.095831,0.64904,0.752435
1631118287142,-0.096258,0.648918,0.751764
1631118287152,-0.096624,0.647881,0.751215
1631118287161,-0.096685,0.648125,0.7503
1631118287171,-0.096929,0.64904,0.7506659999999999
1631118287180,-0.09638,0.649589,0.750361
1631118287190,-0.096624,0.650077,0.750117
1631118287200,-0.09638,0.650565,0.7506659999999999
1631118287209,-0.097112,0.650565,0.750605
1631118287219,-0.097234,0.650565,0.751154
1631118287228,-0.09698999999999999,0.649894,0.7515809999999999
1631118287238,-0.09698999999999999,0.649345,0.7512759999999999
1631118287248,-0.097173,0.647881,0.7515809999999999
1631118287257,-0.096441,0.648064,0.752679
1631118287267,-0.095465,0.647637,0.752862
1631118287276,-0.09638,0.648186,0.753899
1631118287286,-0.095709,0.647393,0.753655
1631118287296,-0.095526,0.647637,0.754875
1631118287305,-0.095831,0.646844,0.754997
1631118287315,-0.094794,0.647149,0.7546309999999999
1631118287324,-0.094306,0.647088,0.753777
1631118287334,-0.09394,0.6466,0.753533
1631118287344,-0.094428,0.6466,0.753838
1631118287353,-0.09394,0.645868,0.752923
1631118287363,-0.093818,0.646112,0.753777
1631118287372,-0.09406199999999999,0.6466,0.753533
1631118287382,-0.093696,0.646173,0.75274
1631118287392,-0.094306,0.645685,0.752618
1631118287401,-0.094306,0.646478,0.7524959999999999
1631118287411,-0.093574,0.646661,0.752862
1631118287420,-0.093208,0.648247,0.752618
1631118287430,-0.093818,0.648552,0.752862
1631118287440,-0.094306,0.648491,0.7518859999999999
1631118287449,-0.094428,0.649772,0.752374
1631118287459,-0.09394,0.649833,0.753533
1631118287468,-0.092964,0.648186,0.7537159999999999
1631118287478,-0.093513,0.6448309999999999,0.752557
1631118287488,-0.093635,0.642818,0.752557
1631118287497,-0.09394,0.642513,0.753655
1631118287507,-0.09235399999999999,0.645319,0.7552409999999999
1631118287516,-0.09089,0.647576,0.755973
1631118287526,-0.091012,0.647515,0.756522
1631118287536,-0.0915,0.646417,0.755668
1631118287545,-0.092171,0.6439159999999999,0.755302
1631118287555,-0.092537,0.642269,0.7546309999999999
1631118287564,-0.091866,0.64111,0.753594
1631118287574,-0.0915,0.641232,0.75396
1631118287584,-0.09204899999999999,0.641293,0.75335
1631118287593,-0.090524,0.641964,0.75335
1631118287603,-0.089792,0.6433059999999999,0.753655
1631118287612,-0.090524,0.643794,0.754448
1631118287622,-0.089975,0.644953,0.753838
1631118287632,-0.090524,0.645624,0.755668
1631118287641,-0.090951,0.645563,0.75579
1631118287651,-0.089853,0.644953,0.75701
1631118287660,-0.091012,0.64355,0.757254
1631118287670,-0.090524,0.6430009999999999,0.7564
1631118287680,-0.090646,0.645319,0.7570709999999999
1631118287689,-0.089853,0.646722,0.756888
1631118287699,-0.089853,0.647027,0.758474
1631118287708,-0.089304,0.6445259999999999,0.7576809999999999
1631118287718,-0.09089,0.642208,0.7552409999999999
1631118287728,-0.090097,0.642025,0.755668
1631118287737,-0.089487,0.642452,0.7564
1631118287747,-0.089243,0.6436109999999999,0.75579
1631118287756,-0.089914,0.643733,0.756278
1631118287766,-0.090158,0.645502,0.755607
1631118287776,-0.090768,0.644343,0.755607
1631118287785,-0.09028,0.644099,0.755363
1631118287795,-0.091256,0.6442209999999999,0.755363
1631118287804,-0.090951,0.64416,0.7555459999999999
1631118287814,-0.09089,0.643367,0.756095
1631118287824,-0.091805,0.6439159999999999,0.756522
1631118287833,-0.09272,0.645563,0.7564609999999999
1631118287843,-0.093208,0.64538,0.7561559999999999
1631118287852,-0.092537,0.6454409999999999,0.756522
1631118287862,-0.093635,0.646905,0.75579
1631118287872,-0.093696,0.646661,0.7561559999999999
1631118287881,-0.09436699999999999,0.647088,0.754814
1631118287891,-0.095099,0.646722,0.754814
1631118287900,-0.094855,0.646783,0.75457
1631118287910,-0.094916,0.645807,0.754204
1631118287920,-0.09558699999999999,0.6457459999999999,0.754692
1631118287929,-0.095404,0.646234,0.753777
1631118287939,-0.095343,0.646478,0.753045
1631118287948,-0.094794,0.646966,0.7524959999999999
1631118287958,-0.09467199999999999,0.64599,0.752435
1631118287968,-0.09455,0.645563,0.752435
1631118287977,-0.09528199999999999,0.645807,0.752557
1631118287987,-0.094916,0.645624,0.752252
1631118287996,-0.094794,0.646112,0.752862
1631118288006,-0.094428,0.645807,0.752862
1631118288016,-0.094123,0.646539,0.751764
1631118288025,-0.094489,0.645807,0.751764
1631118288035,-0.09436699999999999,0.646417,0.75274
1631118288044,-0.093818,0.647027,0.75274
1631118288054,-0.094184,0.646112,0.753228
1631118288064,-0.09406199999999999,0.6466,0.753594
1631118288073,-0.093635,0.646234,0.753228
1631118288083,-0.09394,0.646112,0.754875
1631118288092,-0.094123,0.646844,0.754265
1631118288102,-0.093208,0.646539,0.754143
1631118288112,-0.093635,0.64538,0.754204
1631118288121,-0.092293,0.645197,0.7549359999999999
1631118288131,-0.092842,0.644892,0.755607
1631118288140,-0.092476,0.645075,0.7558509999999999
1631118288150,-0.092476,0.644404,0.755302
1631118288160,-0.092903,0.6448309999999999,0.756644
1631118288169,-0.092842,0.64416,0.756644
1631118288179,-0.09265899999999999,0.643733,0.7570709999999999
1631118288188,-0.09265899999999999,0.6442209999999999,0.756644
1631118288198,-0.091683,0.643367,0.757254
1631118288208,-0.09265899999999999,0.643672,0.75701
1631118288217,-0.093513,0.6439159999999999,0.757559
1631118288227,-0.092781,0.6430009999999999,0.757498
1631118288236,-0.093391,0.642513,0.756217
1631118288246,-0.093574,0.6430009999999999,0.755912
1631118288256,-0.093452,0.64416,0.757254
1631118288265,-0.092598,0.646783,0.757498
1631118288275,-0.09333,0.6466,0.756095
1631118288284,-0.09436699999999999,0.64782,0.754692
1631118288294,-0.092903,0.649589,0.754814
1631118288304,-0.09174399999999999,0.648552,0.754265
1631118288313,-0.093025,0.646539,0.7540209999999999
1631118288323,-0.093696,0.6420859999999999,0.751764
1631118288332,-0.095404,0.639402,0.751154
1631118288342,-0.09467199999999999,0.63806,0.7524959999999999
1631118288352,-0.093818,0.642574,0.754387
1631118288361,-0.093086,0.645014,0.7552409999999999
1631118288371,-0.092842,0.645868,0.755668
1631118288380,-0.093086,0.647088,0.755668
1631118288390,-0.09235399999999999,0.644892,0.756522
1631118288400,-0.093147,0.6433059999999999,0.75701
1631118288409,-0.093391,0.64111,0.757742
1631118288419,-0.093696,0.6408659999999999,0.757498
1631118288428,-0.093513,0.640805,0.75579
1631118288438,-0.093818,0.643062,0.756034
1631118288448,-0.092964,0.6439159999999999,0.7564
1631118288457,-0.09272,0.6448309999999999,0.7552409999999999
1631118288467,-0.092232,0.647088,0.755119
1631118288476,-0.092232,0.6466,0.755363
1631118288486,-0.091988,0.647332,0.755119
1631118288496,-0.091256,0.646783,0.755973
1631118288505,-0.09089,0.6454409999999999,0.75518
1631118288515,-0.090524,0.643733,0.755119
1631118288524,-0.090768,0.642574,0.75518
1631118288534,-0.090768,0.642818,0.7543259999999999
1631118288544,-0.089975,0.6448309999999999,0.7564609999999999
1631118288553,-0.088084,0.646478,0.757315
1631118288563,-0.088572,0.6466,0.757498
1631118288572,-0.089548,0.644343,0.7567659999999999
1631118288582,-0.08906,0.642635,0.756522
1631118288592,-0.089365,0.642147,0.756827
1631118288601,-0.089914,0.642879,0.757193
1631118288611,-0.089609,0.643245,0.756888
1631118288620,-0.089548,0.644648,0.755363
1631118288630,-0.08912099999999999,0.645319,0.755607
1631118288640,-0.08906,0.64599,0.754692
1631118288649,-0.089914,0.646112,0.755302
1631118288659,-0.08967,0.646173,0.754204
1631118288668,-0.090707,0.6451359999999999,0.753838
1631118288678,-0.09089,0.645075,0.753289
1631118288688,-0.091378,0.645014,0.75274
1631118288697,-0.091317,0.646539,0.7528009999999999
1631118288707,-0.090768,0.647088,0.752435
1631118288716,-0.091195,0.648552,0.75335
1631118288726,-0.090341,0.64782,0.753655
1631118288736,-0.091195,0.648308,0.753533
1631118288745,-0.091195,0.647637,0.753533
1631118288755,-0.091622,0.647515,0.753472
1631118288764,-0.092476,0.645807,0.753594
1631118288774,-0.091988,0.64477,0.753899
1631118288784,-0.091256,0.644648,0.753167
1631118288793,-0.09204899999999999,0.645197,0.7537159999999999
1631118288803,-0.091927,0.644404,0.754448
1631118288812,-0.091012,0.645197,0.7546309999999999
1631118288822,-0.091683,0.645075,0.755424
1631118288832,-0.091622,0.64477,0.75518
1631118288841,-0.09174399999999999,0.64416,0.755607
1631118288851,-0.091622,0.643489,0.75579
1631118288860,-0.091622,0.644343,0.75579
1631118288870,-0.091317,0.643245,0.75518
1631118288880,-0.091927,0.64416,0.755912
1631118288889,-0.092232,0.64355,0.755424
1631118288899,-0.092171,0.644648,0.756095
1631118288908,-0.092476,0.644343,0.75579
1631118288918,-0.092476,0.6451359999999999,0.755729
1631118288928,-0.092415,0.645685,0.7549359999999999
1631118288937,-0.092476,0.644648,0.754997
1631118288947,-0.093696,0.6457459999999999,0.755058
1631118288956,-0.093147,0.64538,0.7552409999999999
1631118288966,-0.092293,0.6439159999999999,0.75579
1631118288976,-0.092476,0.644099,0.756644
1631118288985,-0.09235399999999999,0.644099,0.756888
1631118288995,-0.091805,0.643062,0.756644
1631118289004,-0.091378,0.642757,0.7576809999999999
1631118289014,-0.09174399999999999,0.641903,0.756217
1631118289024,-0.09174399999999999,0.6420859999999999,0.757315
1631118289033,-0.091683,0.642147,0.756644
1631118289043,-0.092171,0.64111,0.756888
1631118289052,-0.09143899999999999,0.642635,0.75762
1631118289062,-0.091683,0.64355,0.758535
1631118289072,-0.09204899999999999,0.643245,0.758413
1631118289081,-0.093391,0.6420859999999999,0.757193
1631118289091,-0.092415,0.642025,0.756034
1631118289100,-0.093391,0.642879,0.757193
1631118289110,-0.09265899999999999,0.643977,0.756705
1631118289120,-0.09265899999999999,0.6426959999999999,0.756217
1631118289129,-0.093452,0.643733,0.754082
1631118289139,-0.093452,0.644648,0.754265
1631118289148,-0.093452,0.646356,0.755912
1631118289158,-0.091622,0.645807,0.7555459999999999
1631118289168,-0.093513,0.643245,0.753899
1631118289177,-0.095221,0.640439,0.753472
1631118289187,-0.09589199999999999,0.638182,0.7543259999999999
1631118289196,-0.095221,0.63928,0.754875
1631118289206,-0.094733,0.641232,0.756217
1631118289216,-0.095648,0.642879,0.7576809999999999
1631118289225,-0.095526,0.643245,0.757803
1631118289235,-0.09589199999999999,0.641537,0.7579859999999999
1631118289244,-0.096319,0.642147,0.7589009999999999
1631118289254,-0.09558699999999999,0.641354,0.7589009999999999
1631118289264,-0.09698999999999999,0.640073,0.7601209999999999
1631118289273,-0.096502,0.639402,0.759572
1631118289283,-0.096929,0.6399509999999999,0.7589009999999999
1631118289292,-0.096685,0.640744,0.758657
1631118289302,-0.097234,0.6420859999999999,0.7582909999999999
1631118289312,-0.096868,0.643367,0.757193
1631118289321,-0.096502,0.643672,0.757315
1631118289331,-0.096441,0.6436109999999999,0.757132
1631118289340,-0.09698999999999999,0.644038,0.7564
1631118289350,-0.096929,0.643672,0.756034
1631118289360,-0.096136,0.6433059999999999,0.7564
1631118289369,-0.096868,0.64172,0.756522
1631118289379,-0.096136,0.6408659999999999,0.7564
1631118289388,-0.096807,0.642757,0.755912
1631118289398,-0.095831,0.6433059999999999,0.7576809999999999
1631118289408,-0.095038,0.644282,0.75884
1631118289417,-0.09467199999999999,0.644099,0.7579859999999999
1631118289427,-0.096502,0.642269,0.757559
1631118289436,-0.096746,0.6390359999999999,0.7558509999999999
1631118289446,-0.09698999999999999,0.6390359999999999,0.7561559999999999
1631118289456,-0.097112,0.640317,0.756644
1631118289465,-0.096868,0.6405,0.7567659999999999
1631118289475,-0.096014,0.642147,0.755973
1631118289484,-0.097112,0.641842,0.756644
1631118289494,-0.096502,0.643123,0.75701
1631118289504,-0.096868,0.6433059999999999,0.756827
1631118289513,-0.096929,0.642635,0.7558509999999999
1631118289523,-0.097417,0.643245,0.755973
1631118289532,-0.097783,0.643245,0.755912
1631118289542,-0.098942,0.643184,0.7558509999999999
1631118289552,-0.09820999999999999,0.6442209999999999,0.755424
1631118289561,-0.099064,0.6439159999999999,0.755058
1631118289571,-0.099247,0.645075,0.7552409999999999
1631118289580,-0.09881999999999999,0.6445259999999999,0.7546309999999999
1631118289590,-0.099064,0.645014,0.754204
1631118289600,-0.09991799999999999,0.644953,0.754509
1631118289609,-0.10004,0.645014,0.7537159999999999
1631118289619,-0.099857,0.644648,0.754509
1631118289628,-0.099979,0.644343,0.754143
1631118289638,-0.10004,0.643489,0.755424
1631118289648,-0.100345,0.643062,0.754997
1631118289657,-0.100589,0.642879,0.755058
1631118289667,-0.100955,0.643245,0.756095
1631118289676,-0.10065,0.64294,0.756034
1631118289686,-0.099857,0.643123,0.7558509999999999
1631118289696,-0.09991799999999999,0.643062,0.7570709999999999
1631118289705,-0.100284,0.643489,0.756705
1631118289715,-0.10022299999999999,0.644343,0.7564609999999999
1631118289724,-0.099796,0.644099,0.75579
1631118289734,-0.099247,0.64355,0.755912
1631118289744,-0.099979,0.6433059999999999,0.755119
1631118289753,-0.100101,0.644343,0.7549359999999999
1631118289763,-0.099003,0.643245,0.7555459999999999
1631118289772,-0.099003,0.64355,0.75518
1631118289782,-0.099491,0.64355,0.75518
1631118289792,-0.09943,0.64294,0.754265
1631118289801,-0.098942,0.6430009999999999,0.754875
1631118289811,-0.09881999999999999,0.6433059999999999,0.755485
1631118289820,-0.09881999999999999,0.643489,0.754997
1631118289830,-0.098332,0.64294,0.755302
1631118289840,-0.097844,0.6420859999999999,0.755424
1631118289849,-0.097661,0.641598,0.755363
1631118289859,-0.098576,0.640988,0.7561559999999999
1631118289868,-0.098088,0.641293,0.756705
1631118289878,-0.09790499999999999,0.641903,0.7564609999999999
1631118289888,-0.097173,0.642208,0.7576809999999999
1631118289897,-0.097417,0.641659,0.757193
1631118289907,-0.09729499999999999,0.642818,0.756949
1631118289916,-0.09759999999999999,0.6426959999999999,0.757132
1631118289926,-0.098027,0.642513,0.757498
1631118289936,-0.097478,0.64172,0.756217
1631118289945,-0.098088,0.642879,0.756705
1631118289955,-0.097417,0.644099,0.756217
1631118289964,-0.098271,0.644099,0.756217
1631118289974,-0.09759999999999999,0.643428,0.753472
1631118289984,-0.097661,0.644648,0.753045
1631118289993,-0.098088,0.647088,0.7543259999999999
1631118290003,-0.096014,0.646783,0.7549359999999999
1631118290012,-0.095709,0.644404,0.7546309999999999
1631118290022,-0.098088,0.6405609999999999,0.753289
1631118290032,-0.098698,0.6372059999999999,0.753289
1631118290041,-0.099369,0.6381209999999999,0.75396
1631118290051,-0.09820999999999999,0.6417809999999999,0.754997
1631118290060,-0.09881999999999999,0.643733,0.757315
1631118290070,-0.098637,0.644282,0.756949
1631118290080,-0.098698,0.644953,0.757437
1631118290089,-0.099247,0.643733,0.757559
1631118290099,-0.09943,0.641964,0.758169
1631118290108,-0.099613,0.640988,0.7585959999999999
1631118290118,-0.100589,0.641659,0.758047
1631118290128,-0.100467,0.641842,0.7573759999999999
1631118290137,-0.100589,0.64355,0.755302
1631118290147,-0.10065,0.643794,0.7534109999999999
1631118290156,-0.10113799999999999,0.64538,0.75274
1631118290166,-0.099796,0.646356,0.753045
1631118290176,-0.10004,0.646661,0.751825
1631118290185,-0.100589,0.647088,0.75213
1631118290195,-0.099491,0.64538,0.7524959999999999
1631118290204,-0.099857,0.644892,0.751947
1631118290214,-0.099674,0.6423909999999999,0.752435
1631118290224,-0.10022299999999999,0.64355,0.75335
1631118290233,-0.099247,0.6445259999999999,0.75457
1631118290243,-0.09851499999999999,0.6451359999999999,0.7558509999999999
1631118290252,-0.09759999999999999,0.646844,0.757254
1631118290262,-0.098088,0.644892,0.756705
1631118290272,-0.098576,0.6430009999999999,0.75579
1631118290281,-0.099979,0.6420859999999999,0.7549359999999999
1631118290291,-0.099003,0.641537,0.755119
1631118290300,-0.099613,0.642818,0.754875
1631118290310,-0.099186,0.643428,0.755424
1631118290320,-0.098759,0.644343,0.755302
1631118290329,-0.098637,0.644892,0.754753
1631118290339,-0.099552,0.646112,0.755424
1631118290348,-0.098759,0.644892,0.754387
1631118290358,-0.09991799999999999,0.643794,0.752984
1631118290368,-0.09991799999999999,0.644404,0.75335
1631118290377,-0.10022299999999999,0.645258,0.753838
1631118290387,-0.101382,0.645319,0.753777
1631118290396,-0.10065,0.645502,0.75335
1631118290406,-0.10144299999999999,0.645624,0.753838
1631118290416,-0.10052799999999999,0.6454409999999999,0.753777
1631118290425,-0.10065,0.645807,0.754143
1631118290435,-0.101382,0.64538,0.753777
1631118290444,-0.101321,0.646173,0.753655
1631118290454,-0.101687,0.6454409999999999,0.75335
1631118290464,-0.10284599999999999,0.645258,0.753228
1631118290473,-0.10248,0.645258,0.754143
1631118290483,-0.102297,0.6451359999999999,0.754692
1631118290492,-0.101382,0.644892,0.754265
1631118290502,-0.102114,0.644953,0.753899
1631118290512,-0.10205299999999999,0.6445259999999999,0.7537159999999999
1631118290521,-0.101992,0.644648,0.75335
1631118290531,-0.10205299999999999,0.64477,0.7537159999999999
1631118290540,-0.101931,0.643977,0.753594
1631118290550,-0.10113799999999999,0.643428,0.753533
1631118290560,-0.10205299999999999,0.643977,0.75335
1631118290569,-0.101504,0.64416,0.752008
1631118290579,-0.100711,0.644404,0.753533
1631118290588,-0.100345,0.645929,0.753594
1631118290598,-0.10052799999999999,0.645014,0.753472
1631118290608,-0.10065,0.645014,0.753167
1631118290617,-0.10052799999999999,0.645075,0.753594
1631118290627,-0.101626,0.6454409999999999,0.75335
1631118290636,-0.10083299999999999,0.646234,0.753777
1631118290646,-0.100467,0.645258,0.753777
1631118290656,-0.099735,0.644709,0.7540209999999999
1631118290665,-0.099674,0.6442209999999999,0.754265
1631118290675,-0.099247,0.64477,0.753594
1631118290684,-0.099125,0.644404,0.754692
1631118290694,-0.098942,0.643428,0.755729
1631118290704,-0.099308,0.6433059999999999,0.7552409999999999
1631118290713,-0.099552,0.643489,0.7546309999999999
1631118290723,-0.099003,0.64355,0.754143
1631118290732,-0.099003,0.644038,0.754814
1631118290742,-0.09851499999999999,0.644282,0.75579
1631118290752,-0.098759,0.644709,0.756888
1631118290761,-0.098149,0.645258,0.756949
1631118290771,-0.09881999999999999,0.644282,0.757193
1631118290780,-0.098698,0.643062,0.755912
1631118290790,-0.099674,0.643794,0.7555459999999999
1631118290800,-0.098881,0.644587,0.755729
1631118290809,-0.099125,0.645685,0.7564609999999999
1631118290819,-0.099308,0.645624,0.752618
1631118290828,-0.099613,0.6457459999999999,0.749202
1631118290838,-0.098881,0.648491,0.750727
1631118290848,-0.098637,0.65026,0.753472
1631118290857,-0.097966,0.649955,0.753472
1631118290867,-0.098698,0.646295,0.752435
1631118290876,-0.10052799999999999,0.642757,0.750788
1631118290886,-0.10083299999999999,0.640683,0.751215
1631118290896,-0.099369,0.64294,0.753289
1631118290905,-0.09820999999999999,0.645258,0.75396
1631118290915,-0.098576,0.646478,0.7546309999999999
1631118290924,-0.098454,0.647332,0.75518
1631118290934,-0.098942,0.64721,0.754448
1631118290944,-0.099003,0.646722,0.754387
1631118290953,-0.099979,0.644648,0.75274
1631118290963,-0.10004,0.645014,0.7524959999999999
1631118290972,-0.100345,0.644099,0.752984
1631118290982,-0.099796,0.64416,0.7515809999999999
1631118290992,-0.10004,0.644953,0.750361
1631118291001,-0.099552,0.6466,0.751154
1631118291011,-0.099247,0.647393,0.750605
1631118291020,-0.099186,0.647637,0.750849
1631118291030,-0.098698,0.64782,0.75213
1631118291040,-0.098088,0.646722,0.75274
1631118291049,-0.098698,0.647271,0.753472
1631118291059,-0.099735,0.645075,0.7534109999999999
1631118291068,-0.099674,0.646173,0.752557
1631118291078,-0.09851499999999999,0.648064,0.753655
1631118291088,-0.097722,0.648064,0.755058
1631118291097,-0.097051,0.649772,0.754814
1631118291107,-0.097661,0.646783,0.754509
1631118291116,-0.09881999999999999,0.644038,0.75457
1631118291126,-0.098576,0.643123,0.7546309999999999
1631118291136,-0.098576,0.643245,0.7534109999999999
1631118291145,-0.09759999999999999,0.6436109999999999,0.753228
1631118291155,-0.097844,0.644648,0.7528009999999999
1631118291164,-0.099064,0.646051,0.7531059999999999
1631118291174,-0.09851499999999999,0.646661,0.752618
1631118291184,-0.09820999999999999,0.646783,0.753655
1631118291193,-0.098271,0.646234,0.752984
1631118291203,-0.099613,0.647088,0.751154
1631118291212,-0.101199,0.646905,0.750849
1631118291222,-0.10065,0.647027,0.750361
1631118291232,-0.100467,0.647881,0.750605
1631118291241,-0.102236,0.648369,0.75091
1631118291251,-0.10205299999999999,0.647942,0.75091
1631118291260,-0.102541,0.64904,0.751154
1631118291270,-0.102663,0.649162,0.751642
1631118291280,-0.10248,0.649467,0.752618
1631118291289,-0.102724,0.649345,0.752069
1631118291299,-0.103212,0.649101,0.75213
1631118291308,-0.103944,0.648064,0.752008
1631118291318,-0.103944,0.648735,0.751764
1631118291328,-0.105164,0.64721,0.75152
1631118291337,-0.10406599999999999,0.647576,0.7509709999999999
1631118291347,-0.10437099999999999,0.647454,0.750727
1631118291356,-0.1037,0.647088,0.751093
1631118291366,-0.103944,0.646783,0.751032
1631118291376,-0.104798,0.647576,0.750422
1631118291385,-0.10467599999999999,0.648674,0.7506659999999999
1631118291395,-0.104188,0.648247,0.750483
1631118291404,-0.10406599999999999,0.647942,0.750849
1631118291414,-0.1037,0.649528,0.7515809999999999
1631118291424,-0.103639,0.64904,0.751703
1631118291433,-0.103883,0.648308,0.751215
1631118291443,-0.103944,0.649284,0.751215
1631118291452,-0.10345599999999999,0.648369,0.750727
1631118291462,-0.10376099999999999,0.647881,0.7509709999999999
1631118291472,-0.102724,0.647698,0.7509709999999999
1631118291481,-0.102114,0.647698,0.751215
1631118291491,-0.101992,0.64721,0.750544
1631118291500,-0.10187,0.647576,0.750117
1631118291510,-0.101565,0.646844,0.750544
1631118291520,-0.100772,0.646661,0.751093
1631118291529,-0.10126,0.646722,0.751398
1631118291539,-0.101016,0.646356,0.751337
1631118291548,-0.10065,0.6454409999999999,0.751764
1631118291558,-0.10004,0.645929,0.75274
1631118291568,-0.100589,0.646539,0.752008
1631118291577,-0.100162,0.6466,0.75274
1631118291587,-0.099979,0.646905,0.753167
1631118291596,-0.100772,0.6466,0.753777
1631118291606,-0.100589,0.644282,0.7531059999999999
1631118291616,-0.100589,0.644648,0.7534109999999999
1631118291625,-0.10065,0.6451359999999999,0.753289
1631118291635,-0.099857,0.647332,0.754509
1631118291644,-0.099552,0.648918,0.754143
1631118291654,-0.099796,0.647698,0.751947
1631118291664,-0.100467,0.648552,0.752374
1631118291673,-0.10022299999999999,0.650321,0.753838
1631118291683,-0.099613,0.649833,0.753045
1631118291692,-0.099979,0.647759,0.75152
1631118291702,-0.100406,0.6439159999999999,0.750117
1631118291712,-0.100955,0.642147,0.750239
1631118291721,-0.100467,0.644587,0.7503
1631118291731,-0.099552,0.647454,0.752923
1631118291740,-0.09943,0.648796,0.753899
1631118291750,-0.099491,0.648308,0.75457
1631118291760,-0.099552,0.64721,0.7534109999999999
1631118291769,-0.100772,0.645502,0.753594
1631118291779,-0.10022299999999999,0.645014,0.753228
1631118291788,-0.101016,0.643794,0.7537159999999999
1631118291798,-0.10113799999999999,0.643489,0.75335
1631118291808,-0.10144299999999999,0.644892,0.75213
1631118291817,-0.10126,0.64538,0.75091
1631118291827,-0.101565,0.646417,0.751947
1631118291836,-0.10083299999999999,0.647942,0.751398
1631118291846,-0.10022299999999999,0.648064,0.75152
1631118291856,-0.10004,0.648369,0.751642
1631118291865,-0.101321,0.64843,0.752557
1631118291875,-0.100162,0.646295,0.7524959999999999
1631118291884,-0.101199,0.6454409999999999,0.75152
1631118291894,-0.100894,0.646478,0.752679
1631118291904,-0.10065,0.648308,0.75518
1631118291913,-0.099613,0.649833,0.75579
1631118291923,-0.098637,0.650443,0.7564
1631118291932,-0.099674,0.647942,0.755607
1631118291942,-0.100101,0.645563,0.755424
1631118291952,-0.099674,0.64538,0.753777
1631118291961,-0.09881999999999999,0.646234,0.752984
1631118291971,-0.09881999999999999,0.646478,0.752374
1631118291980,-0.099674,0.646539,0.751642
1631118291990,-0.099308,0.646112,0.749873
1631118292000,-0.099552,0.646295,0.750117
1631118292009,-0.099003,0.647332,0.749446
1631118292019,-0.09881999999999999,0.646661,0.748958
1631118292028,-0.098698,0.647515,0.750178
1631118292038,-0.099186,0.647027,0.749751
1631118292048,-0.099735,0.647088,0.749568
1631118292057,-0.100406,0.648674,0.750056
1631118292067,-0.101077,0.648186,0.749629
1631118292076,-0.10144299999999999,0.648003,0.750788
1631118292086,-0.101199,0.64965,0.749812
1631118292096,-0.10083299999999999,0.650077,0.751398
1631118292105,-0.10144299999999999,0.650748,0.751215
1631118292115,-0.102297,0.652273,0.7506659999999999
1631118292124,-0.102907,0.652578,0.74908
1631118292134,-0.103273,0.651846,0.748836
1631118292144,-0.102907,0.652273,0.748043
1631118292153,-0.1037,0.652212,0.746457
1631118292163,-0.104188,0.652822,0.745725
1631118292172,-0.104249,0.652273,0.744688
1631118292182,-0.10431,0.652639,0.744444
1631118292192,-0.105652,0.653249,0.743651
1631118292201,-0.105408,0.6527,0.74237
1631118292211,-0.104798,0.651846,0.743041
1631118292220,-0.105408,0.651053,0.743346
1631118292230,-0.105713,0.652761,0.744383
1631118292240,-0.10577399999999999,0.652639,0.745237
1631118292249,-0.105469,0.653432,0.746457
1631118292259,-0.10614,0.653981,0.746213
1631118292268,-0.105652,0.655323,0.746884
1631118292278,-0.106506,0.655628,0.74664
1631118292288,-0.106872,0.655323,0.746091
1631118292297,-0.106872,0.656238,0.745786
1631118292307,-0.10729899999999999,0.6566649999999999,0.746274
1631118292316,-0.10638399999999999,0.656482,0.745176
1631118292326,-0.10699399999999999,0.655994,0.745176
1631118292336,-0.106628,0.656482,0.745176
1631118292345,-0.10699399999999999,0.6569699999999999,0.744993
1631118292355,-0.10614,0.655689,0.744383
1631118292364,-0.106018,0.656116,0.743529
1631118292374,-0.107787,0.656238,0.744017
1631118292384,-0.106933,0.655018,0.744383
1631118292393,-0.106872,0.654957,0.743956
1631118292403,-0.106811,0.654225,0.743834
1631118292412,-0.107482,0.654591,0.744383
1631118292422,-0.107421,0.6563599999999999,0.745176
1631118292432,-0.107787,0.6578849999999999,0.745054
1631118292441,-0.107665,0.658007,0.74359
1631118292451,-0.108641,0.6581899999999999,0.742614
1631118292460,-0.108641,0.657702,0.7424919999999999
1631118292470,-0.108946,0.659227,0.740845
1631118292480,-0.108946,0.6603249999999999,0.7403569999999999
1631118292489,-0.109129,0.6606299999999999,0.7379169999999999
1631118292499,-0.10961699999999999,0.660447,0.736148
1631118292508,-0.109678,0.662948,0.736575
1631118292518,-0.108458,0.664778,0.738954
1631118292528,-0.107665,0.663802,0.738771
1631118292537,-0.107848,0.660874,0.737368
1631118292547,-0.10961699999999999,0.657824,0.736514
1631118292556,-0.110593,0.655933,0.736331
1631118292566,-0.110593,0.656238,0.736758
1631118292576,-0.109861,0.658129,0.738039
1631118292585,-0.10919,0.659959,0.7388319999999999
1631118292595,-0.109861,0.660691,0.738954
1631118292604,-0.110288,0.660203,0.739564
1631118292614,-0.110044,0.659349,0.739991
1631118292624,-0.109861,0.6584949999999999,0.7406619999999999
1631118292633,-0.110349,0.658129,0.7406619999999999
1631118292643,-0.110776,0.658861,0.741089
1631118292652,-0.11083699999999999,0.658983,0.740235
1631118292662,-0.110715,0.659776,0.73932
1631118292672,-0.11114199999999999,0.6624599999999999,0.737856
1631118292681,-0.110776,0.6630699999999999,0.737063
1631118292691,-0.111386,0.664412,0.736758
1631118292700,-0.11083699999999999,0.664534,0.73688
1631118292710,-0.11102,0.663924,0.736453
1631118292720,-0.111996,0.664656,0.736758
1631118292729,-0.111325,0.664168,0.737124
1631118292739,-0.111325,0.661789,0.736453
1631118292748,-0.112057,0.661667,0.736636
1631118292758,-0.111203,0.663314,0.735904
1631118292768,-0.11053199999999999,0.663741,0.737551
1631118292777,-0.109983,0.6645949999999999,0.7385269999999999
1631118292787,-0.110166,0.663802,0.7385269999999999
1631118292796,-0.11114199999999999,0.660996,0.737734
1631118292806,-0.110898,0.659166,0.7373069999999999
1631118292816,-0.110166,0.659532,0.738161
1631118292825,-0.111386,0.659288,0.738344
1631118292835,-0.111081,0.660264,0.738771
1631118292844,-0.11114199999999999,0.660874,0.7385269999999999
1631118292854,-0.110898,0.661606,0.7391369999999999
1631118292864,-0.110898,0.661972,0.738466
1631118292873,-0.111325,0.660752,0.739198
1631118292883,-0.111752,0.660752,0.738039
1631118292892,-0.112667,0.660752,0.73749
1631118292902,-0.112362,0.660264,0.737795
1631118292912,-0.112606,0.661118,0.738466
1631118292921,-0.111874,0.660508,0.738466
1631118292931,-0.11315499999999999,0.661301,0.738588
1631118292940,-0.114009,0.6618499999999999,0.7376119999999999
1631118292950,-0.113887,0.661484,0.738039
1631118292960,-0.113704,0.660996,0.7382219999999999
1631118292969,-0.113521,0.6606299999999999,0.738283
1631118292979,-0.113521,0.661118,0.7381
1631118292988,-0.114131,0.660386,0.7382219999999999
1631118292998,-0.114924,0.659898,0.738893
1631118293008,-0.114558,0.6594099999999999,0.738588
1631118293017,-0.114253,0.659166,0.739686
1631118293027,-0.11468,0.658434,0.740235
1631118293036,-0.114436,0.658678,0.7412719999999999
1631118293046,-0.114497,0.659166,0.740418
1631118293056,-0.114375,0.658312,0.74054
1631118293065,-0.114253,0.657336,0.740784
1631118293075,-0.113643,0.657763,0.74237
1631118293084,-0.113826,0.657641,0.741394
1631118293094,-0.113948,0.657336,0.741638
1631118293104,-0.11284999999999999,0.658373,0.741455
1631118293113,-0.112728,0.658007,0.742126
1631118293123,-0.112728,0.657397,0.7412719999999999
1631118293132,-0.113094,0.657092,0.7406619999999999
1631118293142,-0.112179,0.657336,0.740784
1631118293152,-0.11163,0.657336,0.741333
1631118293161,-0.112606,0.6563599999999999,0.741028
1631118293171,-0.112179,0.656238,0.741821
1631118293180,-0.111203,0.655994,0.742004
1631118293190,-0.110654,0.656848,0.743346
1631118293200,-0.110898,0.656116,0.743895
1631118293209,-0.110715,0.655994,0.743651
1631118293219,-0.11114199999999999,0.65453,0.744444
1631118293228,-0.11022699999999999,0.654408,0.744993
1631118293238,-0.109678,0.654591,0.745054
1631118293248,-0.109678,0.654774,0.7442
1631118293257,-0.110105,0.654408,0.744322
1631118293267,-0.110715,0.654957,0.745054
1631118293276,-0.110776,0.655628,0.745298
1631118293286,-0.11053199999999999,0.656299,0.744993
1631118293296,-0.110898,0.654774,0.743834
1631118293305,-0.110349,0.654591,0.742736
1631118293315,-0.110654,0.655811,0.74298
1631118293324,-0.110898,0.657031,0.744139
1631118293334,-0.110349,0.656543,0.74298
1631118293344,-0.11163,0.655567,0.740296
1631118293353,-0.111264,0.6569699999999999,0.741089
1631118293363,-0.110654,0.659898,0.742736
1631118293372,-0.109373,0.659959,0.742675
1631118293382,-0.109861,0.656787,0.743041
1631118293392,-0.11102,0.652456,0.740479
1631118293401,-0.11193499999999999,0.650443,0.741455
1631118293411,-0.11223999999999999,0.650809,0.741821
1631118293420,-0.112362,0.653066,0.742919
1631118293430,-0.11193499999999999,0.655994,0.744139
1631118293440,-0.110898,0.656482,0.744322
1631118293449,-0.112057,0.656116,0.744749
1631118293459,-0.111752,0.6560549999999999,0.745237
1631118293468,-0.111996,0.654225,0.745237
1631118293478,-0.112362,0.653188,0.745603
1631118293488,-0.11284999999999999,0.652395,0.744322
1631118293497,-0.113216,0.653493,0.743834
1631118293507,-0.112423,0.654835,0.743529
1631118293516,-0.112484,0.6560549999999999,0.742736
1631118293526,-0.112484,0.657519,0.7418819999999999
1631118293536,-0.112118,0.6581899999999999,0.742004
1631118293545,-0.11315499999999999,0.659044,0.7409669999999999
1631118293555,-0.112972,0.657702,0.7412719999999999
1631118293564,-0.112606,0.657641,0.741211
1631118293574,-0.113094,0.657336,0.741333
1631118293584,-0.112057,0.655628,0.742004
1631118293593,-0.112179,0.65514,0.741516
1631118293603,-0.112179,0.656909,0.741455
1631118293612,-0.111081,0.657946,0.744078
1631118293622,-0.110044,0.6581899999999999,0.74481
1631118293632,-0.11041,0.6575799999999999,0.744688
1631118293641,-0.111691,0.65514,0.743834
1631118293651,-0.111508,0.652578,0.742248
1631118293660,-0.111508,0.6527,0.741821
1631118293670,-0.112423,0.653798,0.741638
1631118293680,-0.11223999999999999,0.653798,0.741638
1631118293689,-0.111813,0.654591,0.7431019999999999
1631118293699,-0.111386,0.656604,0.7427969999999999
1631118293708,-0.111813,0.6560549999999999,0.743224
1631118293718,-0.112423,0.656177,0.742248
1631118293728,-0.113216,0.656543,0.74298
1631118293737,-0.113582,0.656848,0.741943
1631118293747,-0.11406999999999999,0.655994,0.742248
1631118293756,-0.11376499999999999,0.655262,0.741333
1631118293766,-0.115046,0.6566649999999999,0.742126
1631118293776,-0.114802,0.656421,0.74176
1631118293785,-0.115046,0.657031,0.742919
1631118293795,-0.115046,0.657946,0.7418819999999999
1631118293804,-0.115046,0.657824,0.742004
1631118293814,-0.115229,0.657763,0.742126
1631118293824,-0.115717,0.6575799999999999,0.742248
1631118293833,-0.1159,0.657031,0.742126
1631118293843,-0.116144,0.655872,0.741394
1631118293852,-0.116266,0.655384,0.74115
1631118293862,-0.116144,0.6557499999999999,0.74237
1631118293872,-0.116571,0.655323,0.74237
1631118293881,-0.116144,0.6560549999999999,0.742614
1631118293891,-0.115656,0.656543,0.743834
1631118293900,-0.11529,0.655262,0.743895
1631118293910,-0.115656,0.655811,0.743041
1631118293920,-0.115961,0.654896,0.742614
1631118293929,-0.116449,0.6554449999999999,0.742431
1631118293939,-0.11529,0.655933,0.7418819999999999
1631118293948,-0.114619,0.656421,0.7421869999999999
1631118293958,-0.11516799999999999,0.656787,0.7424919999999999
1631118293968,-0.114619,0.656726,0.7424919999999999
1631118293977,-0.115412,0.655811,0.743041
1631118293987,-0.1159,0.656726,0.742248
1631118293996,-0.115046,0.6560549999999999,0.7421869999999999
1631118294006,-0.114192,0.656238,0.742736
1631118294016,-0.114253,0.656299,0.742675
1631118294025,-0.114131,0.655872,0.742126
1631118294035,-0.114131,0.655994,0.743285
1631118294044,-0.113033,0.656726,0.7434069999999999
1631118294054,-0.112667,0.655872,0.742614
1631118294064,-0.11254499999999999,0.655018,0.742919
1631118294073,-0.113399,0.654164,0.744017
1631118294083,-0.112911,0.654286,0.743346
1631118294092,-0.11254499999999999,0.654713,0.744139
1631118294102,-0.112301,0.654591,0.744261
1631118294112,-0.111081,0.654225,0.743834
1631118294121,-0.110471,0.654408,0.743773
1631118294131,-0.111264,0.654713,0.744322
1631118294140,-0.111813,0.655689,0.744383
1631118294150,-0.111447,0.654652,0.7431019999999999
1631118294160,-0.112057,0.653737,0.743041
1631118294169,-0.111813,0.654286,0.743346
1631118294179,-0.11022699999999999,0.656116,0.744566
1631118294188,-0.11102,0.6587999999999999,0.745908
1631118294198,-0.111996,0.656116,0.742736
1631118294208,-0.111691,0.656543,0.740296
1631118294217,-0.110959,0.658556,0.741333
1631118294227,-0.11041,0.660203,0.743895
1631118294236,-0.109983,0.659532,0.743163
1631118294246,-0.109495,0.655628,0.74176
1631118294256,-0.11163,0.652517,0.739564
1631118294265,-0.11163,0.651175,0.740296
1631118294275,-0.11102,0.652944,0.741821
1631118294284,-0.110715,0.653493,0.743163
1631118294294,-0.110593,0.655506,0.743956
1631118294304,-0.109556,0.655506,0.745054
1631118294313,-0.10961699999999999,0.6557499999999999,0.746213
1631118294323,-0.11041,0.656116,0.746335
1631118294332,-0.109983,0.654164,0.745176
1631118294342,-0.110288,0.653127,0.745054
1631118294352,-0.110349,0.652761,0.744261
1631118294361,-0.110959,0.6527,0.743712
1631118294371,-0.11022699999999999,0.653798,0.743834
1631118294380,-0.109983,0.654896,0.743773
1631118294390,-0.110776,0.6560549999999999,0.742858
1631118294400,-0.110044,0.656848,0.743712
1631118294409,-0.1098,0.658434,0.743041
1631118294419,-0.109434,0.657336,0.743529
1631118294428,-0.109678,0.6563599999999999,0.743712
1631118294438,-0.11022699999999999,0.654713,0.74298
1631118294448,-0.1098,0.65514,0.743773
1631118294457,-0.109373,0.657153,0.744688
1631118294467,-0.109373,0.657092,0.745237
1631118294476,-0.107726,0.658007,0.745847
1631118294486,-0.10668899999999999,0.655933,0.74603
1631118294496,-0.107848,0.653737,0.74542
1631118294505,-0.108214,0.652883,0.74481
1631118294515,-0.10736,0.652639,0.744444
1631118294524,-0.107726,0.652822,0.744932
1631118294534,-0.10736,0.652334,0.743529
1631118294544,-0.10760399999999999,0.653249,0.74237
1631118294553,-0.107055,0.65453,0.743346
1631118294563,-0.107055,0.655018,0.742065
1631118294572,-0.108275,0.654957,0.742248
1631118294582,-0.106872,0.654957,0.742736
1631118294592,-0.107177,0.654225,0.742614
1631118294601,-0.108336,0.653432,0.742614
1631118294611,-0.109739,0.653676,0.74176
1631118294620,-0.110288,0.653798,0.7427969999999999
1631118294630,-0.109495,0.654286,0.743651
1631118294640,-0.11102,0.654713,0.744322
1631118294649,-0.11114199999999999,0.655079,0.744261
1631118294659,-0.11102,0.6560549999999999,0.744749
1631118294668,-0.111691,0.655201,0.743956
1631118294678,-0.112911,0.65514,0.744505
1631118294688,-0.112972,0.655018,0.744139
1631118294697,-0.112972,0.654835,0.745176
1631118294707,-0.113826,0.654652,0.745664
1631118294716,-0.114619,0.654408,0.744749
1631118294726,-0.114924,0.654774,0.744688
1631118294736,-0.114802,0.655689,0.745176
1631118294745,-0.115107,0.655628,0.744017
1631118294755,-0.115839,0.6554449999999999,0.7431019999999999
1631118294764,-0.115656,0.655262,0.743834
1631118294774,-0.114924,0.655262,0.7431019999999999
1631118294784,-0.115229,0.656299,0.742919
1631118294793,-0.115717,0.655689,0.7424919999999999
1631118294803,-0.114985,0.655079,0.743346
1631118294812,-0.114253,0.65453,0.744078
1631118294822,-0.114314,0.654286,0.743956
1631118294832,-0.114924,0.654774,0.744566
1631118294841,-0.114436,0.654957,0.743834
1631118294851,-0.113948,0.655262,0.743895
1631118294860,-0.113521,0.654286,0.743773
1631118294870,-0.114009,0.65392,0.744078
1631118294880,-0.114131,0.654713,0.743834
1631118294889,-0.113582,0.654652,0.744139
1631118294899,-0.11376499999999999,0.654652,0.7442
1631118294908,-0.113521,0.654347,0.744261
1631118294918,-0.114009,0.6527,0.743285
1631118294928,-0.113094,0.653005,0.744749
1631118294937,-0.113033,0.653188,0.745664
1631118294947,-0.112728,0.653859,0.746274
1631118294956,-0.11284999999999999,0.653554,0.74603
1631118294966,-0.112728,0.654774,0.745603
1631118294976,-0.113338,0.654652,0.745725
1631118294985,-0.112972,0.654469,0.745847
1631118294995,-0.114009,0.6527,0.745359
1631118295004,-0.114253,0.652578,0.744566
1631118295014,-0.113521,0.653371,0.742553
1631118295024,-0.11376499999999999,0.653432,0.742065
1631118295033,-0.113094,0.655628,0.7434069999999999
1631118295043,-0.112728,0.655689,0.742248
1631118295052,-0.113338,0.655201,0.740723
1631118295062,-0.11345999999999999,0.657946,0.743041
1631118295072,-0.11315499999999999,0.658983,0.745176
1631118295081,-0.113704,0.6584949999999999,0.743773
1631118295091,-0.11315499999999999,0.655079,0.743712
1631118295100,-0.11315499999999999,0.651968,0.742126
1631118295110,-0.113094,0.651785,0.742248
1631118295120,-0.112118,0.653615,0.743956
1631118295129,-0.11114199999999999,0.6560549999999999,0.74481
1631118295139,-0.110471,0.6575799999999999,0.745542
1631118295148,-0.110776,0.657092,0.745908
1631118295158,-0.112118,0.65514,0.744627
1631118295168,-0.112362,0.652578,0.744017
1631118295177,-0.11102,0.6527,0.7434069999999999
1631118295187,-0.111386,0.652029,0.74359
1631118295196,-0.11053199999999999,0.652029,0.74359
1631118295206,-0.110654,0.651907,0.742736
1631118295216,-0.109678,0.653737,0.742858
1631118295225,-0.109983,0.654896,0.742431
1631118295235,-0.110044,0.655018,0.7427969999999999
1631118295244,-0.110288,0.656482,0.743651
1631118295254,-0.110044,0.655384,0.743956
1631118295264,-0.1098,0.655262,0.745298
1631118295273,-0.110593,0.654042,0.746457
1631118295283,-0.11041,0.653798,0.744993
1631118295292,-0.10992199999999999,0.655384,0.745298
1631118295302,-0.1098,0.656177,0.744688
1631118295312,-0.109434,0.656848,0.745054
1631118295321,-0.108702,0.657214,0.744627
1631118295331,-0.108824,0.654713,0.743834
1631118295340,-0.109556,0.652273,0.742858
1631118295350,-0.10858,0.652761,0.742431
1631118295360,-0.108214,0.653676,0.742675
1631118295369,-0.108885,0.653981,0.743712
1631118295379,-0.108458,0.654713,0.742858
1631118295388,-0.10919,0.654774,0.741699
1631118295398,-0.1098,0.655018,0.742431
1631118295408,-0.1098,0.654774,0.7427969999999999
1631118295417,-0.11041,0.654408,0.742919
1631118295427,-0.11053199999999999,0.654469,0.743529
1631118295436,-0.111325,0.654774,0.743956
1631118295446,-0.111447,0.654774,0.744261
1631118295456,-0.11163,0.656177,0.744383
1631118295465,-0.11083699999999999,0.656116,0.74359
1631118295475,-0.111691,0.656238,0.743529
1631118295484,-0.112118,0.6569699999999999,0.742614
1631118295494,-0.112179,0.657153,0.7442
1631118295504,-0.11223999999999999,0.657824,0.743956
1631118295513,-0.112789,0.6575799999999999,0.743773
1631118295523,-0.11284999999999999,0.656482,0.742858
1631118295532,-0.114253,0.657153,0.741638
1631118295542,-0.114375,0.656177,0.741638
1631118295552,-0.113704,0.6557499999999999,0.7415769999999999
1631118295561,-0.114802,0.655384,0.741394
1631118295571,-0.114619,0.654957,0.741943
1631118295580,-0.114253,0.654896,0.7424919999999999
1631118295590,-0.114741,0.654469,0.743224
1631118295600,-0.114802,0.654164,0.742736
1631118295609,-0.11516799999999999,0.654164,0.742736
1631118295619,-0.115046,0.653798,0.743041
1631118295628,-0.115595,0.654103,0.743834
1631118295638,-0.11638799999999999,0.65453,0.744078
1631118295648,-0.11516799999999999,0.653371,0.74359
1631118295657,-0.115656,0.655018,0.743956
1631118295667,-0.114802,0.655323,0.744444
1631118295676,-0.11577799999999999,0.655811,0.744261
1631118295686,-0.1159,0.655933,0.74359
1631118295696,-0.116815,0.657092,0.743651
1631118295705,-0.116632,0.656238,0.742675
1631118295715,-0.115351,0.656604,0.742248
1631118295724,-0.115412,0.6560549999999999,0.7431019999999999
1631118295734,-0.11468,0.655323,0.742431
1631118295744,-0.114558,0.654042,0.74237
