timestamp,ax,ay,az
1629795669339,-0.120292,-0.989359,0.023546
1629795669349,-0.119682,-0.991799,0.017934
1629795669359,-0.117974,-0.995337,0.012505
1629795669368,-0.114131,-0.996618,0.013725
1629795669378,-0.11840099999999999,-0.9916159999999999,0.020984
1629795669387,-0.12505,-0.987468,0.02501
1629795669397,-0.129198,-0.988322,0.0183
1629795669407,-0.127368,-0.996862,0.0035989999999999998
1629795669416,-0.124135,-1.011075,-0.009333
1629795669426,-0.121085,-1.018822,-0.015677
1629795669435,-0.119255,-1.01565,-0.008601
1629795669445,-0.119438,-1.002657,0.0035989999999999998
1629795669455,-0.121756,-0.988749,0.017629
1629795669464,-0.120597,-0.978379,0.024034
1629795669474,-0.120109,-0.976305,0.025193
1629795669483,-0.117486,-0.9849669999999999,0.01769
1629795669493,-0.116144,-0.994544,0.0048189999999999995
1629795669503,-0.118218,-0.998753,-0.008967
1629795669512,-0.11834,-0.996008,-0.015738
1629795669522,-0.119255,-0.986431,-0.017995
1629795669531,-0.118584,-0.978135,-0.015555
1629795669541,-0.11840099999999999,-0.973316,-0.00915
1629795669551,-0.117059,-0.976549,-0.002806
1629795669560,-0.113948,-0.9846619999999999,0.005124
1629795669570,-0.112606,-0.994544,0.00671
1629795669579,-0.110776,-1.004426,0.006222
1629795669589,-0.107238,-1.008147,0.01647
1629795669599,-0.108641,-1.011197,0.022082
1629795669608,-0.10931199999999999,-1.009672,0.025315
1629795669618,-0.108824,-1.005219,0.019459
1629795669627,-0.107177,-1.002047,0.018483
1629795340008,-0.35136,-0.725717,-0.5888329999999999
1629795340018,-0.35197,-0.726022,-0.587552
1629795340028,-0.351177,-0.726266,-0.588162
1629795340037,-0.351848,-0.726998,-0.589809
1629795340047,-0.35136,-0.7272419999999999,-0.5897479999999999
1629795340056,-0.352458,-0.726022,-0.5903579999999999
1629795340066,-0.353922,-0.72407,-0.589809
1629795340076,-0.35404399999999997,-0.724558,-0.590175
1629795340085,-0.353373,-0.725839,-0.590114
1629795340095,-0.352763,-0.726144,-0.588589
1629795340104,-0.353312,-0.726571,-0.587979
1629795340114,-0.353495,-0.725473,-0.588467
1629795340124,-0.353007,-0.723399,-0.585844
1629795340133,-0.354227,-0.722667,-0.585905
1629795340143,-0.35465399999999997,-0.723704,-0.586942
1629795340152,-0.35441,-0.725473,-0.586576
1629795340162,-0.355142,-0.7272419999999999,-0.589016
1629795340172,-0.354227,-0.7287669999999999,-0.591639
1629795340181,-0.355508,-0.7290719999999999,-0.592859
1629795340191,-0.356118,-0.727669,-0.5903579999999999
1629795340200,-0.357277,-0.725473,-0.587735
1629795340210,-0.35831399999999997,-0.723948,-0.586637
1629795340220,-0.358802,-0.724009,-0.5876129999999999
1629795340229,-0.357948,-0.723704,-0.588955
1629795340239,-0.356423,-0.722301,-0.5897479999999999
1629795340248,-0.355203,-0.721752,-0.58987
1629795340258,-0.354471,-0.722911,-0.588467
1629795340268,-0.354288,-0.726876,-0.585966
1629795340277,-0.354532,-0.729316,-0.582794
1629795340287,-0.353678,-0.728523,-0.582916
1629795340296,-0.354593,-0.7259,-0.581696
1629795340306,-0.356118,-0.723765,-0.58255
1629795340316,-0.355142,-0.723582,-0.5856
1629795340325,-0.355996,-0.724558,-0.586576
1629795340335,-0.35556899999999997,-0.725778,-0.587186
1629795340344,-0.35685,-0.7278519999999999,-0.5876129999999999
1629795340354,-0.35587399999999997,-0.729011,-0.585844
1629795340364,-0.356728,-0.7293769999999999,-0.5848679999999999
1629795340373,-0.356728,-0.72956,-0.584746
1629795340383,-0.355447,-0.728706,-0.585112
1629795340392,-0.354715,-0.726449,-0.5856
1629795340402,-0.354532,-0.724375,-0.584624
1629795340412,-0.355386,-0.722423,-0.587857
1629795340421,-0.355508,-0.718824,-0.5882229999999999
1629795340431,-0.358131,-0.717055,-0.588284
1629795340440,-0.358436,-0.7178479999999999,-0.5903579999999999
1629795340450,-0.35800899999999997,-0.721508,-0.593225
1629795340460,-0.356606,-0.725412,-0.594872
1629795340469,-0.35709399999999997,-0.726632,-0.595604
1629795340479,-0.35685,-0.725534,-0.59414
1629795340488,-0.357887,-0.722179,-0.5900529999999999
1629795340498,-0.35739899999999997,-0.720532,-0.588467
1629795340508,-0.356545,-0.721569,-0.5873079999999999
1629795340517,-0.357521,-0.720349,-0.5882229999999999
1629795340527,-0.356423,-0.721935,-0.589016
1629795340536,-0.355935,-0.724314,-0.59048
1629795340546,-0.356972,-0.724558,-0.589016
1629795340556,-0.357887,-0.726571,-0.587674
1629795340565,-0.357155,-0.726754,-0.585966
1629795340575,-0.35807,-0.7272419999999999,-0.585295
1629795340584,-0.357643,-0.728523,-0.5848679999999999
1629795340594,-0.357643,-0.728035,-0.5839529999999999
1629795340604,-0.358375,-0.726815,-0.583282
1629795340613,-0.359168,-0.726632,-0.585905
1629795340623,-0.359107,-0.726327,-0.5860879999999999
1629795340632,-0.358802,-0.725046,-0.586637
1629795340642,-0.360205,-0.72468,-0.589077
1629795340652,-0.36112,-0.724619,-0.588162
1629795340661,-0.360937,-0.722057,-0.586576
1629795340671,-0.362096,-0.72285,-0.584929
1629795340680,-0.361059,-0.724131,-0.584685
1629795340690,-0.362035,-0.725046,-0.582977
1629795340700,-0.360144,-0.727303,-0.584807
1629795340709,-0.359412,-0.72834,-0.585234
1629795340719,-0.359778,-0.726693,-0.58499
1629795340728,-0.360632,-0.726693,-0.582794
1629795340738,-0.36051,-0.725778,-0.580903
1629795340748,-0.36173,-0.725961,-0.58011
1629795340757,-0.361791,-0.727425,-0.579744
1629795340767,-0.361059,-0.728035,-0.578951
1629795340776,-0.361364,-0.728645,-0.580903
1629795340786,-0.361547,-0.728523,-0.580354
1629795340796,-0.361364,-0.727364,-0.579988
1629795340805,-0.362218,-0.726205,-0.580842
1629795340815,-0.36295,-0.727364,-0.582062
1629795340824,-0.363804,-0.726815,-0.582062
1629795340834,-0.363072,-0.726327,-0.582001
1629795340844,-0.36295,-0.726144,-0.581818
1629795340853,-0.36356,-0.725961,-0.582489
1629795340863,-0.361791,-0.725351,-0.583465
1629795340872,-0.362889,-0.724863,-0.584929
1629795340882,-0.364597,-0.723826,-0.5851729999999999
1629795340892,-0.363682,-0.72468,-0.585722
1629795340901,-0.363865,-0.72529,-0.5860879999999999
1629795340911,-0.362767,-0.727059,-0.586149
1629795340920,-0.36173,-0.728279,-0.584807
1629795340930,-0.362523,-0.72651,-0.581574
1629795340940,-0.362767,-0.725961,-0.580476
1629795340949,-0.362645,-0.72346,-0.579805
1629795340959,-0.361791,-0.723338,-0.580537
1629795340968,-0.362706,-0.725168,-0.580232
1629795340978,-0.36295,-0.727974,-0.581208
1629795340988,-0.362584,-0.7302919999999999,-0.583465
1629795340997,-0.36173,-0.7318169999999999,-0.585295
1629795341007,-0.361547,-0.734501,-0.585417
1629795341016,-0.362462,-0.73322,-0.583038
1629795341026,-0.362584,-0.7312069999999999,-0.579561
1629795341036,-0.362706,-0.728035,-0.57706
1629795341045,-0.362523,-0.7269369999999999,-0.576084
1629795341055,-0.360693,-0.728218,-0.576694
1629795341064,-0.3599,-0.728218,-0.580232
1629795341074,-0.35892399999999997,-0.728645,-0.583526
1629795341084,-0.35831399999999997,-0.728523,-0.583221
1629795341093,-0.357765,-0.726632,-0.582367
1629795341103,-0.358253,-0.726266,-0.582733
1629795341112,-0.35831399999999997,-0.725229,-0.58011
1629795341122,-0.357948,-0.725168,-0.580903
1629795341132,-0.358436,-0.725473,-0.580903
1629795341141,-0.358253,-0.726022,-0.581452
1629795341151,-0.357155,-0.726693,-0.582855
1629795341160,-0.355752,-0.727608,-0.583831
1629795341170,-0.357521,-0.727608,-0.582367
1629795341180,-0.358497,-0.7281569999999999,-0.581818
1629795341189,-0.357887,-0.729926,-0.582855
1629795341199,-0.35746,-0.731146,-0.5842579999999999
1629795341208,-0.35739899999999997,-0.731329,-0.58377
1629795341218,-0.357765,-0.7299869999999999,-0.58194
1629795341228,-0.359046,-0.728218,-0.579073
1629795341237,-0.359168,-0.7284619999999999,-0.578768
1629795341247,-0.359473,-0.727364,-0.577548
1629795341256,-0.358863,-0.726815,-0.578524
1629795341266,-0.357521,-0.729499,-0.581757
1629795341276,-0.35807,-0.731695,-0.584746
1629795341285,-0.35892399999999997,-0.732854,-0.586332
1629795341295,-0.359839,-0.731878,-0.5839529999999999
1629795341304,-0.361913,-0.7296819999999999,-0.580903
1629795341314,-0.362096,-0.7278519999999999,-0.577182
1629795341324,-0.362523,-0.7272419999999999,-0.574864
1629795341333,-0.361242,-0.728279,-0.577731
1629795341343,-0.360876,-0.7293769999999999,-0.5795
1629795341352,-0.361486,-0.731695,-0.581208
1629795341362,-0.362462,-0.731756,-0.58255
1629795341372,-0.361547,-0.731695,-0.580964
1629795341381,-0.36295,-0.729499,-0.581147
1629795341391,-0.362401,-0.7278519999999999,-0.580903
1629795341400,-0.36356,-0.727303,-0.580659
1629795341410,-0.363743,-0.726754,-0.580537
1629795341420,-0.363682,-0.726144,-0.579256
1629795341429,-0.36362099999999997,-0.725046,-0.57767
1629795341439,-0.364475,-0.72651,-0.579378
1629795341448,-0.364475,-0.729255,-0.579073
1629795341458,-0.36539,-0.7302919999999999,-0.578951
1629795341468,-0.36356,-0.7299869999999999,-0.5795
1629795341477,-0.36392599999999997,-0.729316,-0.580476
1629795341487,-0.363987,-0.728645,-0.579134
1629795341496,-0.36453599999999997,-0.7287669999999999,-0.578768
1629795341506,-0.365085,-0.72834,-0.577853
1629795341516,-0.36484099999999997,-0.726754,-0.578463
1629795341525,-0.364597,-0.726144,-0.578158
1629795341535,-0.365695,-0.725412,-0.578463
1629795341544,-0.366732,-0.726022,-0.578036
1629795341554,-0.36667099999999997,-0.727425,-0.57767
1629795341564,-0.366122,-0.728401,-0.579012
1629795341573,-0.36661,-0.728096,-0.58011
1629795341583,-0.365634,-0.729255,-0.580598
1629795341592,-0.366427,-0.728279,-0.580537
1629795341602,-0.366793,-0.7269369999999999,-0.578402
1629795341612,-0.367952,-0.725412,-0.577121
1629795341621,-0.367769,-0.726022,-0.578402
1629795341631,-0.367769,-0.726083,-0.579317
1629795341640,-0.366549,-0.727974,-0.580659
1629795341650,-0.36697599999999997,-0.72895,-0.580049
1629795341660,-0.367037,-0.72834,-0.579744
1629795341669,-0.367342,-0.7287669999999999,-0.579012
1629795341679,-0.366732,-0.7296819999999999,-0.579317
1629795341688,-0.365573,-0.7302919999999999,-0.58011
1629795341698,-0.363804,-0.730353,-0.580171
1629795341708,-0.364658,-0.728706,-0.578158
1629795341717,-0.365329,-0.727364,-0.576511
1629795341727,-0.36636599999999997,-0.723582,-0.575169
1629795341736,-0.36606099999999997,-0.723704,-0.57462
1629795341746,-0.36636599999999997,-0.724802,-0.574559
1629795341756,-0.366183,-0.730536,-0.577548
1629795341765,-0.365329,-0.733891,-0.580049
1629795341775,-0.365024,-0.735355,-0.581635
1629795341784,-0.363499,-0.736575,-0.581208
1629795341794,-0.362584,-0.735111,-0.579012
1629795341804,-0.365024,-0.731268,-0.575474
1629795341813,-0.364292,-0.72773,-0.57279
1629795341823,-0.364658,-0.7278519999999999,-0.572363
1629795341832,-0.364109,-0.728279,-0.573522
1629795341842,-0.363804,-0.728096,-0.574803
1629795341852,-0.362889,-0.7287669999999999,-0.575474
1629795341861,-0.362401,-0.730048,-0.576816
1629795341871,-0.36173,-0.731695,-0.576816
1629795341880,-0.360571,-0.7315119999999999,-0.576511
1629795341890,-0.360876,-0.72895,-0.575413
1629795341900,-0.361364,-0.728828,-0.57523
1629795341909,-0.363072,-0.727303,-0.575657
1629795341919,-0.362401,-0.726388,-0.576572
1629795341928,-0.362401,-0.727059,-0.577487
1629795341938,-0.362584,-0.727608,-0.57828
1629795341948,-0.362889,-0.7290719999999999,-0.57767
1629795341957,-0.363194,-0.729743,-0.578585
1629795341967,-0.362584,-0.733098,-0.579378
1629795341976,-0.363377,-0.73505,-0.577975
1629795341986,-0.362889,-0.737063,-0.574803
1629795341996,-0.362462,-0.7379169999999999,-0.57279
1629795342005,-0.362645,-0.73749,-0.567483
1629795342015,-0.363682,-0.73688,-0.565897
1629795342024,-0.362645,-0.738466,-0.567117
1629795342034,-0.362584,-0.737856,-0.56547
1629795342044,-0.361242,-0.7388319999999999,-0.5673
1629795342053,-0.359168,-0.7412719999999999,-0.571997
1629795342063,-0.359595,-0.744078,-0.574681
1629795342072,-0.36051,-0.7418819999999999,-0.573766
1629795342082,-0.362401,-0.739625,-0.5699839999999999
1629795342092,-0.362401,-0.73871,-0.56669
1629795342101,-0.362828,-0.738649,-0.56364
1629795342111,-0.361364,-0.739564,-0.562603
1629795342120,-0.360205,-0.741516,-0.564006
1629795342130,-0.35922899999999997,-0.742309,-0.565226
1629795342140,-0.3599,-0.742248,-0.56608
1629795342149,-0.359778,-0.742858,-0.56608
1629795342159,-0.358802,-0.743346,-0.566141
1629795342168,-0.358192,-0.7431019999999999,-0.565592
1629795342178,-0.35770399999999997,-0.743346,-0.56486
1629795342188,-0.358558,-0.74237,-0.563457
1629795342197,-0.358985,-0.7421869999999999,-0.561017
1629795342207,-0.358741,-0.7434069999999999,-0.5605289999999999
1629795342216,-0.357765,-0.7434069999999999,-0.560407
1629795342226,-0.356911,-0.743956,-0.559187
1629795342236,-0.357216,-0.744627,-0.559065
1629795342245,-0.35648399999999997,-0.745542,-0.559065
1629795342255,-0.356362,-0.745054,-0.561017
1629795342264,-0.357155,-0.744932,-0.561566
1629795342274,-0.356301,-0.745054,-0.561261
1629795342284,-0.356972,-0.744444,-0.562603
1629795342293,-0.357155,-0.745115,-0.562847
1629795342303,-0.356972,-0.743285,-0.562725
1629795342312,-0.357948,-0.742736,-0.5620539999999999
1629795342322,-0.357826,-0.7424919999999999,-0.562603
1629795342332,-0.356301,-0.74298,-0.563152
1629795342341,-0.357216,-0.743834,-0.563396
1629795342351,-0.35648399999999997,-0.742675,-0.5644939999999999
1629795342360,-0.357277,-0.743712,-0.5647989999999999
1629795342370,-0.356911,-0.743712,-0.56486
1629795342380,-0.357887,-0.745054,-0.562725
1629795342389,-0.357826,-0.744444,-0.5620539999999999
1629795342399,-0.357643,-0.7434069999999999,-0.562237
1629795342408,-0.35807,-0.744627,-0.563945
1629795342418,-0.357521,-0.745176,-0.56547
1629795342428,-0.357521,-0.745847,-0.566507
1629795342437,-0.357277,-0.74542,-0.565531
1629795342447,-0.35831399999999997,-0.74481,-0.565348
1629795342456,-0.359595,-0.745298,-0.565958
1629795342466,-0.35770399999999997,-0.746823,-0.567727
1629795342476,-0.357521,-0.746213,-0.566385
1629795342485,-0.358497,-0.74298,-0.5647989999999999
1629795342495,-0.35807,-0.7434069999999999,-0.566263
1629795342504,-0.357582,-0.740906,-0.56486
1629795342514,-0.358497,-0.740296,-0.567971
1629795342524,-0.358131,-0.742614,-0.5690689999999999
1629795342533,-0.357582,-0.7424919999999999,-0.570106
1629795342543,-0.357338,-0.7424919999999999,-0.571753
1629795342552,-0.356606,-0.744505,-0.575596
1629795342562,-0.354471,-0.745115,-0.577304
1629795342572,-0.355996,-0.743834,-0.577487
1629795342581,-0.35624,-0.740601,-0.574986
1629795342591,-0.35739899999999997,-0.7370019999999999,-0.569557
1629795342600,-0.35807,-0.737124,-0.567117
1629795342610,-0.35709399999999997,-0.736514,-0.560956
1629795342620,-0.356057,-0.736758,-0.560773
1629795342629,-0.354227,-0.7385269999999999,-0.56242
1629795342639,-0.352641,-0.740906,-0.565287
1629795342648,-0.351421,-0.74298,-0.568276
1629795342658,-0.351787,-0.740723,-0.567788
1629795342668,-0.351726,-0.7391369999999999,-0.5669339999999999
1629795342677,-0.351299,-0.737734,-0.566202
1629795342687,-0.352397,-0.735538,-0.56486
1629795342696,-0.35282399999999997,-0.7348669999999999,-0.563762
1629795342706,-0.353922,-0.735904,-0.5641889999999999
1629795342716,-0.353983,-0.736819,-0.565287
1629795342725,-0.352946,-0.738588,-0.566751
1629795342735,-0.354166,-0.739869,-0.568337
1629795342744,-0.353251,-0.7406619999999999,-0.5705939999999999
1629795342754,-0.353556,-0.7409669999999999,-0.570777
1629795342764,-0.355691,-0.7409669999999999,-0.57096
1629795342773,-0.35617899999999997,-0.741699,-0.57157
1629795342783,-0.354227,-0.740845,-0.572668
1629795342792,-0.356301,-0.738954,-0.5715089999999999
1629795342802,-0.35739899999999997,-0.737246,-0.57157
1629795342812,-0.358741,-0.736331,-0.571692
1629795342821,-0.360693,-0.735538,-0.5699839999999999
1629795342831,-0.36051,-0.7357819999999999,-0.570533
1629795342840,-0.358192,-0.739381,-0.574193
1629795342850,-0.357643,-0.742004,-0.57584
1629795342860,-0.357338,-0.7418819999999999,-0.575779
1629795342869,-0.359107,-0.74176,-0.574132
1629795342879,-0.359046,-0.740296,-0.572058
1629795342888,-0.3599,-0.739808,-0.569618
1629795342898,-0.358985,-0.73932,-0.5675439999999999
1629795342908,-0.359046,-0.7381,-0.566568
1629795342917,-0.35807,-0.737978,-0.56791
1629795342927,-0.357765,-0.738039,-0.5675439999999999
1629795342936,-0.358192,-0.738771,-0.567971
1629795342946,-0.35800899999999997,-0.738954,-0.56852
1629795342956,-0.357765,-0.739198,-0.568947
1629795342965,-0.356667,-0.739991,-0.5696789999999999
1629795342975,-0.358863,-0.73993,-0.5684589999999999
1629795342984,-0.358558,-0.738649,-0.567178
1629795342994,-0.357948,-0.739015,-0.566873
1629795343004,-0.35922899999999997,-0.739686,-0.5657139999999999
1629795343013,-0.360449,-0.739869,-0.5641889999999999
1629795343023,-0.360388,-0.738588,-0.564128
1629795343032,-0.360693,-0.7394419999999999,-0.56425
1629795343042,-0.360876,-0.740784,-0.566202
1629795343052,-0.361303,-0.740784,-0.5666289999999999
1629795343061,-0.361364,-0.740418,-0.5675439999999999
1629795343071,-0.362157,-0.738039,-0.567971
1629795343080,-0.362218,-0.736575,-0.567788
1629795343090,-0.362218,-0.73505,-0.567483
1629795343100,-0.362523,-0.734074,-0.5690689999999999
1629795343109,-0.363804,-0.733525,-0.568398
1629795343119,-0.363804,-0.7333419999999999,-0.567605
1629795343128,-0.363133,-0.734745,-0.568337
1629795343138,-0.364353,-0.7366969999999999,-0.568581
1629795343148,-0.363743,-0.738649,-0.5690689999999999
1629795343157,-0.364902,-0.73993,-0.567788
1629795343167,-0.364902,-0.741455,-0.566995
1629795343176,-0.364414,-0.7418819999999999,-0.5660189999999999
1629795343186,-0.36453599999999997,-0.740784,-0.566263
1629795343196,-0.363987,-0.741455,-0.5669339999999999
1629795343205,-0.364048,-0.7406619999999999,-0.56974
1629795343215,-0.364292,-0.740296,-0.569313
1629795343224,-0.364902,-0.737856,-0.5702889999999999
1629795343234,-0.36545099999999997,-0.737368,-0.57218
1629795343244,-0.365024,-0.737795,-0.572058
1629795343253,-0.363865,-0.73566,-0.5705939999999999
1629795343263,-0.36423099999999997,-0.7342569999999999,-0.5681539999999999
1629795343272,-0.36478,-0.7345619999999999,-0.567727
1629795343282,-0.364353,-0.734135,-0.567117
1629795343292,-0.363743,-0.736819,-0.568215
1629795343301,-0.362645,-0.7376119999999999,-0.567117
1629795343311,-0.362462,-0.7394419999999999,-0.566873
1629795343320,-0.360327,-0.742919,-0.568886
1629795343330,-0.359778,-0.745908,-0.571021
1629795343340,-0.357948,-0.74603,-0.572485
1629795343349,-0.360022,-0.743468,-0.5702889999999999
1629795343359,-0.360571,-0.738588,-0.565348
1629795343368,-0.360937,-0.735843,-0.562908
1629795343378,-0.3599,-0.736148,-0.563335
1629795343388,-0.35807,-0.73627,-0.5647989999999999
1629795343397,-0.35953399999999996,-0.7363919999999999,-0.565958
1629795343407,-0.359717,-0.737368,-0.5675439999999999
1629795343416,-0.358131,-0.738405,-0.568581
1629795343426,-0.358741,-0.739991,-0.569252
1629795343436,-0.357948,-0.739076,-0.56913
1629795343445,-0.358985,-0.738893,-0.568886
1629795343455,-0.35746,-0.7385269999999999,-0.568398
1629795343464,-0.357948,-0.738466,-0.5663239999999999
1629795343474,-0.358192,-0.7385269999999999,-0.56608
1629795343484,-0.358497,-0.738649,-0.565653
1629795343493,-0.35746,-0.738893,-0.565348
1629795343503,-0.35746,-0.7391369999999999,-0.566141
1629795343512,-0.357277,-0.7406619999999999,-0.567788
1629795343522,-0.35709399999999997,-0.742004,-0.568276
1629795343532,-0.35709399999999997,-0.741821,-0.567178
1629795343541,-0.35746,-0.742004,-0.567056
1629795343551,-0.358253,-0.743834,-0.567178
1629795343560,-0.357582,-0.7442,-0.567178
1629795343570,-0.35770399999999997,-0.743041,-0.565043
1629795343580,-0.357826,-0.742614,-0.56486
1629795343589,-0.35868,-0.7418819999999999,-0.563457
1629795343599,-0.359107,-0.741333,-0.562237
1629795343608,-0.357582,-0.741089,-0.562847
1629795343618,-0.357338,-0.743773,-0.5632739999999999
1629795343628,-0.357216,-0.744688,-0.565531
1629795343637,-0.357887,-0.744322,-0.566263
1629795343647,-0.358802,-0.744444,-0.566263
1629795343656,-0.358375,-0.744749,-0.5673
1629795343666,-0.35929,-0.742919,-0.5672389999999999
1629795343676,-0.360022,-0.74176,-0.5666289999999999
1629795343685,-0.359656,-0.739808,-0.5657139999999999
1629795343695,-0.358985,-0.7409669999999999,-0.5644939999999999
1629795343704,-0.359717,-0.7400519999999999,-0.563823
1629795343714,-0.360754,-0.740174,-0.564555
1629795343724,-0.358558,-0.740174,-0.56486
1629795343733,-0.35831399999999997,-0.741699,-0.56486
1629795343743,-0.35800899999999997,-0.741943,-0.564921
1629795343752,-0.358497,-0.739991,-0.563762
1629795343762,-0.35861899999999997,-0.738649,-0.563823
1629795343772,-0.358436,-0.7394419999999999,-0.564433
1629795343781,-0.359107,-0.740235,-0.56486
1629795343791,-0.359046,-0.740784,-0.565226
1629795343800,-0.35892399999999997,-0.74054,-0.5651039999999999
1629795343810,-0.35892399999999997,-0.7406619999999999,-0.564067
1629795343820,-0.359717,-0.740479,-0.562542
1629795343829,-0.360266,-0.741699,-0.5641889999999999
1629795343839,-0.35929,-0.741089,-0.564982
1629795343848,-0.358131,-0.7406619999999999,-0.5669339999999999
1629795343858,-0.35892399999999997,-0.740418,-0.568276
1629795343868,-0.358436,-0.7388319999999999,-0.568276
1629795343877,-0.360022,-0.738466,-0.569008
1629795343887,-0.360632,-0.737368,-0.567788
1629795343896,-0.360388,-0.736331,-0.567178
1629795343906,-0.361242,-0.736331,-0.566995
1629795343916,-0.361974,-0.7363919999999999,-0.565836
1629795343925,-0.361486,-0.737551,-0.565897
1629795343935,-0.362218,-0.739259,-0.568642
1629795343944,-0.361059,-0.73993,-0.56974
1629795343954,-0.36112,-0.7397469999999999,-0.569252
1629795343964,-0.362767,-0.740418,-0.569862
1629795343973,-0.362645,-0.739686,-0.569557
1629795343983,-0.362645,-0.7388319999999999,-0.569191
1629795343992,-0.36356,-0.7373069999999999,-0.568886
1629795344002,-0.363255,-0.738039,-0.5693739999999999
1629795344012,-0.362401,-0.737978,-0.570716
1629795344021,-0.36295,-0.738954,-0.571326
1629795344031,-0.362096,-0.738161,-0.570777
1629795344040,-0.363194,-0.7376119999999999,-0.571692
1629795344050,-0.362767,-0.736514,-0.571997
1629795344060,-0.362279,-0.735904,-0.573278
1629795344069,-0.361608,-0.735355,-0.573278
1629795344079,-0.361669,-0.734196,-0.5718139999999999
1629795344088,-0.361913,-0.735416,-0.571692
1629795344098,-0.36173,-0.73444,-0.569313
1629795344108,-0.362096,-0.733281,-0.5696789999999999
1629795344117,-0.361242,-0.734074,-0.569191
1629795344127,-0.361364,-0.735233,-0.569313
1629795344136,-0.360998,-0.736819,-0.5705939999999999
1629795344146,-0.360205,-0.741211,-0.572058
1629795344156,-0.358802,-0.743163,-0.573461
1629795344165,-0.360144,-0.7421869999999999,-0.571448
1629795344175,-0.360449,-0.741699,-0.569801
1629795344184,-0.360632,-0.739625,-0.565897
1629795344194,-0.361547,-0.7376119999999999,-0.56303
1629795344204,-0.359778,-0.7379169999999999,-0.561871
1629795344213,-0.358802,-0.738466,-0.562298
1629795344223,-0.35770399999999997,-0.7385269999999999,-0.56364
1629795344232,-0.356728,-0.7400519999999999,-0.564982
1629795344242,-0.356667,-0.741394,-0.56669
1629795344252,-0.357338,-0.741821,-0.567361
1629795344261,-0.357826,-0.7406619999999999,-0.5660189999999999
1629795344271,-0.358131,-0.73871,-0.564128
1629795344280,-0.35922899999999997,-0.738588,-0.564738
1629795344290,-0.358192,-0.738588,-0.563152
1629795344300,-0.358741,-0.7388319999999999,-0.5635789999999999
1629795344309,-0.35929,-0.741089,-0.5632739999999999
1629795344319,-0.3599,-0.742065,-0.5657139999999999
1629795344328,-0.3599,-0.743224,-0.565836
1629795344338,-0.360327,-0.744078,-0.565531
1629795344348,-0.361303,-0.744444,-0.56486
1629795344357,-0.361364,-0.744078,-0.564067
1629795344367,-0.361059,-0.745969,-0.563518
1629795344376,-0.360876,-0.745847,-0.564555
1629795344386,-0.360937,-0.745237,-0.5620539999999999
1629795344396,-0.36112,-0.744322,-0.561688
1629795344405,-0.361181,-0.744993,-0.561688
1629795344415,-0.361547,-0.742919,-0.5614439999999999
1629795344424,-0.36051,-0.743895,-0.562237
1629795344434,-0.359046,-0.745542,-0.5632739999999999
1629795344444,-0.360144,-0.745115,-0.562298
1629795344453,-0.360754,-0.743956,-0.5612
1629795344463,-0.35953399999999996,-0.743956,-0.56059
1629795344472,-0.359839,-0.745176,-0.5626639999999999
1629795344482,-0.359107,-0.745237,-0.561993
1629795344492,-0.359412,-0.744505,-0.5617489999999999
1629795344501,-0.358558,-0.743346,-0.560895
1629795344511,-0.359351,-0.743041,-0.560285
1629795344520,-0.358802,-0.743956,-0.561017
1629795344530,-0.358497,-0.743956,-0.5602239999999999
1629795344540,-0.357521,-0.744688,-0.559553
1629795344549,-0.357521,-0.745237,-0.559675
1629795344559,-0.357033,-0.745664,-0.559126
1629795344568,-0.356911,-0.746274,-0.560346
1629795344578,-0.355691,-0.747189,-0.560163
1629795344588,-0.35556899999999997,-0.746335,-0.560468
1629795344597,-0.35678899999999997,-0.745237,-0.560041
1629795344607,-0.35709399999999997,-0.744505,-0.559858
1629795344616,-0.357948,-0.743956,-0.55998
1629795344626,-0.35739899999999997,-0.7431019999999999,-0.560773
1629795344636,-0.356972,-0.744383,-0.5623589999999999
1629795344645,-0.357033,-0.743956,-0.561383
1629795344655,-0.356972,-0.7434069999999999,-0.562725
1629795344664,-0.356911,-0.743651,-0.563152
1629795344674,-0.35685,-0.743956,-0.563457
1629795344684,-0.356423,-0.745176,-0.563213
1629795344693,-0.357033,-0.744688,-0.563762
1629795344703,-0.357521,-0.744261,-0.563335
1629795344712,-0.357521,-0.744017,-0.563701
1629795344722,-0.358192,-0.7427969999999999,-0.564067
1629795344732,-0.357643,-0.742736,-0.563396
1629795344741,-0.357582,-0.7421869999999999,-0.5626639999999999
1629795344751,-0.358436,-0.742736,-0.562908
1629795344760,-0.35868,-0.742248,-0.562786
1629795344770,-0.358192,-0.742553,-0.563152
1629795344780,-0.35800899999999997,-0.743041,-0.563396
1629795344789,-0.35807,-0.743651,-0.5635789999999999
1629795344799,-0.35922899999999997,-0.743712,-0.564677
1629795344808,-0.35929,-0.744078,-0.564677
1629795344818,-0.35922899999999997,-0.7424919999999999,-0.563457
1629795344828,-0.359351,-0.744078,-0.563213
1629795344837,-0.360693,-0.743773,-0.562786
1629795344847,-0.35953399999999996,-0.743346,-0.5629689999999999
1629795344856,-0.358863,-0.743285,-0.5647989999999999
1629795344866,-0.357948,-0.743834,-0.565958
1629795344876,-0.359168,-0.744444,-0.56669
1629795344885,-0.359168,-0.742004,-0.56669
1629795344895,-0.360144,-0.74115,-0.5678489999999999
1629795344904,-0.3599,-0.739686,-0.568947
1629795344914,-0.359656,-0.738771,-0.569191
1629795344924,-0.35929,-0.738588,-0.566141
1629795344933,-0.359961,-0.739381,-0.56608
1629795344943,-0.359412,-0.73749,-0.564555
1629795344952,-0.360144,-0.73627,-0.562908
1629795344962,-0.359656,-0.73749,-0.564311
1629795344972,-0.35892399999999997,-0.739686,-0.56425
1629795344981,-0.358741,-0.74176,-0.564372
1629795344991,-0.357521,-0.745969,-0.56608
1629795345000,-0.357582,-0.748104,-0.567178
1629795345010,-0.358375,-0.74847,-0.565592
1629795345020,-0.359473,-0.746884,-0.5638839999999999
1629795345029,-0.359351,-0.7442,-0.56181
1629795345039,-0.359595,-0.742614,-0.559431
1629795345048,-0.359046,-0.742553,-0.558638
1629795345058,-0.359168,-0.742248,-0.559309
1629795345068,-0.359412,-0.7421869999999999,-0.561017
1629795345077,-0.35770399999999997,-0.74298,-0.5632739999999999
1629795345087,-0.358497,-0.743468,-0.564006
1629795345096,-0.358741,-0.744078,-0.564311
1629795345106,-0.357887,-0.742309,-0.563823
1629795345116,-0.359046,-0.741028,-0.5638839999999999
1629795345125,-0.359107,-0.7406619999999999,-0.562542
1629795345135,-0.359839,-0.740906,-0.5620539999999999
1629795345144,-0.359168,-0.742248,-0.562725
1629795345154,-0.35929,-0.743163,-0.562603
1629795345164,-0.359717,-0.744688,-0.564067
1629795345173,-0.35953399999999996,-0.745725,-0.564555
1629795345183,-0.359961,-0.745847,-0.564433
1629795345192,-0.360388,-0.74603,-0.563701
1629795345202,-0.360327,-0.746945,-0.563396
1629795345212,-0.360205,-0.746396,-0.5629689999999999
1629795345221,-0.359961,-0.746518,-0.56303
1629795345231,-0.360022,-0.745359,-0.561993
1629795345240,-0.359595,-0.745298,-0.561627
1629795345250,-0.359473,-0.7442,-0.55937
1629795345260,-0.359473,-0.7424919999999999,-0.559492
1629795345269,-0.358436,-0.744505,-0.561078
1629795345279,-0.357826,-0.745908,-0.562237
1629795345288,-0.35807,-0.747494,-0.561566
1629795345298,-0.358253,-0.746884,-0.560712
1629795345308,-0.357826,-0.746457,-0.560712
1629795345317,-0.357582,-0.746396,-0.559797
1629795345327,-0.358497,-0.744688,-0.560468
1629795345336,-0.35831399999999997,-0.743163,-0.560651
1629795345346,-0.358863,-0.742248,-0.560285
1629795345356,-0.35770399999999997,-0.7418819999999999,-0.561017
1629795345365,-0.358192,-0.7427969999999999,-0.560956
1629795345375,-0.35800899999999997,-0.742736,-0.561017
1629795345384,-0.357887,-0.7434069999999999,-0.561871
1629795345394,-0.357826,-0.743468,-0.562481
1629795345404,-0.358131,-0.7442,-0.562481
1629795345413,-0.35831399999999997,-0.744139,-0.562542
1629795345423,-0.358802,-0.744383,-0.562481
1629795345432,-0.35922899999999997,-0.743773,-0.562725
1629795345442,-0.3599,-0.7431019999999999,-0.561688
1629795345452,-0.360632,-0.743529,-0.561078
1629795345461,-0.360571,-0.744078,-0.5612
1629795345471,-0.360876,-0.743956,-0.561505
1629795345480,-0.360449,-0.7442,-0.561932
1629795345490,-0.360388,-0.7442,-0.5623589999999999
1629795345500,-0.360083,-0.743712,-0.56303
1629795345509,-0.360815,-0.743468,-0.5632739999999999
1629795345519,-0.360693,-0.742675,-0.5629689999999999
1629795345528,-0.360754,-0.742736,-0.5626639999999999
1629795345538,-0.360449,-0.742675,-0.5626639999999999
1629795345548,-0.360937,-0.741943,-0.56303
1629795345557,-0.360693,-0.741638,-0.5632739999999999
1629795345567,-0.360937,-0.741211,-0.563945
1629795345576,-0.361059,-0.741089,-0.563518
1629795345586,-0.361669,-0.7406619999999999,-0.563457
1629795345596,-0.361425,-0.7403569999999999,-0.563823
1629795345605,-0.361303,-0.741211,-0.5638839999999999
1629795345615,-0.361059,-0.740601,-0.5638839999999999
1629795345624,-0.362279,-0.741028,-0.563213
1629795345634,-0.362096,-0.7412719999999999,-0.56364
1629795345644,-0.363255,-0.741516,-0.5632739999999999
1629795345653,-0.363133,-0.74115,-0.5635789999999999
1629795345663,-0.363316,-0.741821,-0.564433
1629795345672,-0.362706,-0.7412719999999999,-0.56547
1629795345682,-0.363316,-0.741211,-0.565531
1629795345692,-0.36392599999999997,-0.740113,-0.565775
1629795345701,-0.363438,-0.740113,-0.5651039999999999
1629795345711,-0.363499,-0.740174,-0.564311
1629795345720,-0.363316,-0.739625,-0.563945
1629795345730,-0.363987,-0.738893,-0.564921
1629795345740,-0.36417,-0.7403569999999999,-0.564555
1629795345749,-0.363316,-0.740784,-0.565226
1629795345759,-0.36423099999999997,-0.739686,-0.565958
1629795345768,-0.363255,-0.739198,-0.564738
1629795345778,-0.363804,-0.737429,-0.5647989999999999
1629795345788,-0.364475,-0.738344,-0.56608
1629795345797,-0.363316,-0.7394419999999999,-0.565958
1629795345807,-0.363133,-0.739259,-0.56364
1629795345816,-0.363804,-0.740174,-0.5623589999999999
1629795345826,-0.363194,-0.737795,-0.561017
1629795345836,-0.364475,-0.738649,-0.560041
1629795345845,-0.36453599999999997,-0.740235,-0.561078
1629795345855,-0.364353,-0.74237,-0.5602239999999999
1629795345864,-0.363682,-0.744261,-0.560956
1629795345874,-0.36362099999999997,-0.746945,-0.564006
1629795345884,-0.363316,-0.748958,-0.565043
1629795345893,-0.36356,-0.74908,-0.56364
1629795345903,-0.36453599999999997,-0.745908,-0.5612
1629795345912,-0.36575599999999997,-0.743285,-0.558943
1629795345922,-0.364902,-0.74237,-0.558577
1629795345932,-0.364048,-0.7412719999999999,-0.559553
1629795345941,-0.363255,-0.739625,-0.560102
1629795345951,-0.363865,-0.7385269999999999,-0.561383
1629795345960,-0.363804,-0.738344,-0.563335
1629795345970,-0.363682,-0.7400519999999999,-0.564372
1629795345980,-0.36392599999999997,-0.739991,-0.564982
1629795345989,-0.364353,-0.740235,-0.563396
1629795345999,-0.364109,-0.7400519999999999,-0.5632739999999999
1629795346008,-0.36417,-0.738893,-0.5623589999999999
1629795346018,-0.363865,-0.738466,-0.5620539999999999
1629795346028,-0.363133,-0.739015,-0.563335
1629795346037,-0.364658,-0.740723,-0.5620539999999999
1629795346047,-0.36484099999999997,-0.7406619999999999,-0.5608339999999999
1629795346056,-0.365634,-0.741638,-0.5602239999999999
1629795346066,-0.365207,-0.744505,-0.5608339999999999
1629795346076,-0.365939,-0.746579,-0.561505
1629795346085,-0.36575599999999997,-0.747128,-0.563213
1629795346095,-0.365512,-0.747006,-0.564921
1629795346104,-0.365512,-0.745908,-0.563945
1629795346114,-0.365207,-0.742004,-0.564128
1629795346124,-0.36423099999999997,-0.739686,-0.5663239999999999
1629795346133,-0.365634,-0.736636,-0.565775
1629795346143,-0.365268,-0.732976,-0.566263
1629795346152,-0.363987,-0.734135,-0.56852
1629795346162,-0.364048,-0.736209,-0.569313
1629795346172,-0.363194,-0.7373069999999999,-0.5681539999999999
1629795346181,-0.361669,-0.73749,-0.5681539999999999
1629795346191,-0.361608,-0.7373069999999999,-0.565897
1629795346200,-0.362218,-0.737063,-0.5644939999999999
1629795346210,-0.362279,-0.738344,-0.5654089999999999
1629795346220,-0.361669,-0.738954,-0.56547
1629795346229,-0.362706,-0.7391369999999999,-0.564982
1629795346239,-0.362523,-0.739381,-0.5647989999999999
1629795346248,-0.362767,-0.739808,-0.565592
1629795346258,-0.361791,-0.74054,-0.564677
1629795346268,-0.36173,-0.739564,-0.565165
1629795346277,-0.36112,-0.7397469999999999,-0.5657139999999999
1629795346287,-0.361242,-0.739564,-0.56669
1629795346296,-0.362401,-0.739015,-0.5669339999999999
1629795346306,-0.363377,-0.739015,-0.5673
1629795346316,-0.362584,-0.738039,-0.566568
1629795346325,-0.363316,-0.737185,-0.565165
1629795346335,-0.364475,-0.736331,-0.564738
1629795346344,-0.36295,-0.73749,-0.5663239999999999
1629795346354,-0.36295,-0.738954,-0.5673
1629795346364,-0.364353,-0.7379169999999999,-0.5675439999999999
1629795346373,-0.36478,-0.7381,-0.567788
1629795346383,-0.363499,-0.738344,-0.56852
1629795346392,-0.363133,-0.735843,-0.567178
1629795346402,-0.365024,-0.734623,-0.568337
1629795346412,-0.364902,-0.733098,-0.5681539999999999
1629795346421,-0.365695,-0.732,-0.567788
1629795346431,-0.36606099999999997,-0.733098,-0.56913
1629795346440,-0.366183,-0.735965,-0.57096
1629795346450,-0.366,-0.737795,-0.572302
1629795346460,-0.36575599999999997,-0.738588,-0.5718139999999999
1629795346469,-0.364963,-0.73871,-0.5699839999999999
1629795346479,-0.365268,-0.737246,-0.567178
1629795346488,-0.36478,-0.737185,-0.5660189999999999
1629795346498,-0.365634,-0.737551,-0.5669339999999999
1629795346508,-0.365329,-0.7382219999999999,-0.565958
1629795346517,-0.366,-0.737673,-0.566995
1629795346527,-0.364048,-0.739564,-0.567788
1629795346536,-0.36453599999999997,-0.737734,-0.56791
1629795346546,-0.36453599999999997,-0.736819,-0.568337
1629795346556,-0.36423099999999997,-0.73627,-0.567178
1629795346565,-0.364353,-0.735843,-0.5654089999999999
1629795346575,-0.365634,-0.7366969999999999,-0.564372
1629795346584,-0.36484099999999997,-0.7397469999999999,-0.565592
1629795346594,-0.363438,-0.741211,-0.566446
1629795346604,-0.364353,-0.741699,-0.565775
1629795346613,-0.363316,-0.7412719999999999,-0.566873
1629795346623,-0.363133,-0.7403569999999999,-0.566812
1629795346632,-0.362218,-0.738771,-0.567178
1629795346642,-0.362523,-0.738954,-0.567666
1629795346652,-0.362096,-0.736758,-0.5660189999999999
1629795346661,-0.364048,-0.7363919999999999,-0.563762
1629795346671,-0.36362099999999997,-0.735355,-0.561993
1629795346680,-0.362767,-0.73566,-0.562237
1629795346690,-0.362096,-0.736819,-0.561017
1629795346700,-0.361303,-0.7388319999999999,-0.561078
1629795346709,-0.360876,-0.743041,-0.563396
1629795346719,-0.36112,-0.744261,-0.564128
1629795346728,-0.361364,-0.74359,-0.564311
1629795346738,-0.361669,-0.7434069999999999,-0.563457
1629795346748,-0.361791,-0.743163,-0.563762
1629795346757,-0.362218,-0.740784,-0.561688
1629795346767,-0.36478,-0.7388319999999999,-0.560041
1629795346776,-0.36545099999999997,-0.737978,-0.559492
1629795346786,-0.366,-0.739564,-0.561993
1629795346796,-0.365329,-0.741943,-0.562603
1629795346805,-0.36539,-0.74054,-0.564311
1629795346815,-0.366244,-0.739991,-0.5647989999999999
1629795346824,-0.365573,-0.740845,-0.565226
1629795346834,-0.36667099999999997,-0.740235,-0.565226
1629795346844,-0.36697599999999997,-0.738344,-0.5641889999999999
1629795346853,-0.36758599999999997,-0.738161,-0.564738
1629795346863,-0.367464,-0.737063,-0.563823
1629795346872,-0.36667099999999997,-0.736514,-0.564311
1629795346882,-0.366793,-0.734379,-0.565653
1629795346892,-0.36783,-0.732061,-0.566568
1629795346901,-0.36697599999999997,-0.733464,-0.567788
1629795346911,-0.36789099999999997,-0.735294,-0.568581
1629795346920,-0.368684,-0.734501,-0.5663239999999999
1629795346930,-0.36941599999999997,-0.736026,-0.566446
1629795346940,-0.36911099999999997,-0.73932,-0.567117
1629795346949,-0.36844,-0.739686,-0.566995
1629795346959,-0.37063599999999997,-0.737551,-0.562725
1629795346968,-0.371612,-0.73688,-0.563335
1629795346978,-0.37088,-0.7373069999999999,-0.563701
1629795346988,-0.372222,-0.7357819999999999,-0.563701
1629795346997,-0.370575,-0.7357819999999999,-0.5669339999999999
1629795347007,-0.36972099999999997,-0.738588,-0.569801
1629795347016,-0.371063,-0.739198,-0.571997
1629795347026,-0.371856,-0.737673,-0.571448
1629795347036,-0.373442,-0.734806,-0.56791
1629795347045,-0.37533299999999997,-0.732366,-0.564616
1629795347055,-0.375394,-0.7318169999999999,-0.562542
1629795347064,-0.375089,-0.730841,-0.5641889999999999
1629795347074,-0.374357,-0.732976,-0.5675439999999999
1629795347084,-0.374662,-0.732854,-0.569191
1629795347093,-0.374357,-0.73261,-0.571753
1629795347103,-0.373564,-0.7315119999999999,-0.571875
1629795347112,-0.374296,-0.729011,-0.569801
1629795347122,-0.37637,-0.72895,-0.570228
1629795347132,-0.37533299999999997,-0.729255,-0.570228
1629795347141,-0.37594299999999997,-0.728218,-0.568703
1629795347151,-0.376431,-0.728828,-0.567666
1629795347160,-0.376675,-0.729926,-0.568947
1629795347170,-0.376004,-0.731451,-0.570228
1629795347180,-0.375211,-0.730719,-0.570106
1629795347189,-0.375394,-0.731329,-0.5705939999999999
1629795347199,-0.374174,-0.731878,-0.5705939999999999
1629795347208,-0.373564,-0.7330369999999999,-0.571448
1629795347218,-0.373625,-0.731024,-0.57096
1629795347228,-0.373442,-0.7305969999999999,-0.572058
1629795347237,-0.37332,-0.729194,-0.569557
1629795347247,-0.374418,-0.727303,-0.568703
1629795347256,-0.372588,-0.727364,-0.569252
1629795347266,-0.374113,-0.72834,-0.571265
1629795347276,-0.372649,-0.728523,-0.570655
1629795347285,-0.373137,-0.729316,-0.570533
1629795347295,-0.372344,-0.7309019999999999,-0.571143
1629795347304,-0.373137,-0.7318169999999999,-0.56974
1629795347314,-0.373442,-0.731268,-0.5702889999999999
1629795347324,-0.372771,-0.732244,-0.570411
1629795347333,-0.373381,-0.732244,-0.570411
1629795347343,-0.37515,-0.7318169999999999,-0.569923
1629795347352,-0.374418,-0.73139,-0.5702889999999999
1629795347362,-0.374967,-0.7305969999999999,-0.571082
1629795347372,-0.375028,-0.73139,-0.571326
1629795347381,-0.373625,-0.731085,-0.572363
1629795347391,-0.374601,-0.730048,-0.571692
1629795347400,-0.375089,-0.728096,-0.5715089999999999
1629795347410,-0.375272,-0.729316,-0.572302
1629795347420,-0.374418,-0.730231,-0.571875
1629795347429,-0.37393,-0.7302919999999999,-0.5727289999999999
1629795347439,-0.37271,-0.7296819999999999,-0.572058
1629795347448,-0.373869,-0.72956,-0.568886
1629795347458,-0.37533299999999997,-0.726388,-0.566751
1629795347468,-0.376004,-0.726327,-0.5678489999999999
1629795347477,-0.373564,-0.72773,-0.568886
1629795347487,-0.374967,-0.7293769999999999,-0.569008
1629795347496,-0.374174,-0.734196,-0.5705939999999999
1629795347506,-0.37393,-0.73688,-0.571387
1629795347516,-0.373442,-0.736514,-0.569862
1629795347525,-0.372466,-0.7363919999999999,-0.569435
1629795347535,-0.372771,-0.7354769999999999,-0.567666
1629795347544,-0.374235,-0.7327319999999999,-0.565287
1629795347554,-0.374113,-0.7324269999999999,-0.565653
1629795347564,-0.372832,-0.73383,-0.566202
1629795347573,-0.372405,-0.733464,-0.564372
1629795347583,-0.371795,-0.7327319999999999,-0.563518
1629795347592,-0.37094099999999997,-0.7330369999999999,-0.564372
1629795347602,-0.369782,-0.732,-0.565287
1629795347612,-0.369233,-0.7324269999999999,-0.5647989999999999
1629795347621,-0.370209,-0.73322,-0.565592
1629795347631,-0.37002599999999997,-0.734074,-0.566568
1629795347640,-0.370392,-0.734501,-0.565226
1629795347650,-0.370453,-0.733708,-0.566385
1629795347660,-0.369172,-0.734013,-0.56669
1629795347669,-0.37033099999999997,-0.734806,-0.566995
1629795347679,-0.37088,-0.733708,-0.566202
1629795347688,-0.371673,-0.733281,-0.5669339999999999
1629795347698,-0.370453,-0.734623,-0.5672389999999999
1629795347708,-0.369172,-0.737734,-0.56852
1629795347717,-0.36966,-0.738954,-0.570472
1629795347727,-0.370758,-0.738161,-0.570838
1629795347736,-0.36850099999999997,-0.737185,-0.5687639999999999
1629795347746,-0.369782,-0.734196,-0.5666289999999999
1629795347756,-0.37094099999999997,-0.73322,-0.56669
1629795347765,-0.371002,-0.734623,-0.56608
1629795347775,-0.370392,-0.733464,-0.565836
1629795347784,-0.367464,-0.734074,-0.568581
1629795347794,-0.366732,-0.735904,-0.570777
1629795347804,-0.36728099999999997,-0.734379,-0.5721189999999999
1629795347813,-0.368928,-0.734928,-0.5715089999999999
1629795347823,-0.369843,-0.73444,-0.569801
1629795347832,-0.369782,-0.734623,-0.567727
1629795347842,-0.36911099999999997,-0.73383,-0.567056
1629795347852,-0.369294,-0.732976,-0.568398
1629795347861,-0.368074,-0.7351719999999999,-0.569435
1629795347871,-0.366915,-0.73505,-0.5693739999999999
1629795347880,-0.367098,-0.733586,-0.569618
1629795347890,-0.368135,-0.733464,-0.571387
1629795347900,-0.367769,-0.73444,-0.572485
1629795347909,-0.36661,-0.733586,-0.571448
1629795347919,-0.366793,-0.732793,-0.570655
1629795347928,-0.367464,-0.7321219999999999,-0.569313
1629795347938,-0.366854,-0.732488,-0.56791
1629795347948,-0.366183,-0.733464,-0.568032
1629795347957,-0.366183,-0.735111,-0.567971
1629795347967,-0.364658,-0.7363919999999999,-0.568581
1629795347976,-0.364658,-0.734745,-0.569618
1629795347986,-0.365573,-0.733769,-0.5687639999999999
1629795347996,-0.365024,-0.734135,-0.567788
1629795348005,-0.365573,-0.733159,-0.56913
1629795348015,-0.364902,-0.733525,-0.5687639999999999
1629795348024,-0.365573,-0.73261,-0.568825
1629795348034,-0.36575599999999997,-0.733159,-0.5696789999999999
1629795348044,-0.365512,-0.733708,-0.56913
1629795348053,-0.366427,-0.734684,-0.5684589999999999
1629795348063,-0.366244,-0.7357819999999999,-0.5684589999999999
1629795348072,-0.366122,-0.73688,-0.56852
1629795348082,-0.367098,-0.736575,-0.566995
1629795348092,-0.367159,-0.736453,-0.566446
1629795348101,-0.368013,-0.736148,-0.567483
1629795348111,-0.36728099999999997,-0.736148,-0.56608
1629795348120,-0.36722,-0.736148,-0.5675439999999999
1629795348130,-0.36575599999999997,-0.736758,-0.5681539999999999
1629795348140,-0.36539,-0.737246,-0.568215
1629795348149,-0.366549,-0.73566,-0.567788
1629795348159,-0.367464,-0.734989,-0.568642
1629795348168,-0.368562,-0.73505,-0.568093
1629795348178,-0.368867,-0.734318,-0.5687639999999999
1629795348188,-0.368745,-0.735538,-0.569496
1629795348197,-0.36783,-0.73627,-0.568947
1629795348207,-0.369538,-0.73505,-0.566507
1629795348216,-0.37002599999999997,-0.734684,-0.56547
1629795348226,-0.370575,-0.7339519999999999,-0.564677
1629795348236,-0.369904,-0.7318169999999999,-0.56608
1629795348245,-0.36972099999999997,-0.732305,-0.565348
1629795348255,-0.37033099999999997,-0.735294,-0.567117
1629795348264,-0.371307,-0.738466,-0.567666
1629795348274,-0.370758,-0.738588,-0.567117
1629795348284,-0.37002599999999997,-0.7406619999999999,-0.567605
1629795348293,-0.369782,-0.7409669999999999,-0.565775
1629795348303,-0.370819,-0.738649,-0.56303
1629795348312,-0.370819,-0.737185,-0.5612
1629795348322,-0.370392,-0.736758,-0.561017
1629795348332,-0.370087,-0.735965,-0.56181
1629795348341,-0.370514,-0.7360869999999999,-0.5632739999999999
1629795348351,-0.369538,-0.73566,-0.564738
1629795348360,-0.371307,-0.735599,-0.565653
1629795348370,-0.370209,-0.736026,-0.566141
1629795348380,-0.36911099999999997,-0.735294,-0.565775
1629795348389,-0.371002,-0.734318,-0.565043
1629795348399,-0.371124,-0.733403,-0.564982
1629795348408,-0.370453,-0.7327319999999999,-0.563945
1629795348418,-0.370514,-0.7324269999999999,-0.564006
1629795348428,-0.371368,-0.734074,-0.564372
1629795348437,-0.371063,-0.734928,-0.566568
1629795348447,-0.371368,-0.73749,-0.566202
1629795348456,-0.371429,-0.737124,-0.565531
1629795348466,-0.372222,-0.737185,-0.565287
1629795348476,-0.371856,-0.73749,-0.565958
1629795348485,-0.371795,-0.73932,-0.564738
1629795348495,-0.371124,-0.739564,-0.565653
1629795348504,-0.37094099999999997,-0.739076,-0.566263
1629795348514,-0.37124599999999996,-0.737063,-0.56425
1629795348524,-0.372039,-0.734806,-0.5632739999999999
1629795348533,-0.372283,-0.736209,-0.563762
1629795348543,-0.373198,-0.73444,-0.561566
1629795348552,-0.372832,-0.7333419999999999,-0.565226
1629795348562,-0.371063,-0.7351719999999999,-0.568825
1629795348572,-0.370758,-0.736453,-0.5699839999999999
1629795348581,-0.37088,-0.736453,-0.571936
1629795348591,-0.372039,-0.737185,-0.572546
1629795348600,-0.372344,-0.734928,-0.568032
1629795348610,-0.373015,-0.732061,-0.563823
1629795348620,-0.371368,-0.730963,-0.5651039999999999
1629795348629,-0.370392,-0.732976,-0.56669
1629795348639,-0.370575,-0.73322,-0.565653
1629795348648,-0.36911099999999997,-0.735233,-0.56791
1629795348658,-0.36905,-0.736148,-0.5673
1629795348668,-0.36941599999999997,-0.736209,-0.5666289999999999
1629795348677,-0.368684,-0.735294,-0.567178
1629795348687,-0.369477,-0.735965,-0.566202
1629795348696,-0.368562,-0.7357819999999999,-0.565836
1629795348706,-0.367647,-0.736148,-0.565775
1629795348716,-0.368318,-0.73505,-0.56486
1629795348725,-0.36844,-0.735599,-0.563945
1629795348735,-0.367952,-0.735111,-0.5638839999999999
1629795348744,-0.367342,-0.7357819999999999,-0.564921
1629795348754,-0.368135,-0.736026,-0.565043
1629795348764,-0.367708,-0.7366969999999999,-0.566263
1629795348773,-0.36783,-0.737795,-0.567483
1629795348783,-0.368135,-0.737185,-0.5672389999999999
1629795348792,-0.36819599999999997,-0.73627,-0.567422
1629795348802,-0.368013,-0.737185,-0.5669339999999999
1629795348812,-0.368318,-0.734684,-0.566446
1629795348821,-0.368257,-0.73444,-0.565775
1629795348831,-0.36880599999999997,-0.733525,-0.5666289999999999
1629795348840,-0.367708,-0.733464,-0.566263
1629795348850,-0.36844,-0.735294,-0.567056
1629795348860,-0.368623,-0.73505,-0.568276
1629795348869,-0.36783,-0.734928,-0.566995
1629795348879,-0.36972099999999997,-0.7360869999999999,-0.565836
1629795348888,-0.368989,-0.735233,-0.564738
1629795348898,-0.368867,-0.7363919999999999,-0.564738
1629795348908,-0.369172,-0.736575,-0.565043
1629795348917,-0.369233,-0.737368,-0.56547
1629795348927,-0.36911099999999997,-0.73871,-0.5663239999999999
1629795348936,-0.369904,-0.7379169999999999,-0.566751
1629795348946,-0.371002,-0.737063,-0.565836
1629795348956,-0.371307,-0.737063,-0.567056
1629795348965,-0.370819,-0.7379169999999999,-0.567361
1629795348975,-0.36905,-0.738283,-0.565348
1629795348984,-0.36911099999999997,-0.736026,-0.564738
1629795348994,-0.369172,-0.736148,-0.564738
1629795349004,-0.36972099999999997,-0.732488,-0.564433
1629795349013,-0.371734,-0.732061,-0.5651039999999999
1629795349023,-0.371063,-0.732183,-0.565592
1629795349032,-0.371124,-0.732976,-0.565287
1629795349042,-0.37002599999999997,-0.736514,-0.568825
1629795349052,-0.369233,-0.739015,-0.5705939999999999
1629795349061,-0.368989,-0.738466,-0.568825
1629795349071,-0.369172,-0.737673,-0.5663239999999999
1629795349080,-0.369965,-0.7351719999999999,-0.563823
1629795349090,-0.371185,-0.734989,-0.563457
1629795349100,-0.369965,-0.736209,-0.56242
1629795349109,-0.368867,-0.735538,-0.5623589999999999
1629795349119,-0.368013,-0.735416,-0.56303
1629795349128,-0.368013,-0.7366969999999999,-0.5647989999999999
1629795349138,-0.36844,-0.738039,-0.5654089999999999
1629795349148,-0.36783,-0.736636,-0.565226
1629795349157,-0.368257,-0.736636,-0.565348
1629795349167,-0.36905,-0.734684,-0.564433
1629795349176,-0.369233,-0.734135,-0.562847
1629795349186,-0.36880599999999997,-0.733891,-0.564128
1629795349196,-0.368684,-0.735355,-0.5635789999999999
1629795349205,-0.369172,-0.73627,-0.564921
1629795349215,-0.36941599999999997,-0.737734,-0.56608
1629795349224,-0.370209,-0.739381,-0.566446
1629795349234,-0.369599,-0.739076,-0.5654089999999999
1629795349244,-0.370514,-0.739808,-0.564921
1629795349253,-0.37094099999999997,-0.739259,-0.564738
1629795349263,-0.370514,-0.738771,-0.5663239999999999
1629795349272,-0.369904,-0.738405,-0.566873
1629795349282,-0.369477,-0.73749,-0.5673
1629795349292,-0.368135,-0.735965,-0.566995
1629795349301,-0.369538,-0.7351719999999999,-0.5654089999999999
1629795349311,-0.369294,-0.7345619999999999,-0.565653
1629795349320,-0.368928,-0.733281,-0.5647989999999999
1629795349330,-0.36941599999999997,-0.733464,-0.564311
1629795349340,-0.367708,-0.736514,-0.567178
1629795349349,-0.367159,-0.740296,-0.567178
1629795349359,-0.368684,-0.738283,-0.566385
1629795349368,-0.36819599999999997,-0.7370019999999999,-0.565592
1629795349378,-0.368257,-0.738161,-0.565531
1629795349388,-0.367769,-0.738161,-0.56425
1629795349397,-0.368562,-0.737246,-0.5657139999999999
1629795349407,-0.369172,-0.7381,-0.566263
1629795349416,-0.368623,-0.736026,-0.566141
1629795349426,-0.36880599999999997,-0.734501,-0.564677
1629795349436,-0.36844,-0.7342569999999999,-0.5657139999999999
1629795349445,-0.368562,-0.7339519999999999,-0.566385
1629795349455,-0.367525,-0.734318,-0.567422
1629795349464,-0.36758599999999997,-0.735904,-0.566812
1629795349474,-0.367342,-0.737429,-0.567117
1629795349484,-0.36661,-0.7376119999999999,-0.567483
1629795349493,-0.36667099999999997,-0.736941,-0.567422
1629795349503,-0.367525,-0.735965,-0.567178
1629795349512,-0.367769,-0.73505,-0.566751
1629795349522,-0.367464,-0.73444,-0.56608
1629795349532,-0.368013,-0.734318,-0.5657139999999999
1629795349541,-0.36789099999999997,-0.734379,-0.567178
1629795349551,-0.367708,-0.734745,-0.567422
1629795349560,-0.36758599999999997,-0.735111,-0.5678489999999999
1629795349570,-0.367403,-0.73505,-0.567422
1629795349580,-0.367159,-0.734318,-0.566812
1629795349589,-0.368989,-0.733708,-0.5654089999999999
1629795349599,-0.369477,-0.733403,-0.564372
1629795349608,-0.368623,-0.73566,-0.566141
1629795349618,-0.368989,-0.737795,-0.567727
1629795349628,-0.370148,-0.7370019999999999,-0.567605
1629795349637,-0.370575,-0.7370019999999999,-0.568215
1629795349647,-0.370758,-0.7370019999999999,-0.568398
1629795349656,-0.370453,-0.7357819999999999,-0.569191
1629795349666,-0.37063599999999997,-0.735843,-0.569618
1629795349676,-0.371063,-0.73505,-0.56791
1629795349685,-0.37149,-0.733464,-0.567178
1629795349695,-0.37124599999999996,-0.733586,-0.5678489999999999
1629795349704,-0.369477,-0.732976,-0.5669339999999999
1629795349714,-0.36850099999999997,-0.733403,-0.568703
1629795349724,-0.36844,-0.733464,-0.5699839999999999
1629795349733,-0.369294,-0.73322,-0.56974
1629795349743,-0.37002599999999997,-0.7321219999999999,-0.570228
1629795349752,-0.370819,-0.732061,-0.570716
1629795349762,-0.37002599999999997,-0.73261,-0.572058
1629795349772,-0.370514,-0.7315119999999999,-0.571448
1629795349781,-0.370758,-0.7312069999999999,-0.570777
1629795349791,-0.371429,-0.729865,-0.569496
1629795349800,-0.3721,-0.730353,-0.5693739999999999
1629795349810,-0.373076,-0.731085,-0.56974
1629795349820,-0.372954,-0.731878,-0.568886
1629795349829,-0.371673,-0.732183,-0.570228
1629795349839,-0.37027,-0.733769,-0.572668
1629795349848,-0.369172,-0.733281,-0.575352
1629795349858,-0.369233,-0.733586,-0.575535
1629795349868,-0.370087,-0.731634,-0.574864
1629795349877,-0.36972099999999997,-0.729255,-0.572485
1629795349887,-0.371063,-0.725717,-0.569252
1629795349896,-0.371368,-0.725534,-0.570411
1629795349906,-0.370148,-0.726449,-0.572363
1629795349916,-0.369294,-0.727608,-0.572851
1629795349925,-0.36966,-0.727303,-0.574742
1629795349935,-0.368562,-0.7281569999999999,-0.575291
1629795349944,-0.368989,-0.728279,-0.576694
1629795349954,-0.369355,-0.728218,-0.576328
1629795349964,-0.37033099999999997,-0.726144,-0.575718
1629795349973,-0.370148,-0.724741,-0.575413
1629795349983,-0.369172,-0.723338,-0.57584
1629795349992,-0.368928,-0.725168,-0.57645
1629795350002,-0.369782,-0.725107,-0.576755
1629795350012,-0.37033099999999997,-0.726571,-0.57828
1629795350021,-0.36972099999999997,-0.727364,-0.578524
1629795350031,-0.37094099999999997,-0.728096,-0.578341
1629795350040,-0.371124,-0.728218,-0.577975
1629795350050,-0.369904,-0.728279,-0.578951
1629795350060,-0.37002599999999997,-0.729194,-0.578219
1629795350069,-0.368989,-0.728279,-0.57889
1629795350079,-0.368745,-0.72712,-0.578951
1629795350088,-0.369843,-0.724009,-0.578524
1629795350098,-0.36966,-0.723643,-0.579744
1629795350108,-0.36941599999999997,-0.72346,-0.57889
1629795350117,-0.369904,-0.722057,-0.578829
1629795350127,-0.36850099999999997,-0.723704,-0.580415
1629795350136,-0.368745,-0.724985,-0.580598
1629795350146,-0.369477,-0.724558,-0.580476
1629795350156,-0.369538,-0.726083,-0.581086
1629795350165,-0.36972099999999997,-0.726144,-0.580903
1629795350175,-0.36972099999999997,-0.725656,-0.581452
1629795350184,-0.370087,-0.725473,-0.581635
1629795350194,-0.368867,-0.725107,-0.58072
1629795350204,-0.36911099999999997,-0.724253,-0.580476
1629795350213,-0.36972099999999997,-0.724619,-0.579988
1629795350223,-0.36880599999999997,-0.724802,-0.580537
1629795350232,-0.368379,-0.72407,-0.579866
1629795350242,-0.368867,-0.723826,-0.578524
1629795350252,-0.36819599999999997,-0.723277,-0.5795
1629795350261,-0.367525,-0.72285,-0.579744
1629795350271,-0.368013,-0.723704,-0.58072
1629795350280,-0.367769,-0.724436,-0.581391
1629795350290,-0.368623,-0.72468,-0.581757
1629795350300,-0.368379,-0.723582,-0.581147
1629795350309,-0.36880599999999997,-0.722606,-0.579622
1629795350319,-0.368379,-0.721813,-0.579256
1629795350328,-0.368745,-0.721813,-0.578158
1629795350338,-0.369965,-0.722484,-0.57889
1629795350348,-0.369172,-0.723643,-0.580049
1629795350357,-0.36941599999999997,-0.723826,-0.579866
1629795350367,-0.36941599999999997,-0.724802,-0.580903
1629795350376,-0.369233,-0.725717,-0.58072
1629795350386,-0.37063599999999997,-0.725107,-0.580537
1629795350396,-0.370209,-0.724985,-0.579988
1629795350405,-0.37027,-0.724924,-0.580537
1629795350415,-0.369599,-0.72468,-0.5795
1629795350424,-0.371063,-0.725778,-0.58011
1629795350434,-0.37088,-0.725839,-0.580354
1629795350444,-0.371368,-0.7259,-0.579561
1629795350453,-0.370758,-0.724741,-0.580171
1629795350463,-0.371917,-0.723277,-0.580964
1629795350472,-0.371978,-0.724009,-0.582977
1629795350482,-0.372283,-0.722667,-0.583709
1629795350492,-0.37155099999999996,-0.72163,-0.58316
1629795350501,-0.372649,-0.720898,-0.5848679999999999
1629795350511,-0.371429,-0.721447,-0.5866979999999999
1629795350520,-0.372527,-0.719312,-0.585356
1629795350530,-0.372649,-0.720532,-0.582916
1629795350540,-0.371734,-0.720715,-0.582123
1629795350549,-0.37088,-0.72224,-0.581635
1629795350559,-0.371673,-0.72285,-0.582184
1629795350568,-0.373076,-0.722484,-0.581574
1629795350578,-0.372588,-0.722118,-0.582123
1629795350588,-0.372588,-0.72224,-0.584624
1629795350597,-0.373076,-0.721508,-0.5860879999999999
1629795350607,-0.371917,-0.719251,-0.5839529999999999
1629795350616,-0.3721,-0.717726,-0.583526
1629795350626,-0.372527,-0.717055,-0.583099
1629795350636,-0.372588,-0.717421,-0.582916
1629795350645,-0.373015,-0.7172379999999999,-0.582855
1629795350655,-0.373198,-0.716201,-0.580354
1629795350664,-0.373259,-0.716567,-0.58072
1629795350674,-0.372039,-0.7198,-0.583831
1629795350684,-0.37149,-0.723826,-0.586454
1629795350693,-0.373991,-0.722362,-0.587796
1629795350703,-0.373015,-0.720837,-0.587735
1629795350712,-0.37515,-0.717665,-0.5863929999999999
1629795350722,-0.375272,-0.714859,-0.585417
1629795350732,-0.374723,-0.712785,-0.585722
1629795350741,-0.374906,-0.7123579999999999,-0.587491
1629795350751,-0.374174,-0.713334,-0.589321
1629795350760,-0.373503,-0.712602,-0.589504
1629795350770,-0.373442,-0.713212,-0.5931029999999999
1629795350780,-0.372588,-0.7126629999999999,-0.59292
1629795350789,-0.37393,-0.7105279999999999,-0.595055
1629795350799,-0.37393,-0.7102229999999999,-0.5934079999999999
1629795350808,-0.373198,-0.707905,-0.592981
1629795350818,-0.374723,-0.705892,-0.592554
1629795350828,-0.374723,-0.706136,-0.594079
1629795350837,-0.374662,-0.7076,-0.594689
1629795350847,-0.373564,-0.708332,-0.5949329999999999
1629795350856,-0.373686,-0.709125,-0.595177
1629795350866,-0.374601,-0.709186,-0.596519
1629795350876,-0.375028,-0.70821,-0.59658
1629795350885,-0.376126,-0.709369,-0.596702
1629795350895,-0.376004,-0.709491,-0.5978
1629795350904,-0.375211,-0.70943,-0.597922
1629795350914,-0.376431,-0.708454,-0.596519
1629795350924,-0.375821,-0.707051,-0.596214
1629795350933,-0.376614,-0.706319,-0.596336
1629795350943,-0.37746799999999997,-0.704916,-0.5961529999999999
1629795350952,-0.377956,-0.704245,-0.598105
1629795350962,-0.37685799999999997,-0.7059529999999999,-0.598532
1629795350972,-0.379176,-0.7068679999999999,-0.598349
1629795350981,-0.379542,-0.7059529999999999,-0.598288
1629795350991,-0.378932,-0.7059529999999999,-0.600179
1629795351000,-0.379847,-0.704672,-0.601338
1629795351010,-0.381311,-0.70577,-0.601765
1629795351020,-0.381311,-0.704977,-0.602497
1629795351029,-0.380701,-0.70394,-0.600301
1629795351039,-0.382287,-0.701256,-0.600118
1629795351048,-0.381189,-0.700341,-0.600545
1629795351058,-0.380396,-0.69967,-0.599203
1629795351068,-0.380457,-0.699731,-0.602009
1629795351077,-0.37899299999999997,-0.70089,-0.601277
1629795351087,-0.37838299999999997,-0.700646,-0.601277
1629795351096,-0.37960299999999997,-0.701256,-0.60085
1629795351106,-0.380152,-0.700768,-0.600301
1629795351116,-0.380457,-0.701622,-0.599996
1629795351125,-0.381067,-0.699365,-0.600423
1629795351135,-0.380884,-0.697962,-0.60329
1629795351144,-0.378627,-0.698511,-0.599386
1629795351154,-0.380457,-0.696925,-0.599996
1629795351164,-0.380152,-0.696986,-0.598288
1629795351173,-0.380884,-0.69784,-0.599081
1629795351183,-0.381067,-0.69967,-0.602375
1629795351192,-0.38356799999999996,-0.698999,-0.602863
1629795351202,-0.383202,-0.698999,-0.60146
1629795351212,-0.384117,-0.699975,-0.601704
1629795351221,-0.384544,-0.700707,-0.602924
1629795351231,-0.38369,-0.702354,-0.604449
1629795351240,-0.38387299999999996,-0.699853,-0.606828
1629795351250,-0.383812,-0.697047,-0.605974
1629795351260,-0.38552,-0.695339,-0.605669
1629795351269,-0.386984,-0.6935089999999999,-0.605425
1629795351279,-0.386618,-0.692838,-0.60512
1629795351288,-0.387533,-0.693448,-0.603412
1629795351298,-0.38613,-0.696986,-0.602558
1629795351308,-0.386984,-0.697352,-0.603107
1629795351317,-0.386862,-0.697596,-0.599264
1629795351327,-0.387228,-0.697718,-0.599447
1629795351336,-0.385581,-0.697962,-0.602131
1629795351346,-0.384483,-0.69784,-0.603778
1629795351356,-0.383751,-0.697413,-0.604144
1629795351365,-0.382104,-0.69723,-0.603656
1629795351375,-0.380945,-0.697169,-0.601765
1629795351384,-0.379542,-0.699792,-0.601582
1629795351394,-0.380579,-0.701256,-0.604876
1629795351404,-0.37990799999999997,-0.700646,-0.607255
1629795351413,-0.380274,-0.699304,-0.602985
1629795351423,-0.382714,-0.698328,-0.602863
1629795351432,-0.378444,-0.703086,-0.600423
1629795351442,-0.37868799999999997,-0.70577,-0.60207
1629795351452,-0.379054,-0.707234,-0.60024
1629795351461,-0.37454,-0.70821,-0.602192
1629795351471,-0.373137,-0.705587,-0.598471
1629795351480,-0.371063,-0.706319,-0.599386
1629795351490,-0.369843,-0.70394,-0.598898
1629795351500,-0.372527,-0.702171,-0.605486
1629795351509,-0.36880599999999997,-0.706929,-0.600911
1629795351519,-0.37033099999999997,-0.707966,-0.598227
1629795351528,-0.368928,-0.71309,-0.5940179999999999
1629795351538,-0.365817,-0.720959,-0.5888329999999999
1629795351548,-0.36423099999999997,-0.722545,-0.587369
1629795351557,-0.36575599999999997,-0.719739,-0.58804
1629795351567,-0.36545099999999997,-0.7157129999999999,-0.588467
1629795351576,-0.36941599999999997,-0.7123579999999999,-0.5961529999999999
1629795351586,-0.36636599999999997,-0.719007,-0.5870029999999999
1629795351596,-0.360388,-0.7305969999999999,-0.579744
1629795351605,-0.360266,-0.734196,-0.578524
1629795351615,-0.361608,-0.734989,-0.577487
1629795351624,-0.362157,-0.73566,-0.575352
1629795351634,-0.363316,-0.7363919999999999,-0.572485
1629795351644,-0.360998,-0.738588,-0.5675439999999999
1629795351653,-0.358802,-0.741455,-0.5644939999999999
1629795351663,-0.35807,-0.744566,-0.560956
1629795351672,-0.357643,-0.749263,-0.558394
1629795351682,-0.35739899999999997,-0.751154,-0.55876
1629795351692,-0.35465399999999997,-0.75274,-0.560712
1629795351701,-0.355691,-0.751215,-0.5608339999999999
1629795351711,-0.35709399999999997,-0.74908,-0.557235
1629795351720,-0.357948,-0.746579,-0.556564
1629795351730,-0.356606,-0.748043,-0.554612
1629795351740,-0.356057,-0.748897,-0.550647
1629795351749,-0.360022,-0.747311,-0.551013
1629795351759,-0.35953399999999996,-0.751337,-0.549061
1629795351768,-0.358436,-0.752618,-0.546804
1629795351778,-0.357887,-0.750788,-0.546438
1629795351788,-0.356423,-0.755363,-0.5471699999999999
1629795351797,-0.356362,-0.757864,-0.541192
1629795351807,-0.35800899999999997,-0.757864,-0.539057
1629795351816,-0.356972,-0.7598159999999999,-0.540826
1629795351826,-0.358192,-0.761707,-0.538447
1629795351836,-0.360083,-0.763598,-0.530639
1629795351845,-0.360327,-0.762988,-0.530456
1629795351855,-0.361181,-0.76372,-0.529236
1629795351864,-0.35770399999999997,-0.7619509999999999,-0.531615
1629795351874,-0.356728,-0.761097,-0.533201
1629795351884,-0.357216,-0.761707,-0.535031
1629795351893,-0.356728,-0.763354,-0.5364949999999999
1629795351903,-0.35892399999999997,-0.76433,-0.536373
1629795351912,-0.358131,-0.7659159999999999,-0.535336
1629795351922,-0.357887,-0.766343,-0.536861
1629795351932,-0.358253,-0.7671359999999999,-0.537288
1629795351941,-0.358192,-0.7650009999999999,-0.535824
1629795351951,-0.360144,-0.761463,-0.536373
1629795351960,-0.360205,-0.762988,-0.535641
1629795351970,-0.359351,-0.764025,-0.534116
1629795351980,-0.35831399999999997,-0.76555,-0.535214
1629795351989,-0.35953399999999996,-0.763903,-0.536251
1629795351999,-0.360937,-0.763232,-0.538691
1629795352008,-0.361242,-0.762134,-0.537959
1629795352018,-0.360388,-0.761585,-0.535946
1629795352028,-0.360388,-0.764757,-0.536556
1629795352037,-0.361486,-0.7686,-0.535397
1629795352047,-0.360266,-0.770308,-0.533567
1629795352056,-0.359473,-0.773297,-0.530944
1629795352066,-0.360266,-0.773297,-0.529419
1629795352076,-0.36051,-0.771406,-0.527345
1629795352085,-0.360937,-0.77104,-0.527955
1629795352095,-0.360693,-0.770796,-0.531127
1629795352104,-0.359656,-0.772138,-0.531249
1629795352114,-0.359351,-0.77104,-0.529907
1629795352124,-0.3599,-0.77104,-0.528504
1629795352133,-0.359595,-0.769149,-0.529419
1629795352143,-0.359107,-0.768112,-0.52948
1629795352152,-0.35892399999999997,-0.76555,-0.528992
1629795352162,-0.35868,-0.765855,-0.528077
1629795352172,-0.357582,-0.765855,-0.529236
1629795352181,-0.35831399999999997,-0.76372,-0.530578
1629795352191,-0.355691,-0.762317,-0.531432
1629795352200,-0.356057,-0.758474,-0.533323
1629795352210,-0.356606,-0.7589009999999999,-0.533323
1629795352220,-0.356728,-0.75884,-0.533018
1629795352229,-0.35746,-0.761524,-0.532286
1629795352239,-0.35685,-0.76433,-0.532042
1629795352248,-0.357216,-0.7640859999999999,-0.531005
1629795352258,-0.356728,-0.767075,-0.531066
1629795352268,-0.355325,-0.768661,-0.528321
1629795352277,-0.354898,-0.769576,-0.527772
1629795352287,-0.35502,-0.770552,-0.529541
1629795352296,-0.355142,-0.771223,-0.53131
1629795352306,-0.35556899999999997,-0.77043,-0.530944
1629795352316,-0.354776,-0.772199,-0.528626
1629795352325,-0.353983,-0.7768349999999999,-0.525332
1629795352335,-0.352092,-0.783057,-0.522465
1629795352344,-0.35197,-0.7817149999999999,-0.523258
1629795352354,-0.351665,-0.781471,-0.521855
1629795352364,-0.35258,-0.7786649999999999,-0.519537
1629795352373,-0.352641,-0.780373,-0.521733
1629795352383,-0.352153,-0.781898,-0.52216
1629795352392,-0.352397,-0.781532,-0.523868
1629795352402,-0.35319,-0.780251,-0.524783
1629795352412,-0.352397,-0.7780549999999999,-0.5219159999999999
1629795352421,-0.352092,-0.776103,-0.5197809999999999
1629795352431,-0.35160399999999997,-0.775737,-0.518012
1629795352440,-0.349103,-0.778177,-0.51484
1629795352450,-0.34831,-0.782203,-0.511241
1629795352460,-0.347944,-0.785802,-0.509838
1629795352469,-0.347883,-0.790743,-0.513193
1629795352479,-0.345809,-0.791658,-0.510265
1629795352488,-0.345931,-0.7905599999999999,-0.509228
1629795352498,-0.344833,-0.791292,-0.509594
1629795352508,-0.342393,-0.790438,-0.507398
1629795352517,-0.34141699999999997,-0.790194,-0.505507
1629795352527,-0.339709,-0.793976,-0.503616
1629795352536,-0.336781,-0.797392,-0.500078
1629795352546,-0.33611,-0.799222,-0.494771
1629795352556,-0.335134,-0.8008689999999999,-0.494283
1629795352565,-0.33427999999999997,-0.802455,-0.49776
1629795352575,-0.333914,-0.800198,-0.497516
1629795352584,-0.333609,-0.797331,-0.496296
1629795352594,-0.332511,-0.796843,-0.494771
1629795352604,-0.332633,-0.79788,-0.49166
1629795352613,-0.332206,-0.800686,-0.48928099999999997
1629795352623,-0.331413,-0.804468,-0.486597
1629795352632,-0.329034,-0.808372,-0.482632
1629795352642,-0.328302,-0.812215,-0.482144
1629795352652,-0.327265,-0.814106,-0.482693
1629795352661,-0.326899,-0.815326,-0.482144
1629795352671,-0.327387,-0.814777,-0.482449
1629795352680,-0.327692,-0.815326,-0.481595
1629795352690,-0.327143,-0.815448,-0.481534
1629795352700,-0.328607,-0.81496,-0.480497
1629795352709,-0.328363,-0.81435,-0.479643
1629795352719,-0.32848499999999997,-0.8142889999999999,-0.479826
1629795352728,-0.329278,-0.815021,-0.47970399999999996
1629795352738,-0.328607,-0.816668,-0.47885
1629795352748,-0.328973,-0.8164239999999999,-0.478606
1629795352757,-0.328912,-0.816058,-0.478118
1629795352767,-0.32970499999999997,-0.815448,-0.477508
1629795352776,-0.330559,-0.81435,-0.478667
1629795352786,-0.33092499999999997,-0.813618,-0.47909399999999996
1629795352796,-0.331474,-0.813801,-0.480741
1629795352805,-0.331779,-0.811971,-0.480863
1629795352815,-0.332572,-0.808982,-0.482937
1629795352824,-0.332328,-0.807701,-0.481961
1629795352834,-0.33305999999999997,-0.808738,-0.482937
1629795352844,-0.332694,-0.809287,-0.48373
1629795352853,-0.334341,-0.808372,-0.484035
1629795352863,-0.334951,-0.8075789999999999,-0.484157
1629795352872,-0.335439,-0.806786,-0.48257099999999997
1629795352882,-0.335073,-0.806786,-0.482937
1629795352892,-0.335439,-0.808372,-0.483364
1629795352901,-0.335195,-0.806908,-0.485072
1629795352911,-0.335256,-0.806176,-0.485072
1629795352920,-0.336171,-0.804468,-0.486597
1629795352930,-0.336964,-0.802638,-0.487939
1629795352940,-0.336842,-0.803553,-0.490135
1629795352949,-0.336964,-0.805688,-0.490867
1629795352959,-0.336232,-0.805017,-0.489098
1629795352968,-0.338062,-0.804346,-0.488305
1629795352978,-0.33855,-0.8033089999999999,-0.48739
1629795352988,-0.34038,-0.801357,-0.488427
1629795352997,-0.339953,-0.801845,-0.48714599999999997
1629795353007,-0.340441,-0.803126,-0.486353
1629795353016,-0.34141699999999997,-0.802821,-0.488488
1629795353026,-0.339953,-0.80581,-0.489769
1629795353036,-0.341356,-0.80642,-0.493734
1629795353045,-0.341051,-0.806237,-0.49458799999999997
1629795353055,-0.343735,-0.804895,-0.49776
1629795353064,-0.34221,-0.803065,-0.495259
1629795353074,-0.342759,-0.80337,-0.490257
1629795353084,-0.341661,-0.80276,-0.49111099999999996
1629795353093,-0.342881,-0.802211,-0.48983
1629795353103,-0.344284,-0.801418,-0.489464
1629795353112,-0.343186,-0.8008689999999999,-0.491355
1629795353122,-0.34416199999999997,-0.801235,-0.491843
1629795353132,-0.34263699999999997,-0.801235,-0.493856
1629795353141,-0.344101,-0.800076,-0.49355099999999996
1629795353151,-0.345443,-0.7987339999999999,-0.492392
1629795353160,-0.346724,-0.796538,-0.491538
1629795353170,-0.34721199999999997,-0.794464,-0.490684
1629795353180,-0.346663,-0.79544,-0.489708
1629795353189,-0.348066,-0.795623,-0.490989
1629795353199,-0.348493,-0.795928,-0.493124
1629795353208,-0.348737,-0.796721,-0.494283
1629795353218,-0.347761,-0.797819,-0.496662
1629795353228,-0.347578,-0.7993439999999999,-0.496662
1629795353237,-0.347639,-0.7984289999999999,-0.495686
1629795353247,-0.348188,-0.796782,-0.495076
1629795353256,-0.348249,-0.798002,-0.49532
1629795353266,-0.347822,-0.798856,-0.494161
1629795353276,-0.347883,-0.795623,-0.49202599999999996
1629795353285,-0.347456,-0.795562,-0.494039
1629795353295,-0.34568699999999997,-0.797758,-0.496845
1629795353304,-0.346358,-0.799222,-0.500261
1629795353314,-0.346175,-0.796721,-0.500139
1629795353324,-0.346236,-0.793671,-0.499346
1629795353333,-0.345565,-0.793,-0.498492
1629795353343,-0.345199,-0.793244,-0.49776
1629795353352,-0.344284,-0.793488,-0.498065
1629795353362,-0.344284,-0.793122,-0.49654
1629795353372,-0.343674,-0.793976,-0.49885799999999997
1629795353381,-0.343735,-0.795196,-0.499224
1629795353391,-0.343064,-0.795684,-0.499834
1629795353400,-0.344528,-0.795867,-0.501176
1629795353410,-0.343369,-0.79605,-0.500932
1629795353420,-0.34233199999999997,-0.795928,-0.500993
1629795353429,-0.34404,-0.795562,-0.500139
1629795353439,-0.343796,-0.795196,-0.501542
1629795353448,-0.342759,-0.795562,-0.501481
1629795353458,-0.342454,-0.795379,-0.502091
1629795353468,-0.343064,-0.795623,-0.501786
1629795353477,-0.343613,-0.79544,-0.503128
1629795353487,-0.34294199999999997,-0.794525,-0.503555
1629795353496,-0.34282,-0.793732,-0.50203
1629795353506,-0.342576,-0.792146,-0.50386
1629795353516,-0.343003,-0.790804,-0.5063
1629795353525,-0.342393,-0.790438,-0.507154
1629795353535,-0.341051,-0.791109,-0.508984
1629795353544,-0.342393,-0.789767,-0.507398
1629795353554,-0.344528,-0.787937,-0.506788
1629795353564,-0.344833,-0.787144,-0.507764
1629795353573,-0.34355199999999997,-0.788059,-0.508801
1629795353583,-0.343674,-0.787998,-0.508618
1629795353592,-0.34465,-0.787998,-0.508923
1629795353602,-0.344345,-0.786412,-0.508801
1629795353612,-0.34385699999999997,-0.786351,-0.508557
1629795353621,-0.34355199999999997,-0.786656,-0.508923
1629795353631,-0.34404,-0.786778,-0.509228
1629795353640,-0.344589,-0.786656,-0.509716
1629795353650,-0.34404,-0.785497,-0.510997
1629795353660,-0.344406,-0.785802,-0.512156
1629795353669,-0.344406,-0.785924,-0.5133759999999999
1629795353679,-0.344223,-0.785924,-0.51301
1629795353688,-0.34526,-0.784216,-0.512339
1629795353698,-0.346968,-0.783728,-0.512888
1629795353708,-0.34709,-0.781654,-0.5124
1629795353717,-0.3477,-0.7817149999999999,-0.512278
1629795353727,-0.34690699999999997,-0.783423,-0.514169
1629795353736,-0.34629699999999997,-0.782264,-0.514474
1629795353746,-0.3477,-0.780434,-0.517463
1629795353756,-0.34690699999999997,-0.782203,-0.519964
1629795353765,-0.348005,-0.783972,-0.522343
1629795353775,-0.348066,-0.7835449999999999,-0.523868
1629795353784,-0.347639,-0.781898,-0.522587
1629795353794,-0.348676,-0.780068,-0.521428
1629795353804,-0.347822,-0.7798849999999999,-0.5206959999999999
1629795353813,-0.3477,-0.779641,-0.5188659999999999
1629795353823,-0.347639,-0.7792749999999999,-0.517829
1629795353832,-0.346968,-0.779092,-0.519049
1629795353842,-0.34660199999999997,-0.777872,-0.52033
1629795353852,-0.347578,-0.779092,-0.521733
1629795353861,-0.346846,-0.779824,-0.522343
1629795353871,-0.347639,-0.778177,-0.5219159999999999
1629795353880,-0.348371,-0.777384,-0.522892
1629795353890,-0.347944,-0.775737,-0.521123
1629795353900,-0.34953,-0.775676,-0.5210009999999999
1629795353909,-0.349652,-0.775371,-0.521733
1629795353919,-0.350384,-0.775981,-0.521428
1629795353928,-0.350018,-0.776957,-0.522892
1629795353938,-0.350018,-0.776591,-0.5231359999999999
1629795353948,-0.35014,-0.777323,-0.524173
1629795353957,-0.351055,-0.775066,-0.524112
1629795353967,-0.352885,-0.7746999999999999,-0.524783
1629795353976,-0.35343399999999997,-0.776896,-0.52582
1629795353986,-0.355691,-0.7759199999999999,-0.526613
1629795353996,-0.354776,-0.77409,-0.52521
1629795354005,-0.353495,-0.773907,-0.527467
1629795354015,-0.35319,-0.77409,-0.529541
1629795354024,-0.353068,-0.774029,-0.532103
1629795354034,-0.353617,-0.772809,-0.532225
1629795354044,-0.35404399999999997,-0.770613,-0.530883
1629795354053,-0.35502,-0.767502,-0.529785
1629795354063,-0.354776,-0.7659159999999999,-0.52948
1629795354072,-0.35441,-0.765123,-0.529114
1629795354082,-0.355813,-0.765855,-0.530029
1629795354092,-0.356118,-0.767014,-0.530456
1629795354101,-0.355691,-0.769759,-0.531676
1629795354111,-0.355325,-0.770247,-0.53253
1629795354120,-0.355935,-0.76982,-0.53314
1629795354130,-0.356728,-0.770247,-0.531859
1629795354140,-0.354898,-0.770552,-0.533872
1629795354149,-0.354837,-0.770186,-0.533506
1629795354159,-0.35495899999999997,-0.769027,-0.533018
1629795354168,-0.355752,-0.76738,-0.532164
1629795354178,-0.355752,-0.765489,-0.53314
1629795354188,-0.356057,-0.765733,-0.534665
1629795354197,-0.356057,-0.765062,-0.53436
1629795354207,-0.355752,-0.765489,-0.535946
1629795354216,-0.355203,-0.767075,-0.5361899999999999
1629795354226,-0.35556899999999997,-0.7650009999999999,-0.537288
1629795354236,-0.357216,-0.763964,-0.537776
1629795354245,-0.35617899999999997,-0.76494,-0.538142
1629795354255,-0.355142,-0.762012,-0.5374099999999999
1629795354264,-0.355935,-0.759694,-0.537654
1629795354274,-0.355142,-0.762195,-0.5374099999999999
1629795354284,-0.355325,-0.762317,-0.5374099999999999
1629795354293,-0.356362,-0.762683,-0.539728
1629795354303,-0.354837,-0.762317,-0.540094
1629795354312,-0.355386,-0.762195,-0.539423
1629795354322,-0.355508,-0.762012,-0.539301
1629795354332,-0.35648399999999997,-0.762927,-0.5389349999999999
1629795354341,-0.355935,-0.7625,-0.538569
1629795354351,-0.356118,-0.763049,-0.539179
1629795354360,-0.355508,-0.7622559999999999,-0.5401549999999999
1629795354370,-0.35563,-0.762378,-0.5422899999999999
1629795354380,-0.356606,-0.763598,-0.543083
1629795354389,-0.356057,-0.76189,-0.5428999999999999
1629795354399,-0.355508,-0.760548,-0.5435099999999999
1629795354408,-0.35526399999999997,-0.760609,-0.544852
1629795354418,-0.35343399999999997,-0.7592059999999999,-0.545157
1629795354428,-0.353373,-0.757864,-0.545096
1629795354437,-0.35441,-0.75579,-0.5468649999999999
1629795354447,-0.355996,-0.753472,-0.544852
1629795354456,-0.35770399999999997,-0.751947,-0.544547
1629795354466,-0.35502,-0.7534109999999999,-0.543144
1629795354476,-0.356667,-0.754143,-0.542046
1629795354485,-0.355203,-0.75701,-0.5456449999999999
1629795354495,-0.353983,-0.7585959999999999,-0.550098
1629795354504,-0.354105,-0.759145,-0.552538
1629795354514,-0.354227,-0.7604259999999999,-0.551623
1629795354524,-0.354288,-0.760914,-0.551989
1629795354533,-0.354471,-0.757498,-0.550464
1629795354543,-0.35404399999999997,-0.75518,-0.550525
1629795354552,-0.35319,-0.754387,-0.549854
1629795354562,-0.353251,-0.752557,-0.54961
1629795354572,-0.353068,-0.750849,-0.550037
1629795354581,-0.352641,-0.751398,-0.551745
1629795354591,-0.352763,-0.752008,-0.552904
1629795354600,-0.352885,-0.7512759999999999,-0.552782
1629795354610,-0.352885,-0.750483,-0.553453
1629795354620,-0.354227,-0.749995,-0.553941
1629795354629,-0.354166,-0.750056,-0.554917
1629795354639,-0.354532,-0.750056,-0.555344
1629795354648,-0.354715,-0.748348,-0.554612
1629795354658,-0.354776,-0.748775,-0.556808
1629795354668,-0.356362,-0.7506659999999999,-0.559492
1629795354677,-0.356972,-0.750056,-0.561383
1629795354687,-0.356301,-0.749141,-0.563335
1629795354696,-0.355935,-0.750239,-0.5632739999999999
1629795354706,-0.356728,-0.74847,-0.5623589999999999
1629795354716,-0.357826,-0.749202,-0.561078
1629795354725,-0.357765,-0.748043,-0.557845
1629795354735,-0.35807,-0.744688,-0.555832
1629795354744,-0.356972,-0.744078,-0.557723
1629795354754,-0.356545,-0.745908,-0.5620539999999999
1629795354764,-0.355325,-0.746945,-0.5638839999999999
1629795354773,-0.355508,-0.74847,-0.5654089999999999
1629795354783,-0.35678899999999997,-0.745847,-0.563152
1629795354792,-0.35770399999999997,-0.744261,-0.56059
1629795354802,-0.358558,-0.742858,-0.559919
1629795354812,-0.358802,-0.740723,-0.558882
1629795354821,-0.358497,-0.7406619999999999,-0.559309
1629795354831,-0.3599,-0.739686,-0.559187
1629795354840,-0.361547,-0.738954,-0.56059
1629795354850,-0.360083,-0.742553,-0.563152
1629795354860,-0.359473,-0.745115,-0.564372
1629795354869,-0.360449,-0.742858,-0.565531
1629795354879,-0.360632,-0.7412719999999999,-0.566873
1629795354888,-0.360815,-0.74115,-0.566202
1629795354898,-0.360876,-0.740784,-0.565592
1629795354908,-0.360083,-0.741943,-0.5654089999999999
1629795354917,-0.361059,-0.7400519999999999,-0.563152
1629795354927,-0.362401,-0.738161,-0.562847
1629795354936,-0.361852,-0.739076,-0.5632739999999999
1629795354946,-0.362157,-0.7382219999999999,-0.565287
1629795354956,-0.361669,-0.738649,-0.565775
1629795354965,-0.36295,-0.73688,-0.565958
1629795354975,-0.363743,-0.735538,-0.568093
1629795354984,-0.364719,-0.735538,-0.568276
1629795354994,-0.365024,-0.736331,-0.566812
1629795355004,-0.364353,-0.737551,-0.5678489999999999
1629795355013,-0.36575599999999997,-0.737673,-0.568093
1629795355023,-0.364597,-0.738405,-0.5669339999999999
1629795355032,-0.36478,-0.738405,-0.5669339999999999
1629795355042,-0.365024,-0.738588,-0.5657139999999999
1629795355052,-0.365207,-0.737673,-0.5651039999999999
1629795355061,-0.365695,-0.737795,-0.56425
1629795355071,-0.365634,-0.737734,-0.563152
1629795355080,-0.366732,-0.7388319999999999,-0.565531
1629795355090,-0.366488,-0.739869,-0.566995
1629795355100,-0.36667099999999997,-0.7409669999999999,-0.567117
1629795355109,-0.366915,-0.74054,-0.565897
1629795355119,-0.367159,-0.7391369999999999,-0.56486
1629795355128,-0.368928,-0.7388319999999999,-0.565226
1629795355138,-0.367708,-0.740296,-0.565958
1629795355148,-0.367159,-0.7418819999999999,-0.564128
1629795355157,-0.367708,-0.738649,-0.5626639999999999
1629795355167,-0.369477,-0.735294,-0.561261
1629795355176,-0.371612,-0.734684,-0.562786
1629795355186,-0.371063,-0.7363919999999999,-0.563335
1629795355196,-0.370392,-0.738283,-0.563518
1629795355205,-0.370209,-0.739564,-0.565958
1629795355215,-0.370087,-0.7418819999999999,-0.567361
1629795355224,-0.36880599999999997,-0.741821,-0.566995
1629795355234,-0.368745,-0.740723,-0.566446
1629795355244,-0.37033099999999997,-0.739625,-0.565958
1629795355253,-0.37033099999999997,-0.739259,-0.565836
1629795355263,-0.37155099999999996,-0.736941,-0.56425
1629795355272,-0.370819,-0.736758,-0.563213
1629795355282,-0.37124599999999996,-0.73627,-0.562298
1629795355292,-0.370575,-0.7348669999999999,-0.561078
1629795355301,-0.370392,-0.735355,-0.560956
1629795355311,-0.36941599999999997,-0.737124,-0.561871
1629795355320,-0.369538,-0.738405,-0.560712
1629795355330,-0.369782,-0.740235,-0.561688
1629795355340,-0.37027,-0.739625,-0.560773
1629795355349,-0.371124,-0.7382219999999999,-0.560468
1629795355359,-0.371368,-0.736453,-0.559553
1629795355368,-0.371124,-0.736941,-0.560895
1629795355378,-0.372161,-0.7373069999999999,-0.5614439999999999
1629795355388,-0.37149,-0.738466,-0.562908
1629795355397,-0.372222,-0.738344,-0.56364
1629795355407,-0.373198,-0.739686,-0.565165
1629795355416,-0.371856,-0.739625,-0.565043
1629795355426,-0.372222,-0.738893,-0.56425
1629795355436,-0.373076,-0.7379169999999999,-0.5617489999999999
1629795355445,-0.373137,-0.7388319999999999,-0.560407
1629795355455,-0.37393,-0.7385269999999999,-0.559187
1629795355464,-0.373137,-0.7363919999999999,-0.560041
1629795355474,-0.371063,-0.73871,-0.56303
1629795355484,-0.37002599999999997,-0.739869,-0.566141
1629795355493,-0.37033099999999997,-0.7373069999999999,-0.56669
1629795355503,-0.371978,-0.735294,-0.565775
1629795355512,-0.372649,-0.7348669999999999,-0.565653
1629795355522,-0.37332,-0.734135,-0.5651039999999999
1629795355532,-0.372954,-0.733464,-0.5635789999999999
1629795355541,-0.3721,-0.73444,-0.5647989999999999
1629795355551,-0.371917,-0.736026,-0.56486
1629795355560,-0.371978,-0.735416,-0.564738
1629795355570,-0.371917,-0.736819,-0.565165
1629795355580,-0.37149,-0.737185,-0.565958
1629795355589,-0.371124,-0.737551,-0.56547
1629795355599,-0.372161,-0.73627,-0.56486
1629795355608,-0.371185,-0.736209,-0.565958
1629795355618,-0.37124599999999996,-0.734806,-0.5654089999999999
1629795355628,-0.371612,-0.7339519999999999,-0.565592
1629795355637,-0.371734,-0.734623,-0.5663239999999999
1629795355647,-0.372649,-0.735355,-0.566263
1629795355656,-0.371368,-0.7363919999999999,-0.566507
1629795355666,-0.37155099999999996,-0.735721,-0.566385
1629795355676,-0.371673,-0.736453,-0.566446
1629795355685,-0.371002,-0.73627,-0.566995
1629795355695,-0.370575,-0.734806,-0.566263
1629795355704,-0.371185,-0.733159,-0.566263
1629795355714,-0.370575,-0.733159,-0.566507
1629795355724,-0.372039,-0.7330369999999999,-0.5673
1629795355733,-0.372161,-0.732976,-0.566568
1629795355743,-0.372344,-0.73139,-0.566995
1629795355752,-0.372405,-0.731878,-0.567666
1629795355762,-0.372954,-0.7318169999999999,-0.567971
1629795355772,-0.3721,-0.732671,-0.567727
1629795355781,-0.372893,-0.731878,-0.567178
1629795355791,-0.372771,-0.73383,-0.567605
1629795355800,-0.3721,-0.7342569999999999,-0.5675439999999999
1629795355810,-0.372161,-0.735233,-0.5673
1629795355820,-0.3721,-0.734501,-0.568276
1629795355829,-0.372466,-0.733464,-0.568093
1629795355839,-0.372649,-0.732305,-0.567727
1629795355848,-0.371856,-0.7321219999999999,-0.568276
1629795355858,-0.372222,-0.732915,-0.56913
1629795355868,-0.37149,-0.735416,-0.5699839999999999
1629795355877,-0.370392,-0.733769,-0.566202
1629795355887,-0.372283,-0.731756,-0.565958
1629795355896,-0.372466,-0.72956,-0.564921
1629795355906,-0.373442,-0.72895,-0.564982
1629795355916,-0.373381,-0.7330369999999999,-0.566202
1629795355925,-0.372588,-0.735416,-0.567666
1629795355935,-0.373381,-0.7360869999999999,-0.570472
1629795355944,-0.372344,-0.736026,-0.571387
1629795355954,-0.37393,-0.7357819999999999,-0.5715089999999999
1629795355964,-0.374906,-0.735294,-0.569313
1629795355973,-0.37454,-0.7339519999999999,-0.5681539999999999
1629795355983,-0.37515,-0.73139,-0.567422
1629795355992,-0.374845,-0.729865,-0.566202
1629795356002,-0.374479,-0.7333419999999999,-0.567483
1629795356012,-0.372893,-0.7360869999999999,-0.56608
1629795356021,-0.372954,-0.734501,-0.564677
1629795356031,-0.372893,-0.732854,-0.5644939999999999
1629795356040,-0.372832,-0.733159,-0.565043
1629795356050,-0.372893,-0.734928,-0.566385
1629795356060,-0.372161,-0.735416,-0.5669339999999999
1629795356069,-0.373137,-0.732183,-0.565653
1629795356079,-0.373015,-0.73139,-0.56364
1629795356088,-0.374052,-0.732305,-0.563701
1629795356098,-0.37332,-0.733403,-0.56425
1629795356108,-0.373686,-0.734623,-0.56486
1629795356117,-0.372588,-0.736575,-0.56547
1629795356127,-0.373015,-0.736636,-0.565348
1629795356136,-0.373503,-0.738161,-0.5647989999999999
1629795356146,-0.373686,-0.737673,-0.56486
1629795356156,-0.372283,-0.7381,-0.566263
1629795356165,-0.372405,-0.7366969999999999,-0.566202
1629795356175,-0.372466,-0.734135,-0.564128
1629795356184,-0.373686,-0.7336469999999999,-0.564921
1629795356194,-0.373503,-0.734745,-0.564433
1629795356204,-0.374479,-0.7327319999999999,-0.5638839999999999
1629795356213,-0.3721,-0.733464,-0.5657139999999999
1629795356223,-0.37063599999999997,-0.734684,-0.56852
1629795356232,-0.371063,-0.734806,-0.568337
1629795356242,-0.371978,-0.73322,-0.56669
1629795356252,-0.372527,-0.7327319999999999,-0.565775
1629795356261,-0.372649,-0.732915,-0.562481
1629795356271,-0.372344,-0.73322,-0.560773
1629795356280,-0.371673,-0.73444,-0.562908
1629795356290,-0.371734,-0.7354769999999999,-0.565958
1629795356300,-0.37124599999999996,-0.735721,-0.566873
1629795356309,-0.371856,-0.736453,-0.569801
1629795356319,-0.372222,-0.736026,-0.569496
1629795356328,-0.372771,-0.73383,-0.570106
1629795356338,-0.373808,-0.7330369999999999,-0.568886
1629795356348,-0.372832,-0.73139,-0.568276
1629795356357,-0.37332,-0.7302919999999999,-0.56791
1629795356367,-0.374113,-0.731024,-0.569008
1629795356376,-0.373198,-0.73139,-0.568581
1629795356386,-0.372649,-0.731146,-0.568581
1629795356396,-0.373442,-0.7312069999999999,-0.568947
1629795356405,-0.37271,-0.730658,-0.5693739999999999
1629795356415,-0.37332,-0.728828,-0.569435
1629795356424,-0.374845,-0.729133,-0.57096
1629795356434,-0.374174,-0.729194,-0.569801
1629795356444,-0.374967,-0.730414,-0.568581
1629795356453,-0.374357,-0.729621,-0.570533
1629795356463,-0.374723,-0.73017,-0.569862
1629795356472,-0.37515,-0.729865,-0.5702889999999999
1629795356482,-0.37594299999999997,-0.7302919999999999,-0.570533
1629795356492,-0.37716299999999997,-0.73078,-0.570716
1629795356501,-0.376492,-0.73078,-0.569313
1629795356511,-0.377102,-0.73017,-0.56974
1629795356520,-0.37759,-0.72956,-0.56974
1629795356530,-0.377346,-0.729255,-0.5687639999999999
1629795356540,-0.378139,-0.7284619999999999,-0.56852
1629795356549,-0.37716299999999997,-0.72956,-0.5693739999999999
1629795356559,-0.376614,-0.730658,-0.569435
1629795356568,-0.378017,-0.729865,-0.57035
1629795356578,-0.379847,-0.728706,-0.5696789999999999
1629795356588,-0.37960299999999997,-0.728218,-0.570228
1629795356597,-0.378627,-0.7284619999999999,-0.5708989999999999
1629795356607,-0.377407,-0.727974,-0.569313
1629795356616,-0.3782,-0.726388,-0.5663239999999999
1629795356626,-0.379359,-0.724436,-0.567422
1629795356636,-0.381006,-0.722667,-0.5663239999999999
1629795356645,-0.382104,-0.72224,-0.56791
1629795356655,-0.381189,-0.724558,-0.569923
1629795356664,-0.38082299999999997,-0.727181,-0.5699839999999999
1629795356674,-0.379542,-0.72895,-0.573583
1629795356684,-0.380701,-0.7290719999999999,-0.575962
1629795356693,-0.380335,-0.731268,-0.574498
1629795356703,-0.380701,-0.732,-0.572485
1629795356712,-0.382165,-0.729255,-0.570838
1629795356722,-0.382287,-0.727608,-0.568337
1629795356732,-0.381677,-0.728218,-0.567056
1629795356741,-0.38143299999999997,-0.72834,-0.566995
1629795356751,-0.380762,-0.728645,-0.567666
1629795356760,-0.380091,-0.7290719999999999,-0.568642
1629795356770,-0.37929799999999997,-0.728828,-0.5699839999999999
1629795356780,-0.379664,-0.728279,-0.571082
1629795356789,-0.379176,-0.7272419999999999,-0.569923
1629795356799,-0.37929799999999997,-0.725534,-0.570106
1629795356808,-0.380884,-0.723338,-0.568947
1629795356818,-0.38112799999999997,-0.722362,-0.5684589999999999
1629795356828,-0.381799,-0.722972,-0.5684589999999999
1629795356837,-0.38112799999999997,-0.722972,-0.569435
1629795356847,-0.380701,-0.724436,-0.571387
1629795356856,-0.381616,-0.726449,-0.5734
1629795356866,-0.381616,-0.726327,-0.573278
1629795356876,-0.382104,-0.7259,-0.572485
1629795356885,-0.381616,-0.7259,-0.573522
1629795356895,-0.381372,-0.726754,-0.574193
1629795356904,-0.381067,-0.728096,-0.574864
1629795356914,-0.380091,-0.72651,-0.574193
1629795356924,-0.382226,-0.724863,-0.572912
1629795356933,-0.382775,-0.72407,-0.572668
1629795356943,-0.382287,-0.723277,-0.5715089999999999
1629795356952,-0.38234799999999997,-0.721142,-0.5712039999999999
1629795356962,-0.379542,-0.723765,-0.576145
1629795356972,-0.378261,-0.7272419999999999,-0.578829
1629795356981,-0.379969,-0.7272419999999999,-0.578585
1629795356991,-0.380762,-0.725229,-0.576084
1629795357000,-0.38051799999999997,-0.723826,-0.573644
1629795357010,-0.379359,-0.723521,-0.572485
1629795357020,-0.379847,-0.723887,-0.571082
1629795357029,-0.379481,-0.724802,-0.5712039999999999
1629795357039,-0.37868799999999997,-0.725107,-0.570838
1629795357048,-0.378932,-0.726327,-0.571692
1629795357058,-0.37881,-0.72651,-0.573522
1629795357068,-0.379176,-0.72651,-0.572363
1629795357077,-0.378505,-0.726998,-0.5721189999999999
1629795357087,-0.379054,-0.727303,-0.57096
1629795357096,-0.37807799999999997,-0.726754,-0.572363
1629795357106,-0.379054,-0.726266,-0.571753
1629795357116,-0.379664,-0.724985,-0.572668
1629795357125,-0.37929799999999997,-0.72529,-0.573156
1629795357135,-0.37807799999999997,-0.726144,-0.571692
1629795357144,-0.377651,-0.725717,-0.571326
1629795357154,-0.377529,-0.726266,-0.5724239999999999
1629795357164,-0.37716299999999997,-0.72651,-0.571753
1629795357173,-0.377407,-0.727059,-0.572851
1629795357183,-0.377651,-0.726205,-0.571997
1629795357192,-0.376675,-0.726693,-0.572912
1629795357202,-0.377834,-0.726022,-0.5721189999999999
1629795357212,-0.37759,-0.724314,-0.572241
1629795357221,-0.378566,-0.723582,-0.5721189999999999
1629795357231,-0.379115,-0.724314,-0.5727289999999999
1629795357240,-0.379359,-0.725778,-0.57279
1629795357250,-0.378749,-0.725656,-0.573034
1629795357260,-0.378261,-0.726754,-0.572485
1629795357269,-0.377712,-0.728035,-0.5724239999999999
1629795357279,-0.3782,-0.7275469999999999,-0.571753
1629795357288,-0.378566,-0.727974,-0.57035
1629795357298,-0.37881,-0.727913,-0.570655
1629795357308,-0.377651,-0.728645,-0.571936
1629795357317,-0.377712,-0.7284619999999999,-0.572058
1629795357327,-0.378749,-0.727669,-0.571448
1629795357336,-0.380457,-0.727059,-0.572668
1629795357346,-0.380152,-0.726144,-0.573644
1629795357356,-0.381494,-0.725046,-0.57523
1629795357365,-0.379481,-0.726327,-0.574132
1629795357375,-0.379115,-0.72468,-0.5718139999999999
1629795357384,-0.37929799999999997,-0.724436,-0.57096
1629795357394,-0.38021299999999997,-0.724009,-0.569862
1629795357404,-0.380762,-0.724253,-0.569435
1629795357413,-0.380884,-0.725839,-0.569923
1629795357423,-0.38064,-0.726205,-0.569008
1629795357432,-0.380091,-0.726693,-0.569801
1629795357442,-0.37838299999999997,-0.73078,-0.573461
1629795357452,-0.379237,-0.732793,-0.574864
1629795357461,-0.379969,-0.731634,-0.575108
1629795357471,-0.380091,-0.729438,-0.574437
1629795357480,-0.380274,-0.726998,-0.571692
1629795357490,-0.380152,-0.72529,-0.570167
1629795357500,-0.38082299999999997,-0.723704,-0.569008
1629795357509,-0.378566,-0.72285,-0.569862
1629795357519,-0.377834,-0.722423,-0.571021
1629795357528,-0.377529,-0.722606,-0.572912
1629795357538,-0.377529,-0.72407,-0.57523
1629795357548,-0.377407,-0.72468,-0.574437
1629795357557,-0.377956,-0.725351,-0.57401
1629795357567,-0.37746799999999997,-0.726144,-0.571997
1629795357576,-0.377712,-0.724558,-0.570533
1629795357586,-0.378139,-0.725351,-0.56974
1629795357596,-0.377346,-0.726266,-0.5702889999999999
1629795357605,-0.377041,-0.727608,-0.571265
1629795357615,-0.377346,-0.726876,-0.572485
1629795357624,-0.377346,-0.727486,-0.573095
1629795357634,-0.37716299999999997,-0.72712,-0.573095
1629795357644,-0.378322,-0.7272419999999999,-0.574437
1629795357653,-0.379176,-0.726876,-0.5734
1629795357663,-0.378566,-0.727608,-0.574803
1629795357672,-0.377224,-0.726571,-0.574498
1629795357682,-0.378017,-0.724314,-0.5721189999999999
1629795357692,-0.378871,-0.72529,-0.573278
1629795357701,-0.379054,-0.725656,-0.573156
1629795357711,-0.37881,-0.725412,-0.573217
1629795357720,-0.377407,-0.727303,-0.575108
1629795357730,-0.376431,-0.72834,-0.57523
1629795357740,-0.377346,-0.725961,-0.57645
1629795357749,-0.377834,-0.72651,-0.57645
1629795357759,-0.37655299999999997,-0.72529,-0.576389
1629795357768,-0.376431,-0.724741,-0.57706
1629795357778,-0.376919,-0.724131,-0.575596
1629795357788,-0.377102,-0.721752,-0.575474
1629795357797,-0.375882,-0.720593,-0.573095
1629795357807,-0.376309,-0.722301,-0.572485
1629795357816,-0.37624799999999997,-0.723887,-0.573888
1629795357826,-0.376187,-0.724009,-0.57523
1629795357836,-0.375028,-0.723582,-0.575535
1629795357845,-0.375821,-0.724131,-0.575962
1629795357855,-0.376004,-0.726266,-0.574925
1629795357864,-0.37624799999999997,-0.727364,-0.574742
1629795357874,-0.376736,-0.726876,-0.574681
1629795357884,-0.376309,-0.727059,-0.573705
1629795357893,-0.37637,-0.7275469999999999,-0.573949
1629795357903,-0.376797,-0.727181,-0.571997
1629795357912,-0.377102,-0.726388,-0.571448
1629795357922,-0.376431,-0.726571,-0.572363
1629795357932,-0.37624799999999997,-0.726693,-0.5721189999999999
1629795357941,-0.37655299999999997,-0.725961,-0.572302
1629795357951,-0.376797,-0.726327,-0.572973
1629795357960,-0.376492,-0.727059,-0.573217
1629795357970,-0.377285,-0.726022,-0.572241
1629795357980,-0.377224,-0.7259,-0.572302
1629795357989,-0.37698,-0.726022,-0.573217
1629795357999,-0.37685799999999997,-0.726205,-0.573339
1629795358008,-0.378017,-0.726632,-0.5721189999999999
1629795358018,-0.377956,-0.727486,-0.5721189999999999
1629795358028,-0.378261,-0.7272419999999999,-0.57279
1629795358037,-0.377895,-0.7269369999999999,-0.57279
1629795358047,-0.377651,-0.7278519999999999,-0.573034
1629795358056,-0.378749,-0.7272419999999999,-0.571875
1629795358066,-0.37899299999999997,-0.727059,-0.5705939999999999
1629795358076,-0.379115,-0.7269369999999999,-0.569923
1629795358085,-0.37838299999999997,-0.727669,-0.571021
1629795358095,-0.378139,-0.7272419999999999,-0.57157
1629795358104,-0.377895,-0.7269369999999999,-0.572058
1629795358114,-0.379115,-0.726998,-0.573766
1629795358124,-0.379725,-0.726998,-0.573583
1629795358133,-0.378871,-0.727303,-0.573705
1629795358143,-0.378261,-0.727364,-0.573522
1629795358152,-0.37838299999999997,-0.727303,-0.570533
1629795358162,-0.379054,-0.725534,-0.5699839999999999
1629795358172,-0.37868799999999997,-0.724863,-0.570472
1629795358181,-0.37899299999999997,-0.724924,-0.5699839999999999
1629795358191,-0.380152,-0.726022,-0.5708989999999999
1629795358200,-0.379237,-0.724985,-0.5708989999999999
1629795358210,-0.378749,-0.725595,-0.571692
1629795358220,-0.378444,-0.728645,-0.575901
1629795358229,-0.3782,-0.731268,-0.576877
1629795358239,-0.377834,-0.7305969999999999,-0.575657
1629795358248,-0.378932,-0.728645,-0.572912
1629795358258,-0.3782,-0.726266,-0.57035
1629795358268,-0.379725,-0.72468,-0.5678489999999999
1629795358277,-0.378444,-0.724497,-0.568581
1629795358287,-0.377102,-0.72468,-0.569252
1629795358296,-0.37746799999999997,-0.724985,-0.570655
1629795358306,-0.37716299999999997,-0.725473,-0.573095
1629795358316,-0.37637,-0.7259,-0.574071
1629795358325,-0.376187,-0.72712,-0.573766
1629795358335,-0.37716299999999997,-0.726266,-0.573644
1629795358344,-0.377285,-0.725717,-0.57218
1629795358354,-0.378261,-0.725107,-0.570228
1629795358364,-0.378017,-0.724619,-0.569191
1629795358373,-0.378932,-0.725046,-0.5687639999999999
1629795358383,-0.37960299999999997,-0.725961,-0.569313
1629795358392,-0.37929799999999997,-0.72773,-0.571448
1629795358402,-0.379237,-0.727913,-0.5712039999999999
1629795358412,-0.380396,-0.729255,-0.573339
1629795358421,-0.380701,-0.729865,-0.573522
1629795358431,-0.380152,-0.730048,-0.573522
1629795358440,-0.379969,-0.729133,-0.574559
1629795358450,-0.37929799999999997,-0.727059,-0.572973
1629795358460,-0.380152,-0.725839,-0.571265
1629795358469,-0.380884,-0.724863,-0.5718139999999999
1629795358479,-0.380762,-0.722423,-0.570411
1629795358488,-0.380091,-0.72041,-0.571448
1629795358498,-0.37777299999999997,-0.723704,-0.573888
1629795358508,-0.378139,-0.726388,-0.574376
1629795358517,-0.378871,-0.726327,-0.5734
1629795358527,-0.378566,-0.725839,-0.5734
1629795358536,-0.379847,-0.726876,-0.572607
1629795358546,-0.378932,-0.726632,-0.571082
1629795358556,-0.379542,-0.72468,-0.570716
1629795358565,-0.379481,-0.725168,-0.569923
1629795358575,-0.379176,-0.725046,-0.571448
1629795358584,-0.379237,-0.726571,-0.571082
1629795358594,-0.378322,-0.7272419999999999,-0.571387
1629795358604,-0.379481,-0.727669,-0.571631
1629795358613,-0.378871,-0.727913,-0.570716
1629795358623,-0.37929799999999997,-0.728706,-0.57096
1629795358632,-0.37899299999999997,-0.727791,-0.570777
1629795358642,-0.379664,-0.727181,-0.569862
1629795358652,-0.37990799999999997,-0.726144,-0.5705939999999999
1629795358661,-0.37942,-0.726571,-0.571448
1629795358671,-0.379786,-0.72529,-0.571082
1629795358680,-0.379664,-0.726144,-0.570655
1629795358690,-0.379237,-0.726144,-0.570228
1629795358700,-0.38003,-0.7259,-0.569862
1629795358709,-0.378932,-0.726388,-0.5699839999999999
1629795358719,-0.37942,-0.726571,-0.570228
1629795358728,-0.378749,-0.72651,-0.570411
1629795358738,-0.380335,-0.72712,-0.571143
1629795358748,-0.380274,-0.726998,-0.5712039999999999
1629795358757,-0.380335,-0.726144,-0.571631
1629795358767,-0.380396,-0.726266,-0.5705939999999999
1629795358776,-0.380274,-0.726571,-0.5696789999999999
1629795358786,-0.380762,-0.726022,-0.569557
1629795358796,-0.381555,-0.72712,-0.569435
1629795358805,-0.382104,-0.727486,-0.569618
1629795358815,-0.381982,-0.727425,-0.569313
1629795358824,-0.381555,-0.727364,-0.569618
1629795358834,-0.38234799999999997,-0.726876,-0.570228
1629795358844,-0.382165,-0.72651,-0.570533
1629795358853,-0.382897,-0.7259,-0.570716
1629795358863,-0.383141,-0.725168,-0.570533
1629795358872,-0.383141,-0.725412,-0.570716
1629795358882,-0.384056,-0.724192,-0.5705939999999999
1629795358892,-0.38356799999999996,-0.724985,-0.57218
1629795358901,-0.38308,-0.725656,-0.572302
1629795358911,-0.383446,-0.725473,-0.571021
1629795358920,-0.383934,-0.725656,-0.572607
1629795358930,-0.382897,-0.724619,-0.5724239999999999
1629795358940,-0.382897,-0.724192,-0.57279
1629795358949,-0.382714,-0.72468,-0.5724239999999999
1629795358959,-0.381677,-0.724497,-0.571143
1629795358968,-0.382897,-0.723826,-0.5718139999999999
1629795358978,-0.383751,-0.72285,-0.570411
1629795358988,-0.38369,-0.721508,-0.569008
1629795358997,-0.384483,-0.722118,-0.569008
1629795359007,-0.383812,-0.72285,-0.568215
1629795359016,-0.38356799999999996,-0.725168,-0.5687639999999999
1629795359026,-0.383812,-0.729438,-0.573949
1629795359036,-0.382775,-0.732305,-0.574254
1629795359045,-0.384605,-0.730475,-0.573644
1629795359055,-0.384666,-0.72895,-0.5721189999999999
1629795359064,-0.384544,-0.726205,-0.5693739999999999
1629795359074,-0.384422,-0.724131,-0.567727
1629795359084,-0.383751,-0.722789,-0.56852
1629795359093,-0.384422,-0.72224,-0.56852
1629795359103,-0.383385,-0.722484,-0.570106
1629795359112,-0.383324,-0.722545,-0.57279
1629795359122,-0.38308,-0.723338,-0.5727289999999999
1629795359132,-0.382592,-0.723094,-0.572363
1629795359141,-0.383446,-0.722301,-0.571997
1629795359151,-0.383629,-0.721935,-0.56974
1629795359160,-0.38387299999999996,-0.722423,-0.568703
1629795359170,-0.384239,-0.721996,-0.568398
1629795359180,-0.384056,-0.722423,-0.5699839999999999
1629795359189,-0.384178,-0.724253,-0.571692
1629795359199,-0.385154,-0.724558,-0.571875
1629795359208,-0.384727,-0.724741,-0.571997
1629795359218,-0.385337,-0.7269369999999999,-0.5721189999999999
1629795359228,-0.385337,-0.727974,-0.5718139999999999
1629795359237,-0.384788,-0.7275469999999999,-0.572668
1629795359247,-0.385398,-0.726632,-0.571936
1629795359256,-0.384971,-0.72468,-0.5715089999999999
1629795359266,-0.385764,-0.72346,-0.5712039999999999
1629795359276,-0.385459,-0.722911,-0.571143
1629795359285,-0.385825,-0.719922,-0.571082
1629795359295,-0.383812,-0.72102,-0.572485
1629795359304,-0.38308,-0.724314,-0.57401
1629795359314,-0.384117,-0.724497,-0.574986
1629795359324,-0.385337,-0.724253,-0.57462
1629795359333,-0.38552,-0.723155,-0.572851
1629795359343,-0.385093,-0.722484,-0.5708989999999999
1629795359352,-0.384971,-0.722057,-0.56974
1629795359362,-0.385093,-0.722972,-0.570655
1629795359372,-0.384422,-0.72346,-0.571326
1629795359381,-0.3843,-0.724192,-0.571265
1629795359391,-0.3843,-0.724985,-0.572058
1629795359400,-0.38356799999999996,-0.725046,-0.573034
1629795359410,-0.38369,-0.725046,-0.571997
1629795359420,-0.383934,-0.724436,-0.571753
1629795359429,-0.38387299999999996,-0.723826,-0.571326
1629795359439,-0.384361,-0.724314,-0.570106
1629795359448,-0.38308,-0.724924,-0.5693739999999999
1629795359458,-0.383507,-0.724375,-0.570106
1629795359468,-0.383385,-0.72468,-0.570716
1629795359477,-0.383202,-0.725717,-0.569862
1629795359487,-0.382836,-0.725168,-0.57096
1629795359496,-0.38234799999999997,-0.726632,-0.5699839999999999
1629795359506,-0.382714,-0.725778,-0.5699839999999999
1629795359516,-0.383324,-0.725778,-0.570411
1629795359525,-0.382836,-0.725961,-0.570838
1629795359535,-0.38326299999999996,-0.726083,-0.5712039999999999
1629795359544,-0.383019,-0.726815,-0.5705939999999999
1629795359554,-0.383202,-0.726205,-0.57157
1629795359564,-0.382531,-0.7259,-0.5715089999999999
1629795359573,-0.382531,-0.725473,-0.56913
1629795359583,-0.382287,-0.725656,-0.569801
1629795359592,-0.382287,-0.726388,-0.568642
1629795359602,-0.382104,-0.725717,-0.56791
1629795359612,-0.38265299999999997,-0.725656,-0.5673
1629795359621,-0.382592,-0.726083,-0.5678489999999999
1629795359631,-0.382226,-0.726388,-0.568276
1629795359640,-0.38265299999999997,-0.728218,-0.56852
1629795359650,-0.383446,-0.727791,-0.568886
1629795359660,-0.383629,-0.726632,-0.569252
1629795359669,-0.3843,-0.726693,-0.568703
1629795359679,-0.382897,-0.728096,-0.5678489999999999
1629795359688,-0.383141,-0.727608,-0.5673
1629795359698,-0.38295799999999997,-0.726327,-0.56669
1629795359708,-0.382897,-0.726876,-0.5678489999999999
1629795359717,-0.382897,-0.728096,-0.56913
1629795359727,-0.382836,-0.726693,-0.5699839999999999
1629795359736,-0.383019,-0.726083,-0.5699839999999999
1629795359746,-0.383324,-0.725412,-0.571753
1629795359756,-0.384788,-0.726083,-0.571448
1629795359765,-0.3843,-0.725534,-0.571753
1629795359775,-0.383324,-0.724497,-0.570228
1629795359784,-0.384361,-0.724497,-0.569313
1629795359794,-0.384117,-0.723216,-0.5684589999999999
1629795359804,-0.38491,-0.721935,-0.56608
1629795359813,-0.385337,-0.722362,-0.566751
1629795359823,-0.384361,-0.725656,-0.5678489999999999
1629795359832,-0.384422,-0.725595,-0.568093
1629795359842,-0.383141,-0.7296819999999999,-0.570777
1629795359852,-0.383202,-0.731756,-0.572851
1629795359861,-0.383934,-0.731634,-0.571448
1629795359871,-0.385276,-0.7305969999999999,-0.569008
1629795359880,-0.385337,-0.7281569999999999,-0.566812
1629795359890,-0.385093,-0.727059,-0.565653
1629795359900,-0.384666,-0.726327,-0.565348
1629795359909,-0.384239,-0.726449,-0.565958
1629795359919,-0.383751,-0.725168,-0.564982
1629795359928,-0.383324,-0.725473,-0.5669339999999999
1629795359938,-0.38234799999999997,-0.726754,-0.568825
1629795359948,-0.382104,-0.7269369999999999,-0.5693739999999999
1629795359957,-0.38204299999999997,-0.726083,-0.569862
1629795359967,-0.382714,-0.726083,-0.56852
1629795359976,-0.383202,-0.725107,-0.565531
1629795359986,-0.38387299999999996,-0.72468,-0.56486
1629795359996,-0.38356799999999996,-0.725839,-0.5641889999999999
1629795360005,-0.384544,-0.727608,-0.5641889999999999
1629795360015,-0.383934,-0.73017,-0.564616
1629795360024,-0.38387299999999996,-0.7327319999999999,-0.56547
1629795360034,-0.383324,-0.733159,-0.564921
1629795360044,-0.383385,-0.734379,-0.566202
1629795360053,-0.38247,-0.735904,-0.5666289999999999
1629795360063,-0.38112799999999997,-0.73505,-0.56608
1629795360072,-0.381372,-0.73383,-0.563823
1629795360082,-0.38021299999999997,-0.73566,-0.562603
1629795360092,-0.379664,-0.734623,-0.559736
1629795360101,-0.379237,-0.7333419999999999,-0.556137
1629795360111,-0.378444,-0.734013,-0.55876
1629795360120,-0.377285,-0.735538,-0.56059
1629795360130,-0.376736,-0.737856,-0.560346
1629795360140,-0.37624799999999997,-0.73871,-0.561871
1629795360149,-0.376431,-0.7376119999999999,-0.560346
1629795360159,-0.37685799999999997,-0.73688,-0.561078
1629795360168,-0.376309,-0.736941,-0.560468
1629795360178,-0.37655299999999997,-0.733464,-0.559126
1629795360188,-0.377834,-0.732,-0.559797
1629795360197,-0.377041,-0.732549,-0.559187
1629795360207,-0.37807799999999997,-0.7339519999999999,-0.559187
1629795360216,-0.37716299999999997,-0.7366969999999999,-0.559187
1629795360226,-0.377041,-0.739991,-0.55754
1629795360236,-0.375882,-0.74298,-0.555771
1629795360245,-0.375577,-0.744017,-0.554734
1629795360255,-0.375699,-0.746945,-0.553453
1629795360264,-0.376004,-0.747799,-0.552538
1629795360274,-0.374784,-0.748226,-0.552294
1629795360284,-0.375394,-0.747372,-0.549061
1629795360293,-0.375882,-0.74847,-0.547536
1629795360303,-0.37533299999999997,-0.749324,-0.545706
1629795360312,-0.375028,-0.750605,-0.5441199999999999
1629795360322,-0.374174,-0.752069,-0.542046
1629795360332,-0.374174,-0.75335,-0.542168
1629795360341,-0.372832,-0.754509,-0.541314
1629795360351,-0.373015,-0.7564,-0.540338
1629795360360,-0.371734,-0.7573759999999999,-0.538508
1629795360370,-0.371429,-0.757437,-0.536983
1629795360380,-0.370209,-0.757864,-0.535519
1629795360389,-0.369599,-0.7579859999999999,-0.536007
1629795360399,-0.369599,-0.758535,-0.53436
1629795360408,-0.368623,-0.7585959999999999,-0.533689
1629795360418,-0.368745,-0.75884,-0.533994
1629795360428,-0.36880599999999997,-0.7579859999999999,-0.532896
1629795360437,-0.36941599999999997,-0.758718,-0.532713
1629795360447,-0.36783,-0.75884,-0.533018
1629795360456,-0.368013,-0.760853,-0.532164
1629795360466,-0.36661,-0.762195,-0.531554
1629795360476,-0.366549,-0.762744,-0.532347
1629795360485,-0.366854,-0.762439,-0.531066
1629795360495,-0.36697599999999997,-0.763415,-0.528382
1629795360504,-0.367159,-0.762927,-0.526125
1629795360514,-0.36661,-0.763598,-0.525576
1629795360524,-0.365329,-0.765733,-0.52643
1629795360533,-0.364963,-0.767014,-0.526369
1629795360543,-0.365085,-0.76921,-0.526918
1629795360552,-0.365634,-0.770003,-0.526796
1629795360562,-0.366427,-0.769698,-0.526613
1629795360572,-0.36575599999999997,-0.77104,-0.526796
1629795360581,-0.365268,-0.771406,-0.526735
1629795360591,-0.364963,-0.770064,-0.526369
1629795360600,-0.36514599999999997,-0.768905,-0.523929
1629795360610,-0.365634,-0.769088,-0.524173
1629795360620,-0.366,-0.766892,-0.522099
1629795360629,-0.366427,-0.768905,-0.521123
1629795360639,-0.36514599999999997,-0.76921,-0.520574
1629795360648,-0.364719,-0.768539,-0.51972
1629795360658,-0.36484099999999997,-0.770735,-0.523258
1629795360668,-0.363804,-0.773846,-0.526491
1629795360677,-0.363682,-0.775554,-0.526918
1629795360687,-0.364658,-0.774822,-0.524966
1629795360696,-0.36453599999999997,-0.775554,-0.524112
1629795360706,-0.36295,-0.775249,-0.521367
1629795360716,-0.363438,-0.772748,-0.520879
1629795360725,-0.36356,-0.771406,-0.518622
1629795360735,-0.363255,-0.771833,-0.518927
1629795360744,-0.363011,-0.772138,-0.518744
1629795360754,-0.361913,-0.772992,-0.5182559999999999
1629795360764,-0.361425,-0.772687,-0.519537
1629795360773,-0.361669,-0.773053,-0.520452
1629795360783,-0.360998,-0.774273,-0.519842
1629795360792,-0.36051,-0.772565,-0.518622
1629795360802,-0.36173,-0.772748,-0.5176459999999999
1629795360812,-0.361547,-0.774334,-0.516548
1629795360821,-0.361486,-0.773297,-0.51606
1629795360831,-0.362828,-0.774212,-0.5173409999999999
1629795360840,-0.363133,-0.774456,-0.517707
1629795360850,-0.364109,-0.775554,-0.517402
1629795360860,-0.363072,-0.776957,-0.518622
1629795360869,-0.363438,-0.778604,-0.518805
1629795360879,-0.363865,-0.775737,-0.51728
1629795360888,-0.364719,-0.775127,-0.516975
1629795360898,-0.364475,-0.776469,-0.517585
1629795360908,-0.364048,-0.775798,-0.51606
1629795360917,-0.364658,-0.773175,-0.513254
1629795360927,-0.363438,-0.773724,-0.514108
1629795360936,-0.36173,-0.777262,-0.5152059999999999
1629795360946,-0.360571,-0.779702,-0.517097
1629795360956,-0.361974,-0.778787,-0.51667
1629795360965,-0.362706,-0.777323,-0.514657
1629795360975,-0.362035,-0.776347,-0.513132
1629795360984,-0.362828,-0.7762249999999999,-0.512278
1629795360994,-0.362706,-0.775737,-0.511729
1629795361004,-0.361059,-0.778116,-0.5124
1629795361013,-0.361059,-0.778177,-0.512095
1629795361023,-0.361974,-0.776896,-0.510814
1629795361032,-0.361242,-0.777872,-0.510814
1629795361042,-0.360754,-0.7792749999999999,-0.5124
1629795361052,-0.359717,-0.7801899999999999,-0.5127659999999999
1629795361061,-0.359412,-0.779214,-0.513254
1629795361071,-0.360205,-0.779458,-0.5133759999999999
1629795361080,-0.360083,-0.7783599999999999,-0.513925
1629795361090,-0.360205,-0.777262,-0.512949
1629795361100,-0.36173,-0.776591,-0.513132
1629795361109,-0.361486,-0.7762249999999999,-0.51484
1629795361119,-0.360266,-0.777323,-0.515267
1629795361128,-0.360998,-0.778726,-0.515694
1629795361138,-0.361852,-0.778543,-0.51545
1629795361148,-0.360998,-0.778909,-0.515267
1629795361157,-0.360876,-0.7783599999999999,-0.51484
1629795361167,-0.360632,-0.778421,-0.514535
1629795361176,-0.36051,-0.778177,-0.513742
1629795361186,-0.360205,-0.777384,-0.5145959999999999
1629795361196,-0.360571,-0.777079,-0.516304
1629795361205,-0.360022,-0.776164,-0.516182
1629795361215,-0.360205,-0.775676,-0.516914
1629795361224,-0.360693,-0.7759199999999999,-0.517524
1629795361234,-0.360205,-0.774639,-0.516304
1629795361244,-0.360205,-0.775432,-0.515389
1629795361253,-0.360632,-0.776286,-0.514535
1629795361263,-0.361059,-0.776896,-0.514474
1629795361272,-0.36112,-0.777628,-0.514352
1629795361282,-0.360876,-0.7792749999999999,-0.5149009999999999
1629795361292,-0.360998,-0.7786649999999999,-0.514535
1629795361301,-0.361059,-0.778909,-0.514474
1629795361311,-0.363011,-0.778543,-0.514169
1629795361320,-0.361242,-0.777018,-0.512888
1629795361330,-0.361059,-0.7762249999999999,-0.514352
1629795361340,-0.360815,-0.776713,-0.5152059999999999
1629795361349,-0.360449,-0.776957,-0.516914
1629795361359,-0.360388,-0.776103,-0.517463
1629795361368,-0.361303,-0.775493,-0.517585
1629795361378,-0.361913,-0.774517,-0.5173409999999999
1629795361388,-0.362584,-0.775371,-0.517524
1629795361397,-0.361791,-0.776347,-0.518683
1629795361407,-0.35953399999999996,-0.776164,-0.5170359999999999
1629795361416,-0.361669,-0.775798,-0.517768
1629795361426,-0.36234,-0.775676,-0.515877
1629795361436,-0.362096,-0.773419,-0.513742
1629795361445,-0.363255,-0.774639,-0.514169
1629795361455,-0.361852,-0.775127,-0.5139859999999999
1629795361464,-0.36295,-0.776652,-0.514657
1629795361474,-0.361303,-0.779214,-0.516975
1629795361484,-0.361059,-0.781837,-0.518378
1629795361493,-0.362096,-0.7807999999999999,-0.518927
1629795361503,-0.36295,-0.7798849999999999,-0.516792
1629795361512,-0.36234,-0.777994,-0.515267
1629795361522,-0.362157,-0.7756149999999999,-0.514474
1629795361532,-0.361608,-0.774822,-0.513742
1629795361541,-0.362584,-0.774578,-0.514535
1629795361551,-0.361608,-0.775798,-0.5145959999999999
1629795361560,-0.360937,-0.775432,-0.516182
1629795361570,-0.361059,-0.775676,-0.51667
1629795361580,-0.36051,-0.776103,-0.516365
1629795361589,-0.360205,-0.775737,-0.516243
1629795361599,-0.361791,-0.7756149999999999,-0.5145959999999999
1629795361608,-0.362279,-0.7753099999999999,-0.5145959999999999
1629795361618,-0.362889,-0.774029,-0.515084
1629795361628,-0.362889,-0.773724,-0.513864
1629795361637,-0.362279,-0.774151,-0.5145959999999999
1629795361647,-0.362889,-0.775249,-0.5176459999999999
1629795361656,-0.36234,-0.776957,-0.5176459999999999
1629795361666,-0.36234,-0.778116,-0.517463
1629795361676,-0.362157,-0.779824,-0.5182559999999999
1629795361685,-0.361425,-0.7795799999999999,-0.517829
1629795361695,-0.361669,-0.778421,-0.5170359999999999
1629795361704,-0.362584,-0.776774,-0.5158159999999999
1629795361714,-0.363072,-0.776408,-0.515755
1629795361724,-0.36234,-0.775493,-0.514779
1629795361733,-0.362096,-0.772138,-0.5145959999999999
1629795361743,-0.360998,-0.774578,-0.5176459999999999
1629795361752,-0.360266,-0.777506,-0.52094
1629795361762,-0.35892399999999997,-0.778787,-0.52277
1629795361772,-0.360388,-0.776774,-0.5219159999999999
1629795361781,-0.361669,-0.773114,-0.518439
1629795361791,-0.361608,-0.771955,-0.515877
1629795361800,-0.360449,-0.77165,-0.515267
1629795361810,-0.3599,-0.772443,-0.515267
1629795361820,-0.35929,-0.773419,-0.516182
1629795361829,-0.359595,-0.774822,-0.516304
1629795361839,-0.358131,-0.777323,-0.5173409999999999
1629795361848,-0.358375,-0.778482,-0.517219
1629795361858,-0.357826,-0.778482,-0.516792
1629795361868,-0.357033,-0.7789699999999999,-0.51606
1629795361877,-0.35770399999999997,-0.779214,-0.514962
1629795361887,-0.35892399999999997,-0.778482,-0.5133759999999999
1629795361896,-0.35831399999999997,-0.777933,-0.513559
1629795361906,-0.35800899999999997,-0.777628,-0.514047
1629795361916,-0.357582,-0.777628,-0.515084
1629795361925,-0.35868,-0.777262,-0.515694
1629795361935,-0.359656,-0.7774449999999999,-0.516975
1629795361944,-0.359412,-0.777079,-0.516853
1629795361954,-0.35922899999999997,-0.776896,-0.517707
1629795361964,-0.359839,-0.776286,-0.518805
1629795361973,-0.360754,-0.775798,-0.519598
1629795361983,-0.360815,-0.774944,-0.519354
1629795361992,-0.361303,-0.774029,-0.519415
1629795362002,-0.360876,-0.775432,-0.5179509999999999
1629795362012,-0.360937,-0.775981,-0.5188659999999999
1629795362021,-0.360815,-0.776713,-0.517219
1629795362031,-0.360693,-0.7765299999999999,-0.5179509999999999
1629795362040,-0.36112,-0.776896,-0.516609
1629795362050,-0.361852,-0.777628,-0.516609
1629795362060,-0.361852,-0.7768349999999999,-0.5158159999999999
1629795362069,-0.361242,-0.776042,-0.513925
1629795362079,-0.361608,-0.776103,-0.5136809999999999
1629795362088,-0.362218,-0.777079,-0.5145959999999999
1629795362098,-0.362157,-0.776286,-0.5152059999999999
1629795362108,-0.362767,-0.775676,-0.51606
1629795362117,-0.363133,-0.7765299999999999,-0.5158159999999999
1629795362127,-0.36295,-0.7750049999999999,-0.51484
1629795362136,-0.363072,-0.775371,-0.514779
1629795362146,-0.363072,-0.775981,-0.515328
1629795362156,-0.36362099999999997,-0.774822,-0.516182
1629795362165,-0.364048,-0.774761,-0.516853
1629795362175,-0.363804,-0.774883,-0.518439
1629795362184,-0.36417,-0.774029,-0.51789
1629795362194,-0.364963,-0.772565,-0.518439
1629795362204,-0.365207,-0.771711,-0.518805
1629795362213,-0.365695,-0.773114,-0.519964
1629795362223,-0.36539,-0.773907,-0.520025
1629795362232,-0.365024,-0.772809,-0.5185609999999999
1629795362242,-0.365878,-0.77226,-0.518073
1629795362252,-0.366488,-0.770003,-0.516853
1629795362261,-0.368074,-0.768173,-0.518012
1629795362271,-0.36661,-0.770674,-0.518317
1629795362280,-0.366549,-0.772931,-0.5185609999999999
1629795362290,-0.36697599999999997,-0.775859,-0.519842
1629795362300,-0.364109,-0.779824,-0.5222209999999999
1629795362309,-0.363804,-0.780434,-0.522282
1629795362319,-0.365207,-0.779153,-0.520208
1629795362328,-0.365634,-0.777567,-0.517097
1629795362338,-0.36606099999999997,-0.77348,-0.515328
1629795362348,-0.366,-0.773297,-0.5145959999999999
1629795362357,-0.366,-0.773175,-0.514779
1629795362367,-0.364902,-0.772992,-0.5167309999999999
1629795362376,-0.363499,-0.772016,-0.517829
1629795362386,-0.362279,-0.77226,-0.519537
1629795362396,-0.362584,-0.772504,-0.519293
1629795362405,-0.361547,-0.771406,-0.5185609999999999
1629795362415,-0.362279,-0.771345,-0.5188659999999999
1629795362424,-0.362218,-0.77226,-0.518073
1629795362434,-0.363133,-0.771284,-0.518378
1629795362444,-0.364353,-0.771284,-0.516487
1629795362453,-0.36392599999999997,-0.773053,-0.5167309999999999
1629795362463,-0.362828,-0.773785,-0.519293
1629795362472,-0.363133,-0.776774,-0.519049
1629795362482,-0.36392599999999997,-0.777567,-0.5200859999999999
1629795362492,-0.363011,-0.777506,-0.519842
1629795362501,-0.362645,-0.777262,-0.519659
1629795362511,-0.36173,-0.7759199999999999,-0.520574
1629795362520,-0.362645,-0.77287,-0.5185
1629795362530,-0.36362099999999997,-0.772565,-0.516975
1629795362540,-0.36392599999999997,-0.77226,-0.516304
1629795362549,-0.363682,-0.770125,-0.515572
1629795362559,-0.362218,-0.770369,-0.518744
1629795362568,-0.361059,-0.773724,-0.5219159999999999
1629795362578,-0.360815,-0.776286,-0.524783
1629795362588,-0.361608,-0.775859,-0.524905
1629795362597,-0.363072,-0.773114,-0.522953
1629795362607,-0.363377,-0.771833,-0.51911
1629795362616,-0.364658,-0.768783,-0.5185609999999999
1629795362626,-0.36362099999999997,-0.769454,-0.518988
1629795362636,-0.362645,-0.770369,-0.521794
1629795362645,-0.362523,-0.770796,-0.523868
1629795362655,-0.363316,-0.770308,-0.525271
1629795362664,-0.363987,-0.768661,-0.525698
1629795362674,-0.364475,-0.770979,-0.525332
1629795362684,-0.365573,-0.770369,-0.52521
1629795362693,-0.36539,-0.770003,-0.526064
1629795362703,-0.364902,-0.769759,-0.525332
1629795362712,-0.364963,-0.76921,-0.524173
1629795362722,-0.36575599999999997,-0.768417,-0.524722
1629795362732,-0.36539,-0.768661,-0.525332
1629795362741,-0.365573,-0.768844,-0.5246
1629795362751,-0.365634,-0.769637,-0.526369
1629795362760,-0.364658,-0.769759,-0.525088
1629795362770,-0.365329,-0.768905,-0.524661
1629795362780,-0.366,-0.768478,-0.525698
1629795362789,-0.365207,-0.7686,-0.526857
1629795362799,-0.364353,-0.767563,-0.526857
1629795362808,-0.364963,-0.7671359999999999,-0.527223
1629795362818,-0.364658,-0.766892,-0.528687
1629795362828,-0.364902,-0.7662209999999999,-0.528626
1629795362837,-0.364658,-0.7662209999999999,-0.528687
1629795362847,-0.36484099999999997,-0.765794,-0.529358
1629795362856,-0.363987,-0.765367,-0.529236
1629795362866,-0.36453599999999997,-0.76433,-0.52948
1629795362876,-0.36539,-0.7653059999999999,-0.529175
1629795362885,-0.364719,-0.7646959999999999,-0.529236
1629795362895,-0.365634,-0.7646959999999999,-0.529907
1629795362904,-0.364414,-0.765489,-0.531737
1629795362914,-0.364475,-0.7653059999999999,-0.532042
1629795362924,-0.364475,-0.7631709999999999,-0.531798
1629795362933,-0.36484099999999997,-0.763598,-0.532164
1629795362943,-0.364414,-0.7640859999999999,-0.531432
1629795362952,-0.364963,-0.763842,-0.530944
1629795362962,-0.364658,-0.76372,-0.530334
1629795362972,-0.363682,-0.763659,-0.530639
1629795362981,-0.36478,-0.76494,-0.53131
1629795362991,-0.365695,-0.764452,-0.531066
1629795363000,-0.36453599999999997,-0.763842,-0.531554
1629795363010,-0.365085,-0.762744,-0.533262
1629795363020,-0.364902,-0.76128,-0.534482
1629795363029,-0.364597,-0.761768,-0.536434
1629795363039,-0.363804,-0.7601209999999999,-0.5364949999999999
1629795363048,-0.36539,-0.759145,-0.537044
1629795363058,-0.366122,-0.756217,-0.536312
1629795363068,-0.366915,-0.7531059999999999,-0.535885
1629795363077,-0.36667099999999997,-0.7521909999999999,-0.536922
1629795363087,-0.36606099999999997,-0.753594,-0.539301
1629795363096,-0.36722,-0.756644,-0.542046
1629795363106,-0.365512,-0.757193,-0.544669
1629795363116,-0.36539,-0.75884,-0.546804
1629795363125,-0.366183,-0.7585959999999999,-0.546377
1629795363135,-0.366732,-0.7567659999999999,-0.543693
1629795363144,-0.367708,-0.7537159999999999,-0.542534
1629795363154,-0.368989,-0.7524959999999999,-0.541192
1629795363164,-0.369355,-0.75213,-0.5413749999999999
1629795363173,-0.368562,-0.7506659999999999,-0.542656
1629795363183,-0.368684,-0.75213,-0.543632
1629795363192,-0.367708,-0.752679,-0.546682
1629795363202,-0.36728099999999997,-0.751764,-0.547231
1629795363212,-0.36783,-0.751032,-0.5483899999999999
1629795363221,-0.36844,-0.750056,-0.54961
1629795363231,-0.36905,-0.749446,-0.550464
1629795363240,-0.369904,-0.747616,-0.551501
1629795363250,-0.37027,-0.744871,-0.551562
1629795363260,-0.371612,-0.744444,-0.552538
1629795363269,-0.37094099999999997,-0.742736,-0.554368
1629795363279,-0.371795,-0.742004,-0.555222
1629795363288,-0.372527,-0.741333,-0.556076
1629795363298,-0.373503,-0.741516,-0.558394
1629795363308,-0.372649,-0.7431019999999999,-0.56059
1629795363317,-0.371917,-0.742858,-0.561383
1629795363327,-0.372954,-0.740723,-0.56181
1629795363336,-0.372649,-0.739686,-0.561261
1629795363346,-0.373808,-0.739076,-0.559675
1629795363356,-0.374479,-0.737368,-0.559248
1629795363365,-0.375211,-0.737673,-0.558638
1629795363375,-0.372954,-0.738466,-0.560651
1629795363384,-0.37332,-0.740418,-0.562237
1629795363394,-0.372771,-0.739686,-0.564067
1629795363404,-0.37271,-0.7379169999999999,-0.564738
1629795363413,-0.372588,-0.735721,-0.562481
1629795363423,-0.373808,-0.7321219999999999,-0.5602239999999999
1629795363432,-0.375089,-0.7315119999999999,-0.560956
1629795363442,-0.37515,-0.730414,-0.563152
1629795363452,-0.374906,-0.73017,-0.564555
1629795363461,-0.374845,-0.730719,-0.567666
1629795363471,-0.374296,-0.73261,-0.568337
1629795363480,-0.374479,-0.731878,-0.568276
1629795363490,-0.375455,-0.730658,-0.5678489999999999
1629795363500,-0.37533299999999997,-0.731085,-0.567666
1629795363509,-0.37533299999999997,-0.731024,-0.567056
1629795363519,-0.376187,-0.7287669999999999,-0.566568
1629795363528,-0.377102,-0.728218,-0.568337
1629795363538,-0.37594299999999997,-0.7287669999999999,-0.5681539999999999
1629795363548,-0.376736,-0.72651,-0.570838
1629795363557,-0.377651,-0.7259,-0.572973
1629795363567,-0.37838299999999997,-0.726144,-0.573217
1629795363576,-0.378871,-0.725168,-0.572912
1629795363586,-0.3782,-0.72468,-0.574376
1629795363596,-0.378932,-0.723033,-0.573644
1629795363605,-0.379359,-0.72102,-0.574986
1629795363615,-0.38003,-0.72102,-0.576084
1629795363624,-0.379725,-0.720105,-0.57706
1629795363634,-0.382897,-0.719495,-0.58011
1629795363644,-0.382531,-0.718397,-0.580659
