timestamp,ax,ay,az
1629795669180,0.168482,-0.9825269999999999,-0.015738
1629795669189,0.168421,-0.98393,-0.019154
1629795669199,0.17208099999999998,-0.984723,-0.010492
1629795669208,0.173362,-0.986736,0.005307
1629795669218,0.168604,-0.985333,0.01525
1629795669228,0.158112,-0.9810019999999999,0.009943
1629795669237,0.151402,-0.9813069999999999,0.004758
1629795669247,0.149206,-0.983625,0.002013
1629795669256,0.15329299999999998,-0.983503,0.00244
1629795669266,0.157685,-0.9813069999999999,0.00732
1629795669276,0.163236,-0.975329,0.010735999999999999
1629795669285,0.16439499999999999,-0.967765,0.010003999999999999
1629795669295,0.162382,-0.960079,0.002379
1629795669304,0.159332,-0.961482,-0.006405
1629795669314,0.159515,-0.970266,-0.006954
1629795669324,0.156587,-0.978135,-0.003965
1629795669333,0.155184,-0.979843,0.00042699999999999997
1629795669343,0.152561,-0.977769,0.0042699999999999995
1629795669352,0.151463,-0.973438,0.008723
1629795669362,0.152134,-0.972279,0.013115
1629795669372,0.15359799999999998,-0.973865,0.011467999999999999
1629795669381,0.153964,-0.976549,0.010187
1629795669391,0.152744,-0.9825269999999999,0.010492
1629795669400,0.152927,-0.985943,0.003538
1629795669410,0.155977,-0.987651,-0.004758
1629795669420,0.159576,-0.990762,-0.005673
1629795669429,0.163236,-0.99003,-0.0060999999999999995
1629795669439,0.159271,-0.979965,-0.004148
1629795669448,0.15420799999999998,-0.9681919999999999,0.0008539999999999999
1629795669458,0.154574,-0.965386,0.012017
1629795669468,0.151036,-0.967094,0.014029999999999999
1629795340008,-0.003965,-0.752923,0.639097
1629795340018,-0.0034159999999999998,-0.752679,0.6405
1629795340027,-0.0050019999999999995,-0.750605,0.64233
1629795340037,-0.005978,-0.74969,0.64294
1629795340047,-0.006344,-0.748592,0.643428
1629795340056,-0.006405,-0.748714,0.64416
1629795340066,-0.005246,-0.749873,0.644709
1629795340075,-0.0048189999999999995,-0.747616,0.644282
1629795340085,-0.004148,-0.749385,0.645014
1629795340095,-0.002623,-0.750239,0.64538
1629795340104,-0.00244,-0.748897,0.642574
1629795340114,-0.0026839999999999998,-0.748592,0.6417809999999999
1629795340123,-0.004331,-0.746701,0.6405
1629795340133,-0.0044529999999999995,-0.745725,0.639524
1629795340143,-0.0028669999999999998,-0.746274,0.640378
1629795340152,-0.00122,-0.747616,0.6426959999999999
1629795340162,0.000244,-0.749812,0.644648
1629795340171,0.000793,-0.751764,0.646295
1629795340181,6.1e-05,-0.752069,0.645197
1629795340191,-0.00122,-0.749934,0.64233
1629795340200,-0.002013,-0.74786,0.63806
1629795340210,-0.00183,-0.748592,0.6359859999999999
1629795340219,0.000122,-0.750849,0.634888
1629795340229,0.001403,-0.753533,0.635254
1629795340239,0.0018909999999999999,-0.752313,0.637877
1629795340248,0.0011589999999999999,-0.750178,0.6402559999999999
1629795340258,-0.0006709999999999999,-0.747128,0.6433059999999999
1629795340267,-0.002379,-0.74664,0.646844
1629795340277,-0.00366,-0.746091,0.648613
1629795340287,-0.003843,-0.747616,0.648186
1629795340296,-0.002806,-0.749019,0.647698
1629795340306,-0.001952,-0.750422,0.646356
1629795340315,-0.000976,-0.7512759999999999,0.6451359999999999
1629795340325,-6.1e-05,-0.751398,0.644282
1629795340335,0.000183,-0.751398,0.642757
1629795340344,-0.000976,-0.748531,0.6405
1629795340354,-0.0011589999999999999,-0.747372,0.640317
1629795340363,-0.0015249999999999999,-0.74664,0.640744
1629795340373,-0.000915,-0.747738,0.642818
1629795340383,-6.1e-05,-0.748775,0.646844
1629795340392,-0.000122,-0.749873,0.646295
1629795340402,-0.0015249999999999999,-0.749873,0.643794
1629795340411,-0.0018909999999999999,-0.750178,0.642513
1629795340421,-0.00244,-0.750239,0.641598
1629795340431,-0.0015249999999999999,-0.75091,0.643062
1629795340440,-0.00042699999999999997,-0.750788,0.644648
1629795340450,0.000488,-0.749446,0.6445259999999999
1629795340459,-0.000244,-0.748104,0.644648
1629795340469,-0.000183,-0.748226,0.646112
1629795340479,-0.001464,-0.747433,0.64538
1629795340488,-0.0018909999999999999,-0.747616,0.645319
1629795340498,-0.0013419999999999999,-0.747067,0.6442209999999999
1629795340507,-0.001098,-0.748653,0.64416
1629795340517,0.000549,-0.748592,0.64416
1629795340527,0.00061,-0.747006,0.64233
1629795340536,0.0013419999999999999,-0.74725,0.641842
1629795340546,0.0021349999999999997,-0.745908,0.6393409999999999
1629795340555,0.001952,-0.745054,0.6402559999999999
1629795340565,0.001952,-0.745847,0.640805
1629795340575,0.0040869999999999995,-0.746518,0.641354
1629795340584,0.0034159999999999998,-0.747921,0.63989
1629795340594,0.0034159999999999998,-0.748836,0.640622
1629795340603,0.0060999999999999995,-0.751703,0.64294
1629795340613,0.0068319999999999995,-0.752313,0.642208
1629795340623,0.0070149999999999995,-0.752923,0.642452
1629795340632,0.006893,-0.7540209999999999,0.643855
1629795340642,0.007259,-0.7540209999999999,0.6436109999999999
1629795340651,0.006405,-0.751947,0.641659
1629795340661,0.0048189999999999995,-0.749873,0.6405
1629795340671,0.004026,-0.747982,0.640683
1629795340680,0.004758,-0.748653,0.642757
1629795340690,0.006222,-0.747799,0.644343
1629795340699,0.006588,-0.748409,0.644953
1629795340709,0.006954,-0.746823,0.645624
1629795340719,0.006954,-0.745969,0.644038
1629795340728,0.0059169999999999995,-0.745359,0.642025
1629795340738,0.006588,-0.745847,0.6430009999999999
1629795340747,0.0071979999999999995,-0.746884,0.642452
1629795340757,0.008539999999999999,-0.748775,0.642757
1629795340767,0.009271999999999999,-0.749873,0.642635
1629795340776,0.008905999999999999,-0.750056,0.641842
1629795340786,0.009943,-0.750727,0.641598
1629795340795,0.010492,-0.750788,0.6399509999999999
1629795340805,0.009516,-0.749873,0.639158
1629795340815,0.009943,-0.749934,0.638914
1629795340824,0.009882,-0.751642,0.639219
1629795340834,0.010126,-0.750788,0.640378
1629795340843,0.010248,-0.750788,0.640805
1629795340853,0.00915,-0.751093,0.639463
1629795340863,0.008601,-0.751459,0.639829
1629795340872,0.008784,-0.750422,0.638487
1629795340882,0.009333,-0.751093,0.6393409999999999
1629795340891,0.010797,-0.752557,0.6420859999999999
1629795340901,0.010187,-0.751032,0.6426959999999999
1629795340911,0.009333,-0.749995,0.643672
1629795340920,0.009333,-0.74908,0.643062
1629795340930,0.009394,-0.749446,0.643428
1629795340939,0.007869,-0.748958,0.642025
1629795340949,0.006039,-0.747067,0.6390359999999999
1629795340959,0.00549,-0.746884,0.639463
1629795340968,0.0075639999999999995,-0.750056,0.640683
1629795340978,0.00976,-0.751459,0.6420859999999999
1629795340987,0.011101999999999999,-0.752679,0.6436109999999999
1629795340997,0.01098,-0.752618,0.645075
1629795341007,0.010126,-0.752313,0.642879
1629795341016,0.008173999999999999,-0.7524959999999999,0.640622
1629795341026,0.006344,-0.7512759999999999,0.638182
1629795341035,0.0059169999999999995,-0.751154,0.637328
1629795341045,0.0055509999999999995,-0.752252,0.637755
1629795341055,0.006405,-0.752862,0.63867
1629795341064,0.007808,-0.75396,0.639402
1629795341074,0.007625,-0.754082,0.640744
1629795341083,0.007808,-0.753838,0.6405
1629795341093,0.007686,-0.75274,0.640683
1629795341103,0.0062829999999999995,-0.751154,0.639463
1629795341112,0.00488,-0.749751,0.638304
1629795341122,0.00488,-0.750117,0.640317
1629795341131,0.0048189999999999995,-0.750849,0.6417809999999999
1629795341141,0.004148,-0.7506659999999999,0.643123
1629795341151,0.003538,-0.751398,0.642574
1629795341160,0.004514,-0.7515809999999999,0.642025
1629795341170,0.0046359999999999995,-0.751215,0.641232
1629795341179,0.007503,-0.7531059999999999,0.6442209999999999
1629795341189,0.008479,-0.75396,0.645502
1629795341199,0.009028,-0.752008,0.644648
1629795341208,0.0068319999999999995,-0.749934,0.641903
1629795341218,0.005124,-0.74725,0.6384259999999999
1629795341227,0.00488,-0.747067,0.637755
1629795341237,0.0040869999999999995,-0.749019,0.63806
1629795341247,0.006771,-0.749995,0.6396459999999999
1629795341256,0.009333,-0.752069,0.641232
1629795341266,0.011956,-0.754204,0.643062
1629795341275,0.012688,-0.75335,0.64172
1629795341285,0.010735999999999999,-0.752252,0.642025
1629795341295,0.009637999999999999,-0.750544,0.640073
1629795341304,0.010248,-0.749934,0.638853
1629795341314,0.010065,-0.751154,0.638365
1629795341323,0.011163,-0.750544,0.638243
1629795341333,0.011895,-0.751642,0.638548
1629795341343,0.011712,-0.752008,0.639158
1629795341352,0.012505,-0.75213,0.6402559999999999
1629795341362,0.013054,-0.75396,0.641049
1629795341371,0.012993,-0.7531059999999999,0.64172
1629795341381,0.014152,-0.75213,0.641659
1629795341391,0.014213,-0.752069,0.641842
1629795341400,0.014091,-0.75152,0.640988
1629795341410,0.014457,-0.751154,0.641049
1629795341419,0.013542,-0.749446,0.640073
1629795341429,0.011712,-0.749385,0.640073
1629795341439,0.01281,-0.748653,0.6414759999999999
1629795341448,0.012931999999999999,-0.748226,0.641659
1629795341458,0.013908,-0.748043,0.641598
1629795341467,0.014029999999999999,-0.747311,0.642147
1629795341477,0.013663999999999999,-0.746274,0.641842
1629795341487,0.013237,-0.745847,0.641537
1629795341496,0.014761999999999999,-0.746823,0.642879
1629795341506,0.015067,-0.748775,0.642635
1629795341515,0.015372,-0.749141,0.642574
1629795341525,0.015372,-0.749385,0.641354
1629795341535,0.015067,-0.750483,0.640683
1629795341544,0.015738,-0.750239,0.641415
1629795341554,0.016653,-0.750605,0.640805
1629795341563,0.017202,-0.748958,0.641537
1629795341573,0.017202,-0.748958,0.6414759999999999
1629795341583,0.016226,-0.74725,0.641537
1629795341592,0.015067,-0.746152,0.640134
1629795341602,0.014884,-0.747921,0.64111
1629795341611,0.016347999999999998,-0.749202,0.642818
1629795341621,0.014884,-0.749568,0.642513
1629795341631,0.014701,-0.749568,0.642452
1629795341640,0.014457,-0.751764,0.641415
1629795341650,0.013969,-0.750239,0.639158
1629795341659,0.014579,-0.751093,0.639524
1629795341669,0.016347999999999998,-0.752252,0.644282
1629795341679,0.016347999999999998,-0.7518859999999999,0.645502
1629795341688,0.017202,-0.751947,0.647149
1629795341698,0.015616,-0.750056,0.645929
1629795341707,0.014457,-0.74969,0.646478
1629795341717,0.013603,-0.748897,0.644404
1629795341727,0.011529,-0.747311,0.641049
1629795341736,0.010919,-0.747921,0.6405609999999999
1629795341746,0.012749,-0.748897,0.640012
1629795341755,0.015433,-0.750178,0.64172
1629795341765,0.015799,-0.752313,0.642635
1629795341775,0.016897,-0.752557,0.643184
1629795341784,0.017141,-0.75274,0.6414759999999999
1629795341794,0.017141,-0.752435,0.640012
1629795341803,0.01769,-0.752618,0.638975
1629795341813,0.016042999999999998,-0.753167,0.637389
1629795341823,0.015738,-0.7531059999999999,0.634583
1629795341832,0.016592,-0.75213,0.6323259999999999
1629795341842,0.017202,-0.7524959999999999,0.632875
1629795341851,0.017079999999999998,-0.752923,0.633668
1629795341861,0.017873,-0.753228,0.6335459999999999
1629795341871,0.017568,-0.754204,0.635315
1629795341880,0.017995,-0.7534109999999999,0.635254
1629795341890,0.017568,-0.753167,0.636169
1629795341899,0.016958,-0.753289,0.636962
1629795341909,0.017934,-0.752984,0.636779
1629795341919,0.016958,-0.752374,0.637328
1629795341928,0.017141,-0.753228,0.636108
1629795341938,0.018483,-0.755668,0.635925
1629795341947,0.019275999999999998,-0.756217,0.6365959999999999
1629795341957,0.021471999999999998,-0.756278,0.636962
1629795341967,0.022448,-0.7592059999999999,0.6384259999999999
1629795341976,0.021228,-0.758474,0.638548
1629795341986,0.022143,-0.757742,0.63806
1629795341995,0.020252,-0.755973,0.635254
1629795342005,0.016958,-0.753594,0.630374
1629795342015,0.016897,-0.753228,0.629459
1629795342024,0.01952,-0.754753,0.630496
1629795342034,0.022143,-0.757193,0.63074
1629795342043,0.024034,-0.760792,0.6320209999999999
1629795342053,0.027023,-0.7628659999999999,0.631899
1629795342063,0.02745,-0.7637809999999999,0.631411
1629795342072,0.02623,-0.763598,0.628483
1629795342082,0.026168999999999998,-0.763842,0.626958
1629795342091,0.025254,-0.764269,0.624701
1629795342101,0.024217,-0.762439,0.625372
1629795342111,0.024278,-0.7625609999999999,0.62586
1629795342120,0.023363,-0.762744,0.625982
1629795342130,0.022814,-0.7619509999999999,0.625799
1629795342139,0.024034,-0.762683,0.627019
1629795342149,0.025681,-0.763598,0.627385
1629795342159,0.025986,-0.764635,0.627324
1629795342168,0.02623,-0.763659,0.626348
1629795342178,0.025803,-0.762134,0.625982
1629795342187,0.025376,-0.763415,0.624823
1629795342197,0.025559,-0.762012,0.623542
1629795342207,0.023667999999999998,-0.762134,0.624091
1629795342216,0.024095,-0.761768,0.623969
1629795342226,0.023302,-0.7616459999999999,0.623969
1629795342235,0.022509,-0.761524,0.624274
1629795342245,0.023667999999999998,-0.76311,0.624457
1629795342255,0.024644,-0.76372,0.623847
1629795342264,0.024827,-0.764025,0.623542
1629795342274,0.025436999999999998,-0.7650009999999999,0.62464
1629795342283,0.025498,-0.766465,0.624579
1629795342293,0.025254,-0.767014,0.623847
1629795342303,0.024766,-0.7662209999999999,0.624091
1629795342312,0.024766,-0.765794,0.624274
1629795342322,0.024644,-0.765245,0.624762
1629795342331,0.025803,-0.7653059999999999,0.623908
1629795342341,0.02562,-0.764513,0.623725
1629795342351,0.025193,-0.76311,0.622566
1629795342360,0.024522,-0.7613409999999999,0.624091
1629795342370,0.024461,-0.760243,0.623725
1629795342379,0.023667999999999998,-0.760914,0.623664
1629795342389,0.023546,-0.762927,0.625799
1629795342399,0.024583,-0.763659,0.626348
1629795342408,0.024522,-0.765123,0.626714
1629795342418,0.023363,-0.766343,0.627141
1629795342427,0.023485,-0.764208,0.625311
1629795342437,0.023667999999999998,-0.765367,0.62586
1629795342447,0.024766,-0.76738,0.627812
1629795342456,0.025071,-0.765062,0.627019
1629795342466,0.024399999999999998,-0.76494,0.627873
1629795342475,0.023302,-0.762683,0.625921
1629795342485,0.022631,-0.761768,0.625006
1629795342495,0.021533,-0.759877,0.624091
1629795342504,0.018239,-0.7582909999999999,0.622078
1629795342514,0.016226,-0.756827,0.621224
1629795342523,0.016774999999999998,-0.7579859999999999,0.621895
1629795342533,0.01891,-0.75945,0.624213
1629795342543,0.021289,-0.761524,0.62769
1629795342552,0.021411,-0.762378,0.631411
1629795342562,0.022814,-0.763842,0.633302
1629795342571,0.022203999999999998,-0.764635,0.6329359999999999
1629795342581,0.020007999999999998,-0.763049,0.632509
1629795342591,0.018361,-0.762744,0.629398
1629795342600,0.016531,-0.762988,0.628605
1629795342610,0.016287,-0.7622559999999999,0.628178
1629795342619,0.016287,-0.76128,0.629215
1629795342629,0.01586,-0.761158,0.630862
1629795342639,0.017385,-0.759877,0.630801
1629795342648,0.016714,-0.7598159999999999,0.63318
1629795342658,0.017202,-0.75945,0.633424
1629795342667,0.016165,-0.7595109999999999,0.633668
1629795342677,0.015738,-0.759694,0.633058
1629795342687,0.014701,-0.758535,0.632204
1629795342696,0.014884,-0.758718,0.6329359999999999
1629795342706,0.015189,-0.7598159999999999,0.632692
1629795342715,0.015127999999999999,-0.759694,0.632082
1629795342725,0.015677,-0.761463,0.6317159999999999
1629795342735,0.015921,-0.760365,0.629093
1629795342744,0.017995,-0.760548,0.628849
1629795342754,0.019398,-0.761585,0.630862
1629795342763,0.020679,-0.7622559999999999,0.6329359999999999
1629795342773,0.023241,-0.761158,0.63196
1629795342783,0.021594,-0.7592059999999999,0.630313
1629795342792,0.019275999999999998,-0.7576809999999999,0.62708
1629795342802,0.017995,-0.758169,0.626409
1629795342811,0.018178,-0.7582909999999999,0.625677
1629795342821,0.019642,-0.759572,0.627019
1629795342831,0.02013,-0.761219,0.628361
1629795342840,0.021471999999999998,-0.761768,0.628727
1629795342850,0.022326,-0.762683,0.630862
1629795342859,0.022997,-0.76372,0.631045
1629795342869,0.02196,-0.762012,0.630191
1629795342879,0.021289,-0.761524,0.629398
1629795342888,0.020801,-0.760792,0.629398
1629795342898,0.020313,-0.761097,0.629886
1629795342907,0.020984,-0.760975,0.62952
1629795342917,0.020069,-0.7592059999999999,0.629459
1629795342927,0.021106,-0.760304,0.629764
1629795342936,0.020801,-0.759328,0.631289
1629795342946,0.020984,-0.758047,0.631533
1629795342955,0.021167,-0.757498,0.632448
1629795342965,0.022265,-0.757437,0.632875
1629795342975,0.022448,-0.756949,0.632692
1629795342984,0.02257,-0.755912,0.633058
1629795342994,0.021289,-0.756095,0.6326309999999999
1629795343003,0.020618,-0.755058,0.632753
1629795343013,0.022143,-0.755302,0.631594
1629795343023,0.023972999999999998,-0.756522,0.631167
1629795343032,0.025436999999999998,-0.756644,0.631167
1629795343042,0.024399999999999998,-0.757498,0.631106
1629795343051,0.025498,-0.757742,0.630008
1629795343061,0.025863999999999998,-0.759389,0.630252
1629795343071,0.027145,-0.760853,0.630496
1629795343080,0.02562,-0.759389,0.630618
1629795343090,0.024888,-0.760304,0.631655
1629795343099,0.025863999999999998,-0.759633,0.631289
1629795343109,0.025986,-0.759999,0.631594
1629795343119,0.026474,-0.759572,0.6320209999999999
1629795343128,0.027267,-0.758352,0.6320209999999999
1629795343138,0.025681,-0.756705,0.631411
1629795343147,0.024888,-0.7537159999999999,0.63135
1629795343157,0.023667999999999998,-0.753167,0.630374
1629795343167,0.023972999999999998,-0.7555459999999999,0.631228
1629795343176,0.024522,-0.757315,0.632692
1629795343186,0.025071,-0.758352,0.6323259999999999
1629795343195,0.025193,-0.758962,0.632509
1629795343205,0.024766,-0.757864,0.629947
1629795343215,0.025436999999999998,-0.759328,0.63074
1629795343224,0.026108,-0.7607309999999999,0.6320209999999999
1629795343234,0.025559,-0.7613409999999999,0.633119
1629795343243,0.025498,-0.761585,0.633973
1629795343253,0.025498,-0.759999,0.634278
1629795343263,0.024156,-0.758962,0.633058
1629795343272,0.020618,-0.757132,0.629642
1629795343282,0.017995,-0.755973,0.62769
1629795343291,0.017995,-0.7552409999999999,0.627385
1629795343301,0.01952,-0.755912,0.628666
1629795343311,0.021228,-0.756705,0.63074
1629795343320,0.023363,-0.757132,0.63257
1629795343330,0.022082,-0.757925,0.63257
1629795343339,0.021533,-0.757803,0.630618
1629795343349,0.020557,-0.757315,0.628178
1629795343359,0.020007999999999998,-0.758718,0.628422
1629795343368,0.020374,-0.7601209999999999,0.627934
1629795343378,0.020739999999999998,-0.7610359999999999,0.627934
1629795343387,0.020252,-0.761707,0.626714
1629795343397,0.019642,-0.761158,0.627751
1629795343407,0.019093,-0.7613409999999999,0.62647
1629795343416,0.020191,-0.761463,0.627385
1629795343426,0.020252,-0.762744,0.62769
1629795343435,0.020496,-0.7628659999999999,0.6283
1629795343445,0.020252,-0.762988,0.629581
1629795343455,0.019886,-0.762744,0.629764
1629795343464,0.018361,-0.762622,0.629337
1629795343474,0.017446,-0.7625,0.627873
1629795343483,0.017141,-0.762744,0.629276
1629795343493,0.017506999999999998,-0.763415,0.628727
1629795343503,0.017568,-0.764513,0.628056
1629795343512,0.017995,-0.764269,0.626958
1629795343522,0.017873,-0.764025,0.62769
1629795343531,0.017934,-0.7650009999999999,0.628849
1629795343541,0.019154,-0.765672,0.630008
1629795343551,0.020862,-0.765123,0.63074
1629795343560,0.018483,-0.7640859999999999,0.629459
1629795343570,0.01769,-0.762073,0.6283
1629795343579,0.01769,-0.76189,0.626958
1629795343589,0.017568,-0.761219,0.625677
1629795343599,0.017568,-0.7613409999999999,0.626348
1629795343608,0.016774999999999998,-0.761402,0.625555
1629795343618,0.0183,-0.761463,0.626714
1629795343627,0.019947,-0.762134,0.627202
1629795343637,0.020557,-0.763964,0.627507
1629795343647,0.020618,-0.763964,0.626653
1629795343656,0.020496,-0.7650009999999999,0.625982
1629795343666,0.020252,-0.7646959999999999,0.625128
1629795343675,0.01952,-0.764513,0.62464
1629795343685,0.020007999999999998,-0.763537,0.622749
1629795343695,0.019275999999999998,-0.761768,0.6222
1629795343704,0.019275999999999998,-0.760975,0.623359
1629795343714,0.019093,-0.760365,0.62464
1629795343723,0.0183,-0.760304,0.626592
1629795343733,0.017873,-0.7601209999999999,0.627507
1629795343743,0.017324,-0.759755,0.627812
1629795343752,0.018483,-0.759938,0.628178
1629795343762,0.018239,-0.760304,0.627934
1629795343771,0.017751,-0.761585,0.629154
1629795343781,0.017079999999999998,-0.761524,0.629276
1629795343791,0.016104,-0.76067,0.628727
1629795343800,0.015982,-0.760182,0.628117
1629795343810,0.016042999999999998,-0.759633,0.627934
1629795343819,0.016531,-0.760853,0.628727
1629795343829,0.016592,-0.76006,0.628056
1629795343839,0.017141,-0.760365,0.62891
1629795343848,0.017079999999999998,-0.7616459999999999,0.630069
1629795343858,0.017811999999999998,-0.760304,0.630862
1629795343867,0.018788,-0.760548,0.631411
1629795343877,0.018056,-0.759877,0.63257
1629795343887,0.016714,-0.759023,0.632692
1629795343896,0.015677,-0.758779,0.632082
1629795343906,0.015311,-0.7582909999999999,0.63196
1629795343915,0.015372,-0.7582909999999999,0.632143
1629795343925,0.01647,-0.758657,0.632387
1629795343935,0.017079999999999998,-0.758108,0.6329359999999999
1629795343944,0.017079999999999998,-0.759389,0.632082
1629795343954,0.016714,-0.7579859999999999,0.631167
1629795343963,0.016409,-0.757193,0.629764
1629795343973,0.015982,-0.758047,0.629459
1629795343983,0.01647,-0.76006,0.629703
1629795343992,0.017079999999999998,-0.760548,0.630313
1629795344002,0.017324,-0.76006,0.629764
1629795344011,0.016592,-0.760365,0.629764
1629795344021,0.016287,-0.7595109999999999,0.628849
1629795344031,0.015433,-0.75945,0.629276
1629795344040,0.016592,-0.76067,0.630923
1629795344050,0.016897,-0.760548,0.632509
1629795344059,0.016714,-0.760548,0.633485
1629795344069,0.017811999999999998,-0.7604259999999999,0.6338509999999999
1629795344079,0.016653,-0.7595109999999999,0.631655
1629795344088,0.015493999999999999,-0.7579859999999999,0.630374
1629795344098,0.012749,-0.757254,0.627812
1629795344107,0.012383,-0.756034,0.627202
1629795344117,0.013176,-0.75762,0.627202
1629795344127,0.015127999999999999,-0.75823,0.628788
1629795344136,0.017385,-0.760792,0.630679
1629795344146,0.018117,-0.761585,0.631655
1629795344155,0.018117,-0.762439,0.630618
1629795344165,0.017506999999999998,-0.762622,0.629154
1629795344175,0.017506999999999998,-0.7616459999999999,0.627263
1629795344184,0.015982,-0.76189,0.625677
1629795344194,0.015555,-0.762195,0.623847
1629795344203,0.015616,-0.762012,0.624091
1629795344213,0.016104,-0.762012,0.624457
1629795344223,0.016897,-0.7625,0.625921
1629795344232,0.017324,-0.763232,0.626287
1629795344242,0.017751,-0.762805,0.62647
1629795344251,0.018788,-0.764635,0.626775
1629795344261,0.01891,-0.764879,0.626104
1629795344271,0.018178,-0.764269,0.626348
1629795344280,0.017873,-0.764513,0.626714
1629795344290,0.018117,-0.765123,0.626836
1629795344299,0.017751,-0.763842,0.626592
1629795344309,0.018361,-0.763354,0.626653
1629795344319,0.018361,-0.7637809999999999,0.626836
1629795344328,0.019032,-0.762134,0.626165
1629795344338,0.020252,-0.762622,0.626653
1629795344347,0.020191,-0.763842,0.626409
1629795344357,0.020496,-0.7634759999999999,0.626714
1629795344367,0.020739999999999998,-0.762622,0.625799
1629795344376,0.019275999999999998,-0.761768,0.622932
1629795344386,0.018788,-0.7616459999999999,0.621956
1629795344395,0.019703,-0.763293,0.6214069999999999
1629795344405,0.021777,-0.7640859999999999,0.620919
1629795344415,0.021716,-0.765062,0.622139
1629795344424,0.020984,-0.764574,0.621651
1629795344434,0.02135,-0.765855,0.621346
1629795344443,0.021411,-0.7665259999999999,0.621651
1629795344453,0.022203999999999998,-0.7674409999999999,0.623115
1629795344463,0.020801,-0.767258,0.622749
1629795344472,0.019886,-0.7677459999999999,0.624152
1629795344482,0.020435,-0.7674409999999999,0.623481
1629795344491,0.019215,-0.766587,0.624091
1629795344501,0.018849,-0.765855,0.623786
1629795344511,0.018361,-0.764513,0.624457
1629795344520,0.01647,-0.7631709999999999,0.622993
1629795344530,0.016042999999999998,-0.76311,0.62281
1629795344539,0.016287,-0.76311,0.623542
1629795344549,0.017079999999999998,-0.764147,0.624335
1629795344559,0.017506999999999998,-0.764208,0.624335
1629795344568,0.017811999999999998,-0.764879,0.623664
1629795344578,0.017019,-0.765428,0.623298
1629795344587,0.017811999999999998,-0.7653059999999999,0.622749
1629795344597,0.018178,-0.766343,0.622261
1629795344607,0.018483,-0.766953,0.622017
1629795344616,0.0183,-0.76616,0.62098
1629795344626,0.017934,-0.766892,0.622139
1629795344635,0.017568,-0.766648,0.622566
1629795344645,0.016531,-0.7665259999999999,0.622505
1629795344655,0.016774999999999998,-0.765733,0.623054
1629795344664,0.016347999999999998,-0.7659159999999999,0.623603
1629795344674,0.016836,-0.765733,0.625006
1629795344683,0.016287,-0.765184,0.624945
1629795344693,0.017324,-0.765428,0.625433
1629795344703,0.017141,-0.7650009999999999,0.626043
1629795344712,0.01769,-0.765062,0.625067
1629795344722,0.016653,-0.7646959999999999,0.625616
1629795344731,0.016774999999999998,-0.763964,0.625372
1629795344741,0.017019,-0.763232,0.625372
1629795344751,0.016347999999999998,-0.763415,0.62586
1629795344760,0.017019,-0.762805,0.62647
1629795344770,0.017019,-0.7622559999999999,0.626043
1629795344779,0.016836,-0.762012,0.626226
1629795344789,0.01769,-0.76189,0.626043
1629795344799,0.017995,-0.7610359999999999,0.625555
1629795344808,0.016042999999999998,-0.76128,0.62403
1629795344818,0.016042999999999998,-0.761158,0.623298
1629795344827,0.016226,-0.7619509999999999,0.624091
1629795344837,0.016897,-0.7643909999999999,0.624701
1629795344847,0.016897,-0.763964,0.624274
1629795344856,0.016653,-0.7643909999999999,0.625372
1629795344866,0.016531,-0.765245,0.62342
1629795344875,0.017446,-0.765794,0.624335
1629795344885,0.018361,-0.7674409999999999,0.626653
1629795344895,0.01952,-0.76616,0.626226
1629795344904,0.018788,-0.766038,0.628422
1629795344914,0.017324,-0.764879,0.627751
1629795344923,0.016287,-0.762439,0.627629
1629795344933,0.014823,-0.760914,0.628239
1629795344943,0.013542,-0.758657,0.626165
1629795344952,0.012261,-0.757498,0.62525
1629795344962,0.013542,-0.758779,0.627263
1629795344971,0.015189,-0.761463,0.627507
1629795344981,0.016165,-0.762683,0.628483
1629795344991,0.017629,-0.7631709999999999,0.628361
1629795345000,0.018971,-0.763964,0.627812
1629795345010,0.019764,-0.763415,0.626226
1629795345019,0.017934,-0.764452,0.623786
1629795345029,0.018239,-0.764635,0.622993
1629795345039,0.017568,-0.764452,0.6222
1629795345048,0.01769,-0.764757,0.622078
1629795345058,0.0183,-0.765184,0.622993
1629795345067,0.018971,-0.764513,0.622566
1629795345077,0.019764,-0.764879,0.623481
1629795345087,0.019642,-0.765245,0.624274
1629795345096,0.019337,-0.7656109999999999,0.624152
1629795345106,0.019032,-0.7662209999999999,0.624518
1629795345115,0.01891,-0.76677,0.623603
1629795345125,0.018605,-0.766587,0.62342
1629795345135,0.018849,-0.766648,0.623176
1629795345144,0.018483,-0.767502,0.62342
1629795345154,0.018727,-0.767502,0.623542
1629795345163,0.019886,-0.767563,0.622261
1629795345173,0.020374,-0.765855,0.622627
1629795345183,0.019947,-0.7671359999999999,0.623969
1629795345192,0.020618,-0.767563,0.623908
1629795345202,0.022265,-0.767014,0.624945
1629795345211,0.019337,-0.764574,0.62403
1629795345221,0.017568,-0.763598,0.62281
1629795345231,0.016347999999999998,-0.761463,0.620736
1629795345240,0.017141,-0.762805,0.621224
1629795345250,0.017446,-0.763293,0.622688
1629795345259,0.017995,-0.763415,0.622505
1629795345269,0.017811999999999998,-0.76433,0.623115
1629795345279,0.018422,-0.764818,0.624518
1629795345288,0.019215,-0.766038,0.624213
1629795345298,0.019032,-0.7656109999999999,0.624213
1629795345307,0.020252,-0.766282,0.624335
1629795345317,0.019032,-0.7665259999999999,0.621956
1629795345327,0.019703,-0.768661,0.622322
1629795345336,0.020069,-0.767075,0.622383
1629795345346,0.019764,-0.7668309999999999,0.621285
1629795345355,0.019093,-0.766038,0.621163
1629795345365,0.018422,-0.765184,0.621529
1629795345375,0.018788,-0.764513,0.622566
1629795345384,0.018117,-0.763842,0.623176
1629795345394,0.01891,-0.763537,0.623969
1629795345403,0.019275999999999998,-0.762439,0.624884
1629795345413,0.019886,-0.763415,0.625616
1629795345423,0.018849,-0.764513,0.626287
1629795345432,0.01891,-0.76433,0.625433
1629795345442,0.018178,-0.7634759999999999,0.625494
1629795345451,0.016836,-0.763354,0.624579
1629795345461,0.018361,-0.764513,0.625799
1629795345471,0.018117,-0.764269,0.625555
1629795345480,0.018117,-0.764452,0.626226
1629795345490,0.018056,-0.765184,0.626348
1629795345499,0.018178,-0.764147,0.627324
1629795345509,0.017934,-0.764208,0.627324
1629795345519,0.017568,-0.763598,0.627812
1629795345528,0.017934,-0.7637809999999999,0.628239
1629795345538,0.018117,-0.763415,0.628178
1629795345547,0.0183,-0.762805,0.628361
1629795345557,0.018422,-0.762805,0.627812
1629795345567,0.018727,-0.761768,0.627263
1629795345576,0.018666,-0.761219,0.627568
1629795345586,0.018483,-0.760914,0.627202
1629795345595,0.019886,-0.761219,0.627568
1629795345605,0.019275999999999998,-0.760853,0.6283
1629795345615,0.0183,-0.7607309999999999,0.627263
1629795345624,0.018239,-0.759084,0.62769
1629795345634,0.017811999999999998,-0.7598159999999999,0.627568
1629795345643,0.018483,-0.759755,0.62891
1629795345653,0.019275999999999998,-0.760243,0.627934
1629795345663,0.020618,-0.760792,0.628544
1629795345672,0.020496,-0.761219,0.627995
1629795345682,0.020252,-0.760914,0.626287
1629795345691,0.020191,-0.7607309999999999,0.625006
1629795345701,0.020618,-0.7604259999999999,0.624579
1629795345711,0.021838,-0.762195,0.626348
1629795345720,0.022387,-0.762134,0.628117
1629795345730,0.021471999999999998,-0.7622559999999999,0.627446
1629795345739,0.02013,-0.76128,0.628178
1629795345749,0.019154,-0.760365,0.627202
1629795345759,0.020496,-0.761707,0.627568
1629795345768,0.020496,-0.763354,0.629947
1629795345778,0.021471999999999998,-0.760548,0.629764
1629795345787,0.021228,-0.761524,0.63135
1629795345797,0.021533,-0.761829,0.631899
1629795345807,0.021289,-0.76128,0.630374
1629795345816,0.020374,-0.759694,0.629642
1629795345826,0.019093,-0.7576809999999999,0.627202
1629795345835,0.018056,-0.75762,0.626165
1629795345845,0.019215,-0.758535,0.628544
1629795345855,0.021411,-0.7601209999999999,0.62952
1629795345864,0.022387,-0.7625609999999999,0.63013
1629795345874,0.023363,-0.762744,0.629886
1629795345883,0.022935999999999998,-0.763415,0.627934
1629795345893,0.023424,-0.763537,0.625982
1629795345903,0.022997,-0.762683,0.623115
1629795345912,0.022935999999999998,-0.763354,0.622688
1629795345922,0.023058,-0.764574,0.622566
1629795345931,0.023912,-0.765245,0.623908
1629795345941,0.023912,-0.7656109999999999,0.624152
1629795345951,0.024339,-0.764025,0.624335
1629795345960,0.023485,-0.76189,0.625006
1629795345970,0.022692,-0.761402,0.626287
1629795345979,0.021167,-0.760792,0.626165
1629795345989,0.021838,-0.760792,0.627934
1629795345999,0.022203999999999998,-0.760304,0.629154
1629795346008,0.022509,-0.758962,0.629398
1629795346018,0.021899,-0.7582909999999999,0.630313
1629795346027,0.021471999999999998,-0.7585959999999999,0.630801
1629795346037,0.020435,-0.75823,0.629642
1629795346047,0.019947,-0.75823,0.62891
1629795346056,0.020923,-0.758352,0.629337
1629795346066,0.021228,-0.7598159999999999,0.62891
1629795346075,0.020435,-0.759694,0.627995
1629795346085,0.022203999999999998,-0.760609,0.629886
1629795346095,0.022265,-0.762622,0.628605
1629795346104,0.020374,-0.7634759999999999,0.626958
1629795346114,0.020252,-0.76433,0.625189
1629795346123,0.019703,-0.7634759999999999,0.62525
1629795346133,0.019398,-0.7625,0.62464
1629795346143,0.019093,-0.761402,0.626531
1629795346152,0.018788,-0.76128,0.627263
1629795346162,0.018117,-0.760975,0.629032
1629795346171,0.017385,-0.7607309999999999,0.631228
1629795346181,0.018056,-0.760487,0.63257
1629795346191,0.016836,-0.760304,0.6332409999999999
1629795346200,0.017019,-0.760304,0.633302
1629795346210,0.01647,-0.759389,0.6335459999999999
1629795346219,0.016042999999999998,-0.7582909999999999,0.632509
1629795346229,0.015799,-0.7589009999999999,0.633119
1629795346239,0.015127999999999999,-0.756522,0.630313
1629795346248,0.015677,-0.758352,0.631838
1629795346258,0.015799,-0.75945,0.632814
1629795346267,0.016226,-0.758657,0.6326309999999999
1629795346277,0.01769,-0.758535,0.633058
1629795346287,0.017568,-0.757559,0.6323259999999999
1629795346296,0.017385,-0.757742,0.632509
1629795346306,0.017385,-0.7570709999999999,0.631899
1629795346315,0.017446,-0.7567659999999999,0.630374
1629795346325,0.017995,-0.757193,0.630801
1629795346335,0.018178,-0.7573759999999999,0.629581
1629795346344,0.018178,-0.756583,0.627934
1629795346354,0.018788,-0.7573759999999999,0.629764
1629795346363,0.020069,-0.758108,0.630679
1629795346373,0.019886,-0.758352,0.631167
1629795346383,0.019398,-0.759633,0.63196
1629795346392,0.017934,-0.759572,0.632692
1629795346402,0.017385,-0.75884,0.631533
1629795346411,0.017568,-0.759938,0.631533
1629795346421,0.017873,-0.75884,0.6317159999999999
1629795346431,0.018605,-0.7589009999999999,0.6326309999999999
1629795346440,0.01891,-0.758413,0.633485
1629795346450,0.018971,-0.75884,0.634705
1629795346459,0.019398,-0.7573759999999999,0.63501
1629795346469,0.018605,-0.7564609999999999,0.633363
1629795346479,0.017934,-0.7555459999999999,0.631594
1629795346488,0.017385,-0.754997,0.631228
1629795346498,0.017629,-0.755058,0.630496
1629795346507,0.01891,-0.755424,0.631655
1629795346517,0.021045,-0.758047,0.63257
1629795346527,0.020923,-0.7604259999999999,0.632143
1629795346536,0.020618,-0.761707,0.62891
1629795346546,0.020374,-0.761829,0.6283
1629795346555,0.019947,-0.76311,0.627873
1629795346565,0.021045,-0.763842,0.628422
1629795346575,0.020007999999999998,-0.763354,0.627263
1629795346584,0.019398,-0.760853,0.627141
1629795346594,0.018543999999999998,-0.762012,0.628544
1629795346603,0.018727,-0.760792,0.628727
1629795346613,0.019886,-0.762622,0.630496
1629795346623,0.021716,-0.76311,0.633302
1629795346632,0.021045,-0.7628659999999999,0.6329359999999999
1629795346642,0.020313,-0.7616459999999999,0.632448
1629795346651,0.018483,-0.759938,0.629276
1629795346661,0.019642,-0.760853,0.630801
1629795346671,0.019337,-0.759877,0.630008
1629795346680,0.016714,-0.758108,0.628056
1629795346690,0.018483,-0.7570709999999999,0.627446
1629795346699,0.020252,-0.7573759999999999,0.628727
1629795346709,0.020557,-0.75701,0.629581
1629795346719,0.022326,-0.758779,0.6341559999999999
1629795346728,0.02257,-0.7598159999999999,0.634949
1629795346738,0.021716,-0.759999,0.634949
1629795346747,0.022326,-0.758474,0.631106
1629795346757,0.023241,-0.758474,0.629886
1629795346767,0.023424,-0.7582909999999999,0.629154
1629795346776,0.022935999999999998,-0.75762,0.627934
1629795346786,0.023058,-0.757803,0.628544
1629795346795,0.024949,-0.757559,0.629032
1629795346805,0.026108,-0.758962,0.628666
1629795346815,0.025742,-0.7585959999999999,0.628239
1629795346824,0.025376,-0.758779,0.628239
1629795346834,0.02379,-0.7582909999999999,0.629337
1629795346843,0.024522,-0.759023,0.631533
1629795346853,0.02379,-0.759694,0.6332409999999999
1629795346863,0.023607,-0.759877,0.6332409999999999
1629795346872,0.024766,-0.760548,0.635254
1629795346882,0.024095,-0.760975,0.63623
1629795346891,0.024156,-0.760304,0.635254
1629795346901,0.02379,-0.75762,0.6344609999999999
1629795346911,0.025803,-0.756888,0.6378159999999999
1629795346920,0.025681,-0.756888,0.639585
1629795346930,0.025925,-0.7543259999999999,0.640134
1629795346939,0.025559,-0.751703,0.63928
1629795346949,0.022753,-0.748226,0.636474
1629795346959,0.020984,-0.74725,0.6344609999999999
1629795346968,0.022326,-0.749385,0.636108
1629795346978,0.024522,-0.751642,0.637145
1629795346987,0.027938,-0.75457,0.6396459999999999
1629795346997,0.030560999999999998,-0.755424,0.63989
1629795347007,0.031659,-0.755729,0.639768
1629795347016,0.030317,-0.753594,0.637877
1629795347026,0.028182,-0.751459,0.6344609999999999
1629795347035,0.027938,-0.749446,0.634339
1629795347045,0.027084,-0.749629,0.633485
1629795347055,0.027632999999999998,-0.74908,0.633058
1629795347064,0.028059999999999998,-0.749202,0.6341559999999999
1629795347074,0.028487,-0.751093,0.636962
1629795347083,0.029158,-0.75213,0.63745
1629795347093,0.030073,-0.752679,0.639524
1629795347103,0.030378,-0.752679,0.640012
1629795347112,0.029036,-0.752008,0.640134
1629795347122,0.028121,-0.7506659999999999,0.639463
1629795347131,0.027572,-0.749629,0.639463
1629795347141,0.027023,-0.749568,0.6387309999999999
1629795347151,0.025742,-0.748836,0.638182
1629795347160,0.024339,-0.748104,0.640073
1629795347170,0.024888,-0.748043,0.641842
1629795347179,0.02501,-0.750117,0.642635
1629795347189,0.025925,-0.749873,0.6426959999999999
1629795347199,0.025925,-0.750422,0.644404
1629795347208,0.025193,-0.749202,0.643184
1629795347218,0.02379,-0.749385,0.643367
1629795347227,0.024278,-0.749751,0.642208
1629795347237,0.024217,-0.750178,0.642452
1629795347247,0.023972999999999998,-0.750483,0.642635
1629795347256,0.024034,-0.7509709999999999,0.642757
1629795347266,0.024766,-0.7509709999999999,0.642269
1629795347275,0.024522,-0.749568,0.642635
1629795347285,0.02501,-0.749019,0.642574
1629795347295,0.024339,-0.749568,0.643245
1629795347304,0.024766,-0.750178,0.643672
1629795347314,0.024399999999999998,-0.74969,0.643977
1629795347323,0.024278,-0.749568,0.64233
1629795347333,0.024339,-0.748836,0.640622
1629795347343,0.025498,-0.749263,0.640744
1629795347352,0.026108,-0.750788,0.6433059999999999
1629795347362,0.025559,-0.750178,0.641293
1629795347371,0.025925,-0.749751,0.640195
1629795347381,0.026413,-0.750239,0.638853
1629795347391,0.025559,-0.749568,0.637572
1629795347400,0.027694,-0.750117,0.639219
1629795347410,0.029341,-0.750849,0.642757
1629795347419,0.028121,-0.751337,0.6433059999999999
1629795347429,0.027023,-0.74847,0.641354
1629795347439,0.026595999999999998,-0.747982,0.640622
1629795347448,0.027572,-0.751642,0.642208
1629795347458,0.027327999999999998,-0.751459,0.640622
1629795347467,0.027084,-0.750056,0.637877
1629795347477,0.025436999999999998,-0.748775,0.637328
1629795347487,0.027877,-0.74908,0.6372059999999999
1629795347496,0.028304,-0.749568,0.638975
1629795347506,0.027084,-0.752252,0.640195
1629795347515,0.028059999999999998,-0.752313,0.638609
1629795347525,0.027816,-0.75274,0.637023
1629795347535,0.029096999999999998,-0.753594,0.636962
1629795347544,0.027816,-0.7531059999999999,0.635132
1629795347554,0.027755,-0.754082,0.634705
1629795347563,0.027327999999999998,-0.754204,0.634827
1629795347573,0.026535,-0.7543259999999999,0.6356809999999999
1629795347583,0.02623,-0.754204,0.635742
1629795347592,0.027572,-0.7537159999999999,0.63684
1629795347602,0.026108,-0.752862,0.637023
1629795347611,0.025498,-0.75335,0.638182
1629795347621,0.024888,-0.753472,0.6387309999999999
1629795347631,0.025498,-0.7543259999999999,0.640317
1629795347640,0.025863999999999998,-0.7546309999999999,0.641049
1629795347650,0.02501,-0.755485,0.640927
1629795347659,0.024461,-0.7543259999999999,0.63806
1629795347669,0.024704999999999998,-0.756034,0.638487
1629795347679,0.024704999999999998,-0.757437,0.637145
1629795347688,0.025193,-0.756217,0.6365959999999999
1629795347698,0.025863999999999998,-0.756217,0.638182
1629795347707,0.026595999999999998,-0.756705,0.638243
1629795347717,0.026962,-0.757498,0.63928
1629795347727,0.026108,-0.7555459999999999,0.637145
1629795347736,0.022326,-0.7503,0.632082
1629795347746,0.021411,-0.749385,0.6329359999999999
1629795347755,0.02196,-0.750544,0.635132
1629795347765,0.023424,-0.752984,0.636474
1629795347775,0.024827,-0.7546309999999999,0.637694
1629795347784,0.02623,-0.756888,0.638853
1629795347794,0.025986,-0.755668,0.638243
1629795347803,0.024034,-0.754265,0.63745
1629795347813,0.022631,-0.753045,0.635437
1629795347823,0.022265,-0.7518859999999999,0.635132
1629795347832,0.022631,-0.7518859999999999,0.6341559999999999
1629795347842,0.022326,-0.753167,0.636108
1629795347851,0.021167,-0.7537159999999999,0.636108
1629795347861,0.020923,-0.753838,0.63684
1629795347871,0.021655,-0.754204,0.638182
1629795347880,0.021594,-0.754753,0.638304
1629795347890,0.022326,-0.75457,0.6384259999999999
1629795347899,0.022143,-0.7549359999999999,0.636718
1629795347909,0.021471999999999998,-0.756034,0.635864
1629795347919,0.021899,-0.755973,0.635132
1629795347928,0.020679,-0.755607,0.635498
1629795347938,0.021838,-0.755729,0.635925
1629795347947,0.021045,-0.7549359999999999,0.637145
1629795347957,0.020313,-0.755302,0.63745
1629795347967,0.020679,-0.753045,0.6365959999999999
1629795347976,0.019947,-0.753838,0.637572
1629795347986,0.020435,-0.753838,0.638975
1629795347995,0.02013,-0.753838,0.63867
1629795348005,0.020739999999999998,-0.754875,0.638487
1629795348015,0.021655,-0.7552409999999999,0.637633
1629795348024,0.022203999999999998,-0.756034,0.636474
1629795348034,0.022265,-0.756217,0.635803
1629795348043,0.023058,-0.75701,0.637084
1629795348053,0.024522,-0.756644,0.6384259999999999
1629795348063,0.023546,-0.75579,0.636718
1629795348072,0.023851,-0.754875,0.6359859999999999
1629795348082,0.022203999999999998,-0.753838,0.633607
1629795348091,0.023241,-0.753167,0.634583
1629795348101,0.02318,-0.754265,0.635315
1629795348111,0.024278,-0.754692,0.635315
1629795348120,0.025498,-0.75518,0.636352
1629795348130,0.024644,-0.7552409999999999,0.6353759999999999
1629795348139,0.024339,-0.755668,0.6344
1629795348149,0.024949,-0.75579,0.633607
1629795348159,0.025742,-0.755424,0.6344609999999999
1629795348168,0.028182,-0.757864,0.637938
1629795348178,0.028487,-0.7567659999999999,0.6381209999999999
1629795348187,0.028182,-0.754997,0.63867
1629795348197,0.025742,-0.752069,0.636413
1629795348207,0.025925,-0.753655,0.638609
1629795348216,0.026595999999999998,-0.753838,0.637938
1629795348226,0.025071,-0.752069,0.636474
1629795348235,0.025742,-0.751398,0.634522
1629795348245,0.02684,-0.752313,0.634583
1629795348255,0.028487,-0.752557,0.6341559999999999
1629795348264,0.030317,-0.754265,0.6356809999999999
1629795348274,0.030073,-0.753899,0.634949
1629795348283,0.028975,-0.754204,0.633668
1629795348293,0.029523999999999998,-0.755485,0.6341559999999999
1629795348303,0.030317,-0.755729,0.633058
1629795348312,0.02989,-0.756278,0.632753
1629795348322,0.029768,-0.757742,0.632997
1629795348331,0.029523999999999998,-0.7558509999999999,0.632387
1629795348341,0.030134,-0.755729,0.633363
1629795348351,0.030987999999999998,-0.754997,0.634705
1629795348360,0.030317,-0.754753,0.634888
1629795348370,0.029402,-0.753289,0.635925
1629795348379,0.028791999999999998,-0.754143,0.636779
1629795348389,0.028364999999999998,-0.7540209999999999,0.6365959999999999
1629795348399,0.027877,-0.7540209999999999,0.63684
1629795348408,0.027816,-0.755607,0.637389
1629795348418,0.028609,-0.756827,0.638975
1629795348427,0.029036,-0.755668,0.638609
1629795348437,0.028487,-0.756095,0.637755
1629795348447,0.029036,-0.7549359999999999,0.636779
1629795348456,0.028731,-0.754448,0.6344
1629795348466,0.029341,-0.75335,0.6359859999999999
1629795348475,0.030134,-0.75335,0.637694
1629795348485,0.030866,-0.755485,0.638548
1629795348495,0.031659,-0.754997,0.638243
1629795348504,0.029219,-0.7524959999999999,0.6362909999999999
1629795348514,0.026474,-0.74969,0.6329359999999999
1629795348523,0.026108,-0.748531,0.631777
1629795348533,0.025681,-0.749934,0.631533
1629795348543,0.027145,-0.752008,0.6335459999999999
1629795348552,0.029402,-0.755119,0.6369009999999999
1629795348562,0.031964,-0.756827,0.6384259999999999
1629795348571,0.030744,-0.756095,0.637389
1629795348581,0.028853,-0.756705,0.636352
1629795348591,0.028059999999999998,-0.7567659999999999,0.634644
1629795348600,0.027511,-0.7564,0.6344
1629795348610,0.027511,-0.756095,0.6344609999999999
1629795348619,0.02684,-0.754753,0.635315
1629795348629,0.026474,-0.754448,0.636352
1629795348639,0.025376,-0.752923,0.6359859999999999
1629795348648,0.024095,-0.753045,0.636535
1629795348658,0.024644,-0.753228,0.6365959999999999
1629795348667,0.025498,-0.752557,0.636352
1629795348677,0.025986,-0.75335,0.6372059999999999
1629795348687,0.025986,-0.7534109999999999,0.635742
1629795348696,0.025254,-0.753533,0.6359859999999999
1629795348706,0.025803,-0.754814,0.63684
1629795348715,0.025498,-0.7555459999999999,0.635193
1629795348725,0.025436999999999998,-0.755668,0.635315
1629795348735,0.02562,-0.7564,0.634949
1629795348744,0.025254,-0.756949,0.6344
1629795348754,0.026047,-0.7564,0.634705
1629795348763,0.026657,-0.756827,0.634949
1629795348773,0.026474,-0.755668,0.635864
1629795348783,0.02562,-0.755485,0.635864
1629795348792,0.024888,-0.755363,0.635498
1629795348802,0.024949,-0.755912,0.6347659999999999
1629795348811,0.025376,-0.756888,0.634644
1629795348821,0.026291,-0.75762,0.635925
1629795348831,0.027084,-0.75701,0.6365959999999999
1629795348840,0.027572,-0.757437,0.635498
1629795348850,0.027145,-0.7555459999999999,0.634705
1629795348859,0.026047,-0.753594,0.633424
1629795348869,0.025376,-0.752374,0.633973
1629795348879,0.025376,-0.752862,0.634522
1629795348888,0.025742,-0.75335,0.6359859999999999
1629795348898,0.026657,-0.754448,0.6378159999999999
1629795348907,0.027327999999999998,-0.754753,0.6375109999999999
1629795348917,0.026474,-0.754753,0.637694
1629795348927,0.027145,-0.75396,0.634278
1629795348936,0.027389,-0.754692,0.635742
1629795348946,0.028731,-0.756888,0.636413
1629795348955,0.028121,-0.75457,0.634705
1629795348965,0.028548,-0.75701,0.63806
1629795348975,0.029219,-0.756827,0.637328
1629795348984,0.02745,-0.7552409999999999,0.636169
1629795348994,0.025131999999999998,-0.754387,0.634095
1629795349003,0.024461,-0.7528009999999999,0.631838
1629795349013,0.024522,-0.753045,0.63318
1629795349023,0.025986,-0.754448,0.63501
1629795349032,0.027389,-0.7555459999999999,0.635498
1629795349042,0.027999,-0.756339,0.636718
1629795349051,0.027023,-0.755119,0.636413
1629795349061,0.027327999999999998,-0.7549359999999999,0.635193
1629795349071,0.026474,-0.7549359999999999,0.63379
1629795349080,0.02623,-0.755607,0.633607
1629795349090,0.026291,-0.7564609999999999,0.631777
1629795349099,0.026900999999999998,-0.756278,0.631228
1629795349109,0.028243,-0.757498,0.632875
1629795349119,0.029096999999999998,-0.756888,0.6338509999999999
1629795349128,0.02867,-0.7558509999999999,0.633973
1629795349138,0.028059999999999998,-0.755424,0.6347659999999999
1629795349147,0.027206,-0.754814,0.635315
1629795349157,0.027206,-0.754204,0.6338509999999999
1629795349167,0.025925,-0.75335,0.634278
1629795349176,0.026779,-0.75457,0.634827
1629795349186,0.026595999999999998,-0.755424,0.636169
1629795349195,0.027938,-0.75701,0.636108
1629795349205,0.027267,-0.7573759999999999,0.6369009999999999
1629795349215,0.027632999999999998,-0.756705,0.635864
1629795349224,0.026900999999999998,-0.7561559999999999,0.634034
1629795349234,0.026413,-0.756949,0.6338509999999999
1629795349243,0.026718,-0.7564,0.63379
1629795349253,0.027877,-0.758413,0.63562
1629795349263,0.028853,-0.758535,0.636108
1629795349272,0.028853,-0.758352,0.638304
1629795349282,0.027572,-0.756217,0.635559
1629795349291,0.024644,-0.7524959999999999,0.633058
1629795349301,0.024399999999999998,-0.752679,0.632875
1629795349311,0.025742,-0.75335,0.634034
1629795349320,0.025131999999999998,-0.753533,0.634034
1629795349330,0.025254,-0.753594,0.6344609999999999
1629795349339,0.026352,-0.755302,0.635559
1629795349349,0.025559,-0.7552409999999999,0.636352
1629795349359,0.02623,-0.756034,0.636352
1629795349368,0.026535,-0.756522,0.635803
1629795349378,0.027084,-0.75701,0.636108
1629795349387,0.025925,-0.756217,0.63562
1629795349397,0.02623,-0.7564,0.635437
1629795349407,0.02562,-0.755912,0.6338509999999999
1629795349416,0.025436999999999998,-0.756644,0.63257
1629795349426,0.025863999999999998,-0.757254,0.6323259999999999
1629795349435,0.02562,-0.755729,0.631777
1629795349445,0.025193,-0.755302,0.6323259999999999
1629795349455,0.025925,-0.75579,0.634095
1629795349464,0.025193,-0.75457,0.635193
1629795349474,0.025498,-0.755302,0.635864
1629795349483,0.025376,-0.754814,0.636657
1629795349493,0.024644,-0.75518,0.636779
1629795349503,0.024034,-0.754875,0.63562
1629795349512,0.024278,-0.754875,0.636657
1629795349522,0.023363,-0.7552409999999999,0.6362909999999999
1629795349531,0.024156,-0.7555459999999999,0.6365959999999999
1629795349541,0.025925,-0.75457,0.636779
1629795349551,0.025498,-0.753655,0.637938
1629795349560,0.024399999999999998,-0.753289,0.639097
1629795349570,0.024399999999999998,-0.753167,0.63867
1629795349579,0.024339,-0.752862,0.638243
1629795349589,0.024399999999999998,-0.752374,0.638853
1629795349599,0.024522,-0.75274,0.637999
1629795349608,0.024034,-0.753777,0.6375109999999999
1629795349618,0.024461,-0.753899,0.637694
1629795349627,0.026352,-0.754448,0.637145
1629795349637,0.025925,-0.7549359999999999,0.637023
1629795349647,0.025498,-0.754204,0.634888
1629795349656,0.022935999999999998,-0.752984,0.633302
1629795349666,0.023667999999999998,-0.752435,0.6329359999999999
1629795349675,0.023607,-0.754814,0.633607
1629795349685,0.024217,-0.75457,0.635132
1629795349695,0.024522,-0.754204,0.635803
1629795349704,0.023058,-0.754265,0.638182
1629795349714,0.022692,-0.7531059999999999,0.637938
1629795349723,0.021411,-0.75213,0.6387309999999999
1629795349733,0.02257,-0.7528009999999999,0.641537
1629795349743,0.022997,-0.752679,0.642635
1629795349752,0.022203999999999998,-0.7528009999999999,0.643428
1629795349762,0.023363,-0.752984,0.644648
1629795349771,0.022875,-0.7518859999999999,0.642513
1629795349781,0.021167,-0.74847,0.640012
1629795349791,0.018666,-0.746762,0.636962
1629795349800,0.017019,-0.745176,0.637328
1629795349810,0.017629,-0.745054,0.6369009999999999
1629795349819,0.01891,-0.746945,0.639585
1629795349829,0.020069,-0.748226,0.6411709999999999
1629795349839,0.020374,-0.748958,0.641903
1629795349848,0.021167,-0.750178,0.642574
1629795349858,0.020252,-0.750239,0.641598
1629795349867,0.01952,-0.750239,0.640683
1629795349877,0.019093,-0.751032,0.639707
1629795349887,0.017141,-0.751642,0.639524
1629795349896,0.017751,-0.752374,0.63928
1629795349906,0.019032,-0.752008,0.640622
1629795349915,0.019825,-0.751947,0.642635
1629795349925,0.018178,-0.750361,0.643123
1629795349935,0.017446,-0.748287,0.643062
1629795349944,0.015677,-0.746518,0.6439159999999999
1629795349954,0.015982,-0.747006,0.644648
1629795349963,0.015127999999999999,-0.746457,0.645319
1629795349973,0.014395999999999999,-0.746274,0.644892
1629795349983,0.014579,-0.746274,0.645868
1629795349992,0.014823,-0.746823,0.646478
1629795350002,0.014884,-0.746884,0.646356
1629795350011,0.014823,-0.74725,0.646112
1629795350021,0.013969,-0.747982,0.6445259999999999
1629795350031,0.014091,-0.747128,0.645014
1629795350040,0.013847,-0.747982,0.646173
1629795350050,0.014152,-0.748714,0.646539
1629795350059,0.014701,-0.747738,0.64782
1629795350069,0.013969,-0.746884,0.646905
1629795350079,0.012688,-0.747128,0.645502
1629795350088,0.013054,-0.747494,0.64599
1629795350098,0.013359,-0.745786,0.644404
1629795350107,0.012505,-0.746213,0.645929
1629795350117,0.01159,-0.746701,0.6457459999999999
1629795350127,0.012199999999999999,-0.747372,0.645319
1629795350136,0.011224,-0.746152,0.6466
1629795350146,0.012261,-0.745603,0.6466
1629795350155,0.011224,-0.744993,0.647332
1629795350165,0.012017,-0.745908,0.646844
1629795350175,0.011712,-0.74603,0.646112
1629795350184,0.013237,-0.746152,0.645685
1629795350194,0.012383,-0.746457,0.644099
1629795350203,0.01281,-0.746091,0.6445259999999999
1629795350213,0.012444,-0.745054,0.64355
1629795350223,0.011285,-0.745115,0.64294
1629795350232,0.011407,-0.745481,0.64233
1629795350242,0.011833999999999999,-0.745908,0.6442209999999999
1629795350251,0.011956,-0.746274,0.645258
1629795350261,0.012565999999999999,-0.745786,0.645319
1629795350271,0.012931999999999999,-0.746274,0.646661
1629795350280,0.013115,-0.746518,0.647454
1629795350290,0.011895,-0.745908,0.646783
1629795350299,0.011467999999999999,-0.747372,0.647149
1629795350309,0.011224,-0.746945,0.646844
1629795350319,0.011163,-0.746762,0.6454409999999999
1629795350328,0.011346,-0.74603,0.645868
1629795350338,0.011833999999999999,-0.74664,0.646661
1629795350347,0.012688,-0.74664,0.647942
1629795350357,0.012993,-0.74725,0.647698
1629795350367,0.012565999999999999,-0.746579,0.647332
1629795350376,0.012931999999999999,-0.745359,0.64721
1629795350386,0.013176,-0.744932,0.647149
1629795350395,0.014579,-0.746213,0.646173
1629795350405,0.014518,-0.747006,0.647271
1629795350415,0.015067,-0.74786,0.648552
1629795350424,0.013603,-0.746518,0.647881
1629795350434,0.012383,-0.745725,0.647637
1629795350443,0.01281,-0.744993,0.6466
1629795350453,0.012322,-0.745786,0.649467
1629795350463,0.012627,-0.743956,0.648369
1629795350472,0.012199999999999999,-0.743285,0.648247
1629795350482,0.013786,-0.743712,0.648552
1629795350491,0.01342,-0.743285,0.647332
1629795350501,0.012749,-0.743956,0.646417
1629795350511,0.013542,-0.745786,0.648369
1629795350520,0.015189,-0.74725,0.649223
1629795350530,0.014518,-0.746457,0.647881
1629795350539,0.01342,-0.744871,0.650565
1629795350549,0.011285,-0.742248,0.651297
1629795350559,0.011529,-0.7412719999999999,0.650321
1629795350568,0.012139,-0.7418819999999999,0.651358
1629795350578,0.011895,-0.742004,0.65209
1629795350587,0.011651,-0.741638,0.655018
1629795350597,0.012993,-0.740845,0.65392
1629795350607,0.013481,-0.7391369999999999,0.652761
1629795350616,0.012565999999999999,-0.739564,0.650321
1629795350626,0.011041,-0.738649,0.648552
1629795350635,0.009333,-0.738283,0.649528
1629795350645,0.009637999999999999,-0.737795,0.650382
1629795350655,0.00976,-0.736758,0.649833
1629795350664,0.011895,-0.737551,0.653066
1629795350674,0.013725,-0.739015,0.654652
1629795350683,0.011956,-0.7370019999999999,0.653798
1629795350693,0.010735999999999999,-0.735904,0.653249
1629795350703,0.010735999999999999,-0.738466,0.653066
1629795350712,0.010919,-0.738893,0.652456
1629795350722,0.010003999999999999,-0.739015,0.652517
1629795350731,0.010065,-0.739869,0.653493
1629795350741,0.009028,-0.739015,0.654591
1629795350751,0.009028,-0.737368,0.655201
1629795350760,0.009516,-0.737673,0.656421
1629795350770,0.007503,-0.7370019999999999,0.658922
1629795350779,0.0075639999999999995,-0.736514,0.659532
1629795350789,0.0070149999999999995,-0.736636,0.659593
1629795350799,0.006954,-0.737124,0.659166
1629795350808,0.007442,-0.7370019999999999,0.6584949999999999
1629795350818,0.005978,-0.735294,0.6600199999999999
1629795350827,0.0060999999999999995,-0.735904,0.660203
1629795350837,0.004758,-0.734989,0.661118
1629795350847,0.004392,-0.73505,0.661484
1629795350856,0.004697,-0.734928,0.661423
1629795350866,0.0060999999999999995,-0.735416,0.661911
1629795350875,0.005612,-0.734196,0.662704
1629795350885,0.005978,-0.732793,0.663863
1629795350895,0.005063,-0.731268,0.662948
1629795350904,0.0037819999999999998,-0.729133,0.6615449999999999
1629795350914,0.004758,-0.728035,0.661911
1629795350923,0.005246,-0.728706,0.661789
1629795350933,0.004758,-0.727791,0.661667
1629795350943,0.0055509999999999995,-0.727974,0.660752
1629795350952,0.0050019999999999995,-0.727974,0.662582
1629795350962,0.005063,-0.728096,0.662826
1629795350971,0.004941,-0.728096,0.664534
1629795350981,0.006039,-0.728279,0.663497
1629795350991,0.005978,-0.729133,0.6661199999999999
1629795351000,0.00488,-0.7290719999999999,0.664778
1629795351010,0.003294,-0.729926,0.663863
1629795351019,0.001464,-0.728584,0.664778
1629795351029,0.000915,-0.728828,0.6627649999999999
1629795351039,0.001586,-0.727913,0.664168
1629795351048,0.003355,-0.729194,0.6661199999999999
1629795351058,0.0028669999999999998,-0.729743,0.668011
1629795351067,0.0011589999999999999,-0.7305969999999999,0.668499
1629795351077,-0.00122,-0.728523,0.670573
1629795351087,-0.0008539999999999999,-0.724619,0.671793
1629795351096,-0.002074,-0.723643,0.670634
1629795351106,-0.002379,-0.721203,0.670329
1629795351115,-0.0006709999999999999,-0.721508,0.670451
1629795351125,-0.002013,-0.72102,0.671793
1629795351135,-0.002562,-0.720044,0.673257
1629795351144,-0.002196,-0.720898,0.672952
1629795351154,-0.001403,-0.721935,0.673257
1629795351163,-0.001281,-0.723277,0.673318
1629795351173,-0.0006709999999999999,-0.724253,0.673745
1629795351183,-0.0023179999999999997,-0.723826,0.67283
1629795351192,-0.002806,-0.722606,0.673257
1629795351202,-0.001647,-0.722484,0.671976
1629795351211,-6.1e-05,-0.720288,0.670146
1629795351221,-0.000122,-0.719495,0.670878
1629795351231,0.000549,-0.720654,0.671732
1629795351240,0.003294,-0.722118,0.672037
1629795351250,0.0028669999999999998,-0.722606,0.671976
1629795351259,0.003294,-0.724314,0.673135
1629795351269,0.004758,-0.726449,0.671061
1629795351279,0.004514,-0.7278519999999999,0.67039
1629795351288,0.0037819999999999998,-0.726266,0.669719
1629795351298,0.001769,-0.723582,0.668804
1629795351307,0.001464,-0.720837,0.667462
1629795351317,0.0013419999999999999,-0.720166,0.6673399999999999
1629795351327,0.0026839999999999998,-0.720776,0.666669
1629795351336,0.001281,-0.721447,0.6655099999999999
1629795351346,0.000244,-0.721874,0.667218
1629795351355,-0.001464,-0.721081,0.667157
1629795351365,-0.00042699999999999997,-0.722545,0.668621
1629795351375,-0.000488,-0.725656,0.671427
1629795351384,-0.00183,-0.726754,0.6673399999999999
1629795351394,-0.004575,-0.7269369999999999,0.669841
1629795351403,-0.007442,-0.7290719999999999,0.670634
1629795351413,-0.000793,-0.728096,0.666547
1629795351423,6.1e-05,-0.731146,0.6652049999999999
1629795351432,0.0011589999999999999,-0.73017,0.665693
1629795351442,-0.0013419999999999999,-0.728279,0.663619
1629795351451,-0.008539999999999999,-0.726815,0.663558
1629795351461,-0.005063,-0.729804,0.657824
1629795351471,-0.000976,-0.736209,0.6584949999999999
1629795351480,0.002013,-0.74115,0.648674
1629795351490,0.008662,-0.747128,0.64233
1629795351499,0.011407,-0.749934,0.646356
1629795351509,0.01098,-0.749568,0.648552
1629795351519,0.012383,-0.750056,0.648613
1629795351528,0.004209,-0.745786,0.648003
1629795351538,0.010187,-0.752069,0.629215
1629795351547,0.015982,-0.760792,0.624152
1629795351557,0.018422,-0.764269,0.622322
1629795351567,0.019154,-0.76616,0.622688
1629795351576,0.017811999999999998,-0.768356,0.622261
1629795351586,0.016958,-0.767807,0.624335
1629795351595,0.020191,-0.76921,0.620553
1629795351605,0.02135,-0.77226,0.61549
1629795351615,0.022692,-0.776286,0.611586
1629795351624,0.024827,-0.779458,0.610366
1629795351634,0.025986,-0.779946,0.608658
1629795351643,0.025863999999999998,-0.777689,0.605852
1629795351653,0.021533,-0.774212,0.604815
1629795351663,0.021777,-0.775554,0.605181
1629795351672,0.020984,-0.777811,0.605242
1629795351682,0.021289,-0.777994,0.604144
1629795351691,0.023119,-0.778604,0.60512
1629795351701,0.023241,-0.781471,0.606584
1629795351711,0.02623,-0.780556,0.6039
1629795351720,0.025071,-0.7774449999999999,0.604632
1629795351730,0.021411,-0.7750049999999999,0.602863
1629795351739,0.019947,-0.772687,0.599264
1629795351749,0.022143,-0.775249,0.600911
1629795351759,0.02318,-0.779702,0.598837
1629795351768,0.021106,-0.7777499999999999,0.597922
1629795351778,0.018239,-0.781166,0.598166
1629795351787,0.024522,-0.7893399999999999,0.595421
1629795351797,0.029219,-0.790987,0.594689
1629795351807,0.030683,-0.791353,0.596336
1629795351816,0.026168999999999998,-0.785558,0.594506
1629795351826,0.020313,-0.7838499999999999,0.597312
1629795351835,0.02013,-0.785436,0.596092
1629795351845,0.019459,-0.787327,0.59475
1629795351855,0.022265,-0.793244,0.59658
1629795351864,0.022875,-0.794647,0.592676
1629795351874,0.021838,-0.795074,0.591334
1629795351883,0.022265,-0.796965,0.591639
1629795351893,0.022814,-0.797514,0.592859
1629795351903,0.023667999999999998,-0.80032,0.591822
1629795351912,0.024217,-0.800747,0.590907
1629795351922,0.025071,-0.801906,0.587979
1629795351931,0.024949,-0.8030039999999999,0.587796
1629795351941,0.024156,-0.8033089999999999,0.589382
1629795351951,0.024399999999999998,-0.802943,0.587552
1629795351960,0.025071,-0.801601,0.587857
1629795351970,0.024339,-0.801235,0.58682
1629795351979,0.023851,-0.799222,0.585295
1629795351989,0.024644,-0.799466,0.584014
1629795351999,0.025559,-0.7991,0.581574
1629795352008,0.026413,-0.799161,0.580842
1629795352018,0.02867,-0.798795,0.581696
1629795352027,0.028487,-0.798368,0.581513
1629795352037,0.029158,-0.796843,0.579866
1629795352047,0.028914,-0.79544,0.579378
1629795352056,0.028121,-0.79544,0.577609
1629795352066,0.028791999999999998,-0.794647,0.576999
1629795352075,0.029646,-0.793488,0.577609
1629795352085,0.02989,-0.792512,0.577975
1629795352095,0.029646,-0.790011,0.577548
1629795352104,0.027816,-0.787266,0.579256
1629795352114,0.026595999999999998,-0.785558,0.579256
1629795352123,0.02623,-0.786534,0.580781
1629795352133,0.023972999999999998,-0.786839,0.582916
1629795352143,0.022814,-0.781044,0.581757
1629795352152,0.021167,-0.778543,0.585295
1629795352162,0.022265,-0.781593,0.588955
1629795352171,0.023485,-0.784704,0.588772
1629795352181,0.025193,-0.790621,0.591517
1629795352191,0.02562,-0.793488,0.5909679999999999
1629795352200,0.025986,-0.794769,0.5891379999999999
1629795352210,0.02684,-0.797392,0.58804
1629795352219,0.026900999999999998,-0.798551,0.586454
1629795352229,0.026657,-0.798917,0.585051
1629795352239,0.026595999999999998,-0.799771,0.5845629999999999
1629795352248,0.026413,-0.797941,0.58621
1629795352258,0.025986,-0.797148,0.5848679999999999
1629795352267,0.028609,-0.798368,0.582367
1629795352277,0.028853,-0.802455,0.579195
1629795352287,0.032513,-0.804041,0.57706
1629795352296,0.030255999999999998,-0.80215,0.575657
1629795352306,0.03172,-0.801723,0.575108
1629795352315,0.033367,-0.8042239999999999,0.574071
1629795352325,0.032818,-0.8033089999999999,0.57279
1629795352335,0.033245,-0.80459,0.5727289999999999
1629795352344,0.033123,-0.8048339999999999,0.57401
1629795352354,0.032390999999999996,-0.805078,0.57645
1629795352363,0.033489,-0.802943,0.577609
1629795352373,0.031842,-0.800747,0.577548
1629795352383,0.03172,-0.800137,0.575901
1629795352392,0.031781,-0.801113,0.573034
1629795352402,0.032818,-0.8023939999999999,0.569557
1629795352411,0.033428,-0.8054439999999999,0.568947
1629795352421,0.034404,-0.8081889999999999,0.572363
1629795352431,0.033854999999999996,-0.806847,0.567788
1629795352440,0.033611,-0.806725,0.565531
1629795352450,0.033733,-0.807945,0.564555
1629795352459,0.033854999999999996,-0.806237,0.56059
1629795352469,0.033549999999999996,-0.809165,0.559431
1629795352479,0.035136,-0.81313,0.555222
1629795352488,0.036844,-0.816546,0.551684
1629795352498,0.038064,-0.81801,0.546133
1629795352507,0.039101,-0.820206,0.546133
1629795352517,0.038674,-0.81984,0.546438
1629795352527,0.035807,-0.817461,0.544791
1629795352536,0.037087999999999996,-0.818986,0.545828
1629795352546,0.03782,-0.821548,0.545828
1629795352555,0.039345,-0.824476,0.5438149999999999
1629795352565,0.041358,-0.827587,0.541558
1629795352575,0.043432,-0.8316129999999999,0.539606
1629795352584,0.043737,-0.834541,0.536434
1629795352594,0.043859,-0.836859,0.53375
1629795352603,0.043188,-0.837591,0.531554
1629795352613,0.043798,-0.837774,0.532408
1629795352623,0.042334,-0.837286,0.532713
1629795352632,0.0427,-0.83753,0.532408
1629795352642,0.041968,-0.836737,0.53192
1629795352651,0.043066,-0.836432,0.531737
1629795352661,0.041968,-0.834541,0.532652
1629795352671,0.043371,-0.834419,0.53253
1629795352680,0.042029,-0.832589,0.532225
1629795352690,0.043066,-0.8331379999999999,0.53192
1629795352699,0.04331,-0.8331379999999999,0.531493
1629795352709,0.043798,-0.832894,0.531066
1629795352719,0.044042,-0.8334429999999999,0.531066
1629795352728,0.044469,-0.8319179999999999,0.531859
1629795352738,0.043188,-0.829966,0.533567
1629795352747,0.042943999999999996,-0.829051,0.535214
1629795352757,0.042456,-0.828319,0.536068
1629795352767,0.041602,-0.8273429999999999,0.536922
1629795352776,0.040992,-0.826001,0.535824
1629795352786,0.039833,-0.825635,0.536739
1629795352795,0.041541,-0.826367,0.537837
1629795352805,0.042212,-0.826489,0.538386
1629795352815,0.042761,-0.82594,0.539789
1629795352824,0.043127,-0.825269,0.538874
1629795352834,0.042883,-0.825269,0.538203
1629795352843,0.042943999999999996,-0.825086,0.538508
1629795352853,0.04209,-0.8236829999999999,0.538752
1629795352863,0.042151,-0.823744,0.540338
1629795352872,0.041297,-0.82289,0.5413749999999999
1629795352882,0.039955,-0.821914,0.541009
1629795352891,0.039772,-0.82228,0.541924
1629795352901,0.040077,-0.8235,0.5428999999999999
1629795352911,0.041174999999999996,-0.824049,0.542473
1629795352920,0.041358,-0.825086,0.544974
1629795352930,0.041174999999999996,-0.8235,0.5468649999999999
1629795352939,0.039894,-0.822707,0.549061
1629795352949,0.042578,-0.824049,0.549671
1629795352959,0.041479999999999996,-0.8236829999999999,0.550464
1629795352968,0.040809,-0.823195,0.549
1629795352978,0.038491,-0.821731,0.5453399999999999
1629795352987,0.037698,-0.820389,0.548756
1629795352997,0.037759,-0.820755,0.549549
1629795353007,0.037942,-0.821731,0.551989
1629795353016,0.039467,-0.821426,0.547841
1629795353026,0.040199,-0.8227679999999999,0.549244
1629795353035,0.04087,-0.821792,0.5477799999999999
1629795353045,0.041784999999999996,-0.821853,0.548146
1629795353055,0.041174999999999996,-0.821731,0.548268
1629795353064,0.040138,-0.820816,0.546926
1629795353074,0.039528,-0.819413,0.545889
1629795353083,0.039955,-0.818071,0.5453399999999999
1629795353093,0.040931,-0.818925,0.5465599999999999
1629795353103,0.043798,-0.819047,0.547292
1629795353112,0.04453,-0.818925,0.547292
1629795353122,0.044774,-0.819413,0.5471699999999999
1629795353131,0.044652,-0.818681,0.548024
1629795353141,0.043554,-0.817888,0.549305
1629795353151,0.042395,-0.817339,0.550098
1629795353160,0.041174999999999996,-0.816851,0.550708
1629795353170,0.040077,-0.815875,0.550403
1629795353179,0.038369,-0.8139839999999999,0.549671
1629795353189,0.039162,-0.813191,0.550952
1629795353199,0.038735,-0.81496,0.553209
1629795353208,0.039894,-0.81496,0.552904
1629795353218,0.040626,-0.814716,0.554124
1629795353227,0.040382,-0.812886,0.553575
1629795353237,0.038491,-0.811666,0.551867
1629795353247,0.03599,-0.810446,0.551806
1629795353256,0.034221,-0.8112389999999999,0.551867
1629795353266,0.034404,-0.8118489999999999,0.552111
1629795353275,0.035502,-0.812703,0.553392
1629795353285,0.036661,-0.8142889999999999,0.553392
1629795353295,0.035807,-0.816058,0.553758
1629795353304,0.036417,-0.818376,0.553514
1629795353314,0.036173,-0.820023,0.55449
1629795353323,0.034892,-0.821304,0.554246
1629795353333,0.034831,-0.820633,0.554063
1629795353343,0.033367,-0.819718,0.554978
1629795353352,0.033367,-0.820023,0.556747
1629795353362,0.032818,-0.81862,0.556686
1629795353371,0.031781,-0.817156,0.558089
1629795353381,0.03111,-0.8158139999999999,0.5605289999999999
1629795353391,0.030255999999999998,-0.8142889999999999,0.5611389999999999
1629795353400,0.028914,-0.813496,0.560651
1629795353410,0.028853,-0.813557,0.560956
1629795353419,0.029341,-0.81374,0.559553
1629795353429,0.030195,-0.814472,0.559004
1629795353439,0.030622,-0.81496,0.559675
1629795353448,0.031049,-0.8145939999999999,0.559736
1629795353458,0.031354,-0.8133739999999999,0.55937
1629795353467,0.030560999999999998,-0.81191,0.559248
1629795353477,0.02989,-0.811361,0.559797
1629795353487,0.029096999999999998,-0.81069,0.558882
1629795353496,0.027877,-0.812276,0.5620539999999999
1629795353506,0.028853,-0.8145939999999999,0.562115
1629795353515,0.028914,-0.814045,0.56059
1629795353525,0.029646,-0.812215,0.559797
1629795353535,0.029158,-0.811788,0.559675
1629795353544,0.029219,-0.8124589999999999,0.5608339999999999
1629795353554,0.030317,-0.810995,0.561383
1629795353563,0.0305,-0.809897,0.5612
1629795353573,0.029646,-0.808555,0.562176
1629795353583,0.02989,-0.807762,0.561322
1629795353592,0.029828999999999998,-0.807335,0.563396
1629795353602,0.028121,-0.805627,0.56425
1629795353611,0.027267,-0.804651,0.565165
1629795353621,0.027206,-0.8051389999999999,0.565592
1629795353631,0.027632999999999998,-0.805078,0.566202
1629795353640,0.027694,-0.806115,0.5681539999999999
1629795353650,0.028243,-0.8069689999999999,0.570472
1629795353659,0.027938,-0.805627,0.571631
1629795353669,0.028791999999999998,-0.806847,0.572546
1629795353679,0.029463,-0.805688,0.571143
1629795353688,0.026595999999999998,-0.805078,0.5705939999999999
1629795353698,0.025803,-0.803248,0.5708989999999999
1629795353707,0.024156,-0.8039189999999999,0.57096
1629795353717,0.024278,-0.804041,0.571326
1629795353727,0.024339,-0.804102,0.5721189999999999
1629795353736,0.025315,-0.804346,0.574742
1629795353746,0.025986,-0.8054439999999999,0.57584
1629795353755,0.026108,-0.803736,0.57645
1629795353765,0.025863999999999998,-0.803187,0.577121
1629795353775,0.025376,-0.802516,0.57767
1629795353784,0.022814,-0.8017839999999999,0.576511
1629795353794,0.022326,-0.801296,0.576694
1629795353803,0.023241,-0.802455,0.575596
1629795353813,0.022509,-0.801845,0.575169
1629795353823,0.022265,-0.802028,0.576816
1629795353832,0.02379,-0.8008689999999999,0.578402
1629795353842,0.023912,-0.800076,0.579744
1629795353851,0.024034,-0.79971,0.580537
1629795353861,0.023607,-0.798612,0.58194
1629795353871,0.023424,-0.798612,0.583343
1629795353880,0.023424,-0.79849,0.583282
1629795353890,0.022631,-0.796904,0.580964
1629795353899,0.022387,-0.795135,0.581513
1629795353909,0.023729,-0.794342,0.583038
1629795353919,0.024827,-0.79605,0.584319
1629795353928,0.024644,-0.795501,0.585844
1629795353938,0.025131999999999998,-0.795379,0.5863929999999999
1629795353947,0.024034,-0.7917799999999999,0.582916
1629795353957,0.022203999999999998,-0.789767,0.580598
1629795353967,0.020679,-0.7887299999999999,0.579134
1629795353976,0.021411,-0.789462,0.578646
1629795353986,0.022326,-0.791292,0.579256
1629795353995,0.024461,-0.793488,0.581757
1629795354005,0.026352,-0.794769,0.583099
1629795354015,0.026595999999999998,-0.793366,0.583404
1629795354024,0.02501,-0.79422,0.584685
1629795354034,0.025071,-0.793915,0.586759
1629795354043,0.023302,-0.791719,0.5866979999999999
1629795354053,0.020374,-0.789096,0.588162
1629795354063,0.020374,-0.7902549999999999,0.5888329999999999
1629795354072,0.021045,-0.790438,0.587796
1629795354082,0.020618,-0.790194,0.588894
1629795354091,0.019154,-0.7896449999999999,0.5903579999999999
1629795354101,0.019825,-0.788852,0.590724
1629795354111,0.020801,-0.790133,0.5927979999999999
1629795354120,0.020739999999999998,-0.790377,0.593591
1629795354130,0.021045,-0.790316,0.59353
1629795354139,0.020007999999999998,-0.789889,0.594445
1629795354149,0.018605,-0.790194,0.593469
1629795354159,0.018543999999999998,-0.789096,0.593347
1629795354168,0.019154,-0.791231,0.593042
1629795354178,0.019398,-0.793427,0.593225
1629795354187,0.020007999999999998,-0.793122,0.593957
1629795354197,0.02013,-0.790499,0.593652
1629795354207,0.018666,-0.789523,0.593469
1629795354216,0.018361,-0.789584,0.59414
1629795354226,0.016774999999999998,-0.787937,0.59353
1629795354235,0.016531,-0.787449,0.594384
1629795354245,0.01586,-0.787144,0.594384
1629795354255,0.015982,-0.787022,0.59536
1629795354264,0.016226,-0.7859849999999999,0.596092
1629795354274,0.016287,-0.7865949999999999,0.597434
1629795354283,0.016958,-0.787022,0.598471
1629795354293,0.016347999999999998,-0.786656,0.597922
1629795354303,0.014884,-0.784826,0.596702
1629795354312,0.013908,-0.783911,0.59719
1629795354322,0.013908,-0.783728,0.597922
1629795354331,0.013237,-0.782386,0.598654
1629795354341,0.013176,-0.7817149999999999,0.598288
1629795354351,0.011956,-0.781044,0.598044
1629795354360,0.011285,-0.779458,0.597373
1629795354370,0.009943,-0.778848,0.59658
1629795354379,0.009455,-0.780373,0.598776
1629795354389,0.010614,-0.780556,0.601765
1629795354399,0.011712,-0.781532,0.602863
1629795354408,0.01281,-0.783728,0.604998
1629795354418,0.014335,-0.783423,0.604449
1629795354427,0.012383,-0.782996,0.604083
1629795354437,0.008601,-0.781227,0.602985
1629795354447,0.007991,-0.780068,0.601521
1629795354456,0.00732,-0.780434,0.60146
1629795354466,0.0068319999999999995,-0.781166,0.602497
1629795354475,0.0073809999999999995,-0.781349,0.605364
1629795354485,0.006771,-0.780312,0.606218
1629795354495,0.0055509999999999995,-0.777323,0.605242
1629795354504,0.00549,-0.777994,0.606096
1629795354514,0.0060999999999999995,-0.7777499999999999,0.60695
1629795354523,0.0057339999999999995,-0.7771399999999999,0.607621
1629795354533,0.004575,-0.776774,0.607316
1629795354543,0.004758,-0.777506,0.608231
1629795354552,0.004941,-0.7789699999999999,0.608109
1629795354562,0.0042699999999999995,-0.778787,0.6095119999999999
1629795354571,0.003843,-0.777323,0.609329
1629795354581,0.003111,-0.777018,0.610244
1629795354591,0.0042699999999999995,-0.777079,0.612135
1629795354600,0.0030499999999999998,-0.775798,0.6122569999999999
1629795354610,0.002013,-0.7753099999999999,0.613233
1629795354619,0.002074,-0.775432,0.614148
1629795354629,0.002074,-0.775066,0.6131719999999999
1629795354639,0.0015249999999999999,-0.775127,0.612684
1629795354648,0.0015249999999999999,-0.774517,0.613721
1629795354658,0.0030499999999999998,-0.775188,0.616161
1629795354667,0.003965,-0.775798,0.618601
1629795354677,0.005246,-0.774761,0.61915
1629795354687,0.003904,-0.770979,0.616954
1629795354696,0.001952,-0.767929,0.614941
1629795354706,0.000244,-0.766892,0.613416
1629795354715,-0.00122,-0.766282,0.612379
1629795354725,-0.000366,-0.767502,0.6134769999999999
1629795354735,0.002013,-0.768844,0.61549
1629795354744,0.0030499999999999998,-0.768844,0.617015
1629795354754,0.002562,-0.769454,0.61793
1629795354763,0.003721,-0.768478,0.619028
1629795354773,0.0035989999999999998,-0.768478,0.620431
1629795354783,0.004148,-0.769088,0.621773
1629795354792,0.002745,-0.770186,0.622078
1629795354802,0.002013,-0.768844,0.62037
1629795354811,0.002379,-0.767563,0.619943
1629795354821,0.002074,-0.766404,0.621163
1629795354831,0.0015249999999999999,-0.7653059999999999,0.621346
1629795354840,0.002257,-0.7640859999999999,0.6214069999999999
1629795354850,0.002013,-0.764452,0.621712
1629795354859,0.002745,-0.764574,0.621834
1629795354869,0.0026839999999999998,-0.7646959999999999,0.622993
1629795354879,0.003721,-0.76494,0.623786
1629795354888,0.003904,-0.763964,0.623298
1629795354898,0.004392,-0.765184,0.622932
1629795354907,0.002623,-0.763598,0.623298
1629795354917,0.003355,-0.762683,0.623847
1629795354927,0.0030499999999999998,-0.765428,0.626653
1629795354936,0.004575,-0.766099,0.626592
1629795354946,0.005063,-0.766038,0.626348
1629795354955,0.0040869999999999995,-0.765367,0.626836
1629795354965,0.004941,-0.764452,0.626287
1629795354975,0.004514,-0.764269,0.626653
1629795354984,0.003904,-0.7631709999999999,0.627446
1629795354994,0.004758,-0.761585,0.627141
1629795355003,0.005246,-0.762073,0.626836
1629795355013,0.006588,-0.761829,0.627507
1629795355023,0.005673,-0.760304,0.626226
1629795355032,0.00488,-0.7604259999999999,0.625311
1629795355042,0.0059169999999999995,-0.762073,0.625433
1629795355051,0.0071979999999999995,-0.7625,0.626409
1629795355061,0.008296,-0.762683,0.626043
1629795355071,0.008296,-0.761463,0.627141
1629795355080,0.007625,-0.7616459999999999,0.62769
1629795355090,0.0073809999999999995,-0.760792,0.627934
1629795355099,0.007808,-0.759755,0.626409
1629795355109,0.010065,-0.760182,0.629276
1629795355119,0.010675,-0.760365,0.630984
1629795355128,0.009943,-0.76067,0.631533
1629795355138,0.010309,-0.760365,0.62891
1629795355147,0.011651,-0.760487,0.628788
1629795355157,0.010431,-0.76128,0.626714
1629795355167,0.009577,-0.760304,0.623847
1629795355176,0.010309,-0.7619509999999999,0.622383
1629795355186,0.011529,-0.7631709999999999,0.62342
1629795355195,0.012749,-0.76372,0.623603
1629795355205,0.013297999999999999,-0.762927,0.624945
1629795355215,0.01464,-0.763598,0.62586
1629795355224,0.014518,-0.762744,0.626287
1629795355234,0.014884,-0.7628659999999999,0.626165
1629795355243,0.015067,-0.761402,0.625738
1629795355253,0.014823,-0.76189,0.624884
1629795355263,0.013663999999999999,-0.760914,0.623054
1629795355272,0.013297999999999999,-0.761158,0.622505
1629795355282,0.012931999999999999,-0.760548,0.625067
1629795355291,0.01464,-0.7610359999999999,0.625738
1629795355301,0.014335,-0.761219,0.626226
1629795355311,0.01464,-0.760975,0.628666
1629795355320,0.013237,-0.760365,0.629154
1629795355330,0.012627,-0.759267,0.630252
1629795355339,0.012993,-0.760182,0.629276
1629795355349,0.012688,-0.760487,0.629947
1629795355359,0.012688,-0.762134,0.630252
1629795355368,0.012505,-0.761707,0.629337
1629795355378,0.014213,-0.762195,0.630374
1629795355387,0.015372,-0.762012,0.630496
1629795355397,0.016347999999999998,-0.763598,0.630496
1629795355407,0.016714,-0.763415,0.631228
1629795355416,0.014091,-0.761219,0.628056
1629795355426,0.012139,-0.758413,0.625311
1629795355435,0.011467999999999999,-0.757864,0.62464
1629795355445,0.010858,-0.75762,0.625738
1629795355455,0.012261,-0.758108,0.627324
1629795355464,0.013359,-0.759999,0.629093
1629795355474,0.015006,-0.761707,0.631594
1629795355483,0.014701,-0.76189,0.630069
1629795355493,0.012444,-0.761402,0.631167
1629795355503,0.011895,-0.761097,0.630374
1629795355512,0.012627,-0.761707,0.629642
1629795355522,0.011833999999999999,-0.761524,0.628666
1629795355531,0.012078,-0.759572,0.627629
1629795355541,0.010797,-0.758718,0.629276
1629795355551,0.011467999999999999,-0.757742,0.630252
1629795355560,0.01098,-0.757437,0.632082
1629795355570,0.010065,-0.756827,0.632265
1629795355579,0.010858,-0.756217,0.6329359999999999
1629795355589,0.010553,-0.755973,0.6329359999999999
1629795355599,0.010431,-0.756888,0.6323259999999999
1629795355608,0.010309,-0.757803,0.631472
1629795355618,0.010187,-0.75823,0.6317159999999999
1629795355627,0.009637999999999999,-0.75945,0.629398
1629795355637,0.011101999999999999,-0.758474,0.629459
1629795355647,0.011101999999999999,-0.757864,0.629337
1629795355656,0.010187,-0.757193,0.629276
1629795355666,0.011407,-0.757498,0.630435
1629795355675,0.011407,-0.75762,0.6329359999999999
1629795355685,0.010492,-0.7564609999999999,0.632509
1629795355695,0.010065,-0.756034,0.632692
1629795355704,0.010797,-0.7558509999999999,0.634034
1629795355714,0.010309,-0.756217,0.633973
1629795355723,0.010309,-0.7570709999999999,0.633912
1629795355733,0.010675,-0.7573759999999999,0.634644
1629795355743,0.010369999999999999,-0.7561559999999999,0.633302
1629795355752,0.010675,-0.7564,0.6338509999999999
1629795355762,0.00915,-0.75579,0.633912
1629795355771,0.009516,-0.756949,0.6353759999999999
1629795355781,0.009211,-0.756888,0.636169
1629795355791,0.008905999999999999,-0.756034,0.63501
1629795355800,0.008967,-0.7543259999999999,0.635559
1629795355810,0.006588,-0.754387,0.63501
1629795355819,0.008967,-0.756644,0.634339
1629795355829,0.010735999999999999,-0.75762,0.633363
1629795355839,0.012565999999999999,-0.759328,0.635498
1629795355848,0.011956,-0.75823,0.635254
1629795355858,0.012139,-0.7604259999999999,0.635803
1629795355867,0.012078,-0.759267,0.632387
1629795355877,0.011712,-0.759572,0.631594
1629795355887,0.010003999999999999,-0.7570709999999999,0.630496
1629795355896,0.010126,-0.756034,0.629886
1629795355906,0.01159,-0.757132,0.631594
1629795355915,0.013054,-0.759389,0.631167
1629795355925,0.012993,-0.759145,0.631472
1629795355935,0.014029999999999999,-0.759084,0.6320209999999999
1629795355944,0.014701,-0.761402,0.632143
1629795355954,0.014091,-0.759999,0.629337
1629795355963,0.012993,-0.758474,0.628483
1629795355973,0.014884,-0.758718,0.629093
1629795355983,0.01464,-0.758108,0.629764
1629795355992,0.013297999999999999,-0.7579859999999999,0.629215
1629795356002,0.012322,-0.756888,0.628971
1629795356011,0.011773,-0.75701,0.630313
1629795356021,0.011467999999999999,-0.755485,0.633119
1629795356031,0.012383,-0.7558509999999999,0.6344
1629795356040,0.011467999999999999,-0.755058,0.6350709999999999
1629795356050,0.010675,-0.755485,0.634339
1629795356059,0.011529,-0.7564,0.6344609999999999
1629795356069,0.011712,-0.756034,0.633363
1629795356079,0.012322,-0.757925,0.633973
1629795356088,0.011833999999999999,-0.758352,0.63379
1629795356098,0.011285,-0.758657,0.6332409999999999
1629795356107,0.012017,-0.7579859999999999,0.630862
1629795356117,0.011529,-0.757254,0.630618
1629795356127,0.013176,-0.758718,0.632082
1629795356136,0.013786,-0.760365,0.633302
1629795356146,0.014579,-0.760792,0.634217
1629795356155,0.013847,-0.758474,0.632204
1629795356165,0.01098,-0.757437,0.629276
1629795356175,0.010187,-0.7567659999999999,0.62952
1629795356184,0.011346,-0.756522,0.631472
1629795356194,0.011467999999999999,-0.756888,0.6341559999999999
1629795356203,0.010675,-0.756217,0.635315
1629795356213,0.011041,-0.7561559999999999,0.635254
1629795356223,0.011163,-0.756034,0.635803
1629795356232,0.008905999999999999,-0.754448,0.634949
1629795356242,0.008662,-0.7540209999999999,0.633973
1629795356251,0.007686,-0.754875,0.633302
1629795356261,0.007137,-0.7555459999999999,0.633302
1629795356271,0.009271999999999999,-0.7567659999999999,0.6323259999999999
1629795356280,0.010248,-0.7589009999999999,0.633424
1629795356290,0.010797,-0.759328,0.634644
1629795356299,0.012261,-0.759938,0.6347659999999999
1629795356309,0.011773,-0.759938,0.6344
1629795356319,0.011895,-0.759328,0.633729
1629795356328,0.012078,-0.759023,0.632814
1629795356338,0.011712,-0.757803,0.6326309999999999
1629795356347,0.010797,-0.756217,0.6326309999999999
1629795356357,0.010309,-0.7549359999999999,0.631655
1629795356367,0.010614,-0.754143,0.6332409999999999
1629795356376,0.010065,-0.753289,0.6332409999999999
1629795356386,0.010675,-0.7524959999999999,0.633912
1629795356395,0.010858,-0.753899,0.634705
1629795356405,0.01159,-0.754448,0.634827
1629795356415,0.011712,-0.75396,0.635864
1629795356424,0.011773,-0.754387,0.6372059999999999
1629795356434,0.011101999999999999,-0.754509,0.637267
1629795356443,0.011285,-0.7537159999999999,0.638304
1629795356453,0.013054,-0.754692,0.6375109999999999
1629795356463,0.012627,-0.754143,0.639524
1629795356472,0.012627,-0.753594,0.6387309999999999
1629795356482,0.012261,-0.751947,0.638975
1629795356491,0.012444,-0.751947,0.638548
1629795356501,0.010675,-0.750361,0.637633
1629795356511,0.010797,-0.749995,0.637267
1629795356520,0.012749,-0.750178,0.638304
1629795356530,0.012688,-0.7509709999999999,0.638975
1629795356539,0.011956,-0.751093,0.638365
1629795356549,0.013359,-0.752069,0.638304
1629795356559,0.013969,-0.75152,0.637084
1629795356568,0.015006,-0.7521909999999999,0.638853
1629795356578,0.016042999999999998,-0.754448,0.642452
1629795356587,0.016774999999999998,-0.754204,0.642574
1629795356597,0.015921,-0.754692,0.643672
1629795356607,0.015067,-0.752374,0.640988
1629795356616,0.013237,-0.747738,0.6393409999999999
1629795356626,0.011407,-0.746701,0.63867
1629795356635,0.01281,-0.748348,0.6381209999999999
1629795356645,0.011773,-0.747311,0.6387309999999999
1629795356655,0.013542,-0.748409,0.640622
1629795356664,0.014091,-0.74908,0.642269
1629795356674,0.015127999999999999,-0.749934,0.643489
1629795356683,0.015493999999999999,-0.750422,0.643062
1629795356693,0.016104,-0.750849,0.6417809999999999
1629795356703,0.014091,-0.750788,0.640439
1629795356712,0.01342,-0.749446,0.63928
1629795356722,0.013297999999999999,-0.7506659999999999,0.6384259999999999
1629795356731,0.014213,-0.7506659999999999,0.638975
1629795356741,0.012931999999999999,-0.749141,0.640317
1629795356751,0.012688,-0.748775,0.642879
1629795356760,0.013297999999999999,-0.74725,0.644099
1629795356770,0.013115,-0.746945,0.645014
1629795356779,0.013847,-0.746274,0.644648
1629795356789,0.012871,-0.746701,0.643672
1629795356799,0.011833999999999999,-0.747128,0.643184
1629795356808,0.011651,-0.747006,0.641964
1629795356818,0.012322,-0.748043,0.6417809999999999
1629795356827,0.013176,-0.749812,0.642452
1629795356837,0.013603,-0.750605,0.642025
1629795356847,0.012749,-0.75091,0.642452
1629795356856,0.012078,-0.749629,0.64172
1629795356866,0.014395999999999999,-0.750178,0.642269
1629795356875,0.014152,-0.752008,0.643428
1629795356885,0.015493999999999999,-0.750788,0.644465
1629795356895,0.014395999999999999,-0.748104,0.644343
1629795356904,0.011651,-0.745542,0.6414759999999999
1629795356914,0.008845,-0.743712,0.63867
1629795356923,0.008662,-0.744444,0.639463
1629795356933,0.010675,-0.746701,0.6405609999999999
1629795356943,0.011773,-0.747921,0.642635
1629795356952,0.011712,-0.748409,0.643672
1629795356962,0.012261,-0.749202,0.644465
1629795356971,0.013297999999999999,-0.750422,0.643123
1629795356981,0.013176,-0.751459,0.642452
1629795356991,0.012261,-0.750727,0.6417809999999999
1629795357000,0.011224,-0.750056,0.641049
1629795357010,0.011285,-0.749629,0.641293
1629795357019,0.011773,-0.74969,0.640622
1629795357029,0.012199999999999999,-0.749568,0.64172
1629795357039,0.011407,-0.750056,0.64233
1629795357048,0.011651,-0.748226,0.6420859999999999
1629795357058,0.010553,-0.74725,0.642574
1629795357067,0.010309,-0.747067,0.6423909999999999
1629795357077,0.010003999999999999,-0.746884,0.642452
1629795357087,0.010248,-0.748226,0.642208
1629795357096,0.011651,-0.749751,0.64294
1629795357106,0.010614,-0.7509709999999999,0.642147
1629795357115,0.010797,-0.7512759999999999,0.641354
1629795357125,0.010797,-0.752069,0.6402559999999999
1629795357135,0.01159,-0.752252,0.640317
1629795357144,0.011407,-0.7512759999999999,0.639768
1629795357154,0.01159,-0.751032,0.6411709999999999
1629795357163,0.010858,-0.750727,0.642635
1629795357173,0.010858,-0.749812,0.642635
1629795357183,0.010492,-0.74969,0.643123
1629795357192,0.010614,-0.749019,0.642635
1629795357202,0.010309,-0.748348,0.642025
1629795357211,0.010614,-0.748592,0.641659
1629795357221,0.011224,-0.748958,0.641049
1629795357231,0.011833999999999999,-0.74969,0.641049
1629795357240,0.012565999999999999,-0.750483,0.641537
1629795357250,0.011833999999999999,-0.749324,0.639768
1629795357259,0.010492,-0.748653,0.640439
1629795357269,0.011224,-0.749629,0.640317
1629795357279,0.012444,-0.750117,0.640683
1629795357288,0.011712,-0.751398,0.64233
1629795357298,0.011407,-0.749812,0.642757
1629795357307,0.011346,-0.74969,0.641415
1629795357317,0.011651,-0.748714,0.640073
1629795357327,0.012627,-0.74847,0.6402559999999999
1629795357336,0.014029999999999999,-0.749995,0.643123
1629795357346,0.014335,-0.751154,0.645075
1629795357355,0.014029999999999999,-0.751825,0.644953
1629795357365,0.013786,-0.75091,0.6457459999999999
1629795357375,0.013359,-0.747677,0.642269
1629795357384,0.011224,-0.745176,0.640134
1629795357394,0.009637999999999999,-0.744505,0.638853
1629795357403,0.010309,-0.745664,0.640134
1629795357413,0.012505,-0.747738,0.640744
1629795357423,0.012199999999999999,-0.74847,0.642208
1629795357432,0.012565999999999999,-0.749202,0.642147
1629795357442,0.013908,-0.751032,0.6420859999999999
1629795357451,0.014213,-0.751154,0.6414759999999999
1629795357461,0.013969,-0.75152,0.6405609999999999
1629795357471,0.012627,-0.7521909999999999,0.63867
1629795357480,0.011895,-0.751459,0.63806
1629795357490,0.011285,-0.751337,0.637755
1629795357499,0.011773,-0.7528009999999999,0.638792
1629795357509,0.011651,-0.752679,0.6405609999999999
1629795357519,0.011712,-0.751398,0.642269
1629795357528,0.01159,-0.750056,0.6426959999999999
1629795357538,0.010065,-0.749263,0.642452
1629795357547,0.009516,-0.74847,0.643184
1629795357557,0.008539999999999999,-0.74786,0.6426959999999999
1629795357567,0.009394,-0.74786,0.643794
1629795357576,0.008539999999999999,-0.747738,0.642757
1629795357586,0.008418,-0.748348,0.6433059999999999
1629795357595,0.00915,-0.749202,0.643855
1629795357605,0.008601,-0.749934,0.643672
1629795357615,0.009028,-0.749324,0.6420859999999999
1629795357624,0.009271999999999999,-0.748226,0.643672
1629795357634,0.009333,-0.748592,0.644343
1629795357643,0.010003999999999999,-0.749568,0.645563
1629795357653,0.009882,-0.749385,0.646356
1629795357663,0.007686,-0.746335,0.644465
1629795357672,0.007137,-0.746579,0.6414759999999999
1629795357682,0.007991,-0.74786,0.640988
1629795357691,0.008296,-0.7503,0.6411709999999999
1629795357701,0.008173999999999999,-0.749324,0.6414759999999999
1629795357711,0.0073809999999999995,-0.749202,0.640195
1629795357720,0.008113,-0.749751,0.6411709999999999
1629795357730,0.009271999999999999,-0.75091,0.641659
1629795357739,0.010003999999999999,-0.751825,0.6417809999999999
1629795357749,0.01098,-0.752862,0.641598
1629795357759,0.009821,-0.752862,0.640317
1629795357768,0.009271999999999999,-0.7537159999999999,0.640073
1629795357778,0.008113,-0.752252,0.639585
1629795357787,0.008357,-0.751703,0.6396459999999999
1629795357797,0.006954,-0.750361,0.640317
1629795357807,0.00732,-0.750544,0.640439
1629795357816,0.007808,-0.748897,0.642025
1629795357826,0.007869,-0.74847,0.6423909999999999
1629795357835,0.0062829999999999995,-0.748531,0.64355
1629795357845,0.007686,-0.748348,0.6426959999999999
1629795357855,0.007991,-0.748226,0.643062
1629795357864,0.007808,-0.747982,0.642269
1629795357874,0.009516,-0.748775,0.642574
1629795357883,0.010248,-0.749995,0.641903
1629795357893,0.009882,-0.750361,0.640622
1629795357903,0.010675,-0.750849,0.639707
1629795357912,0.010735999999999999,-0.75152,0.639524
1629795357922,0.010309,-0.75091,0.639585
1629795357931,0.010369999999999999,-0.751154,0.6402559999999999
1629795357941,0.010431,-0.750239,0.640683
1629795357951,0.010614,-0.750117,0.6408659999999999
1629795357960,0.010492,-0.750239,0.641049
1629795357970,0.010735999999999999,-0.750849,0.641354
1629795357979,0.011529,-0.7509709999999999,0.641659
1629795357989,0.01098,-0.75091,0.6420859999999999
1629795357999,0.011163,-0.750483,0.64233
1629795358008,0.011712,-0.75091,0.64172
1629795358018,0.011956,-0.751398,0.6408659999999999
1629795358027,0.012078,-0.750178,0.639524
1629795358037,0.011346,-0.749385,0.638304
1629795358047,0.010735999999999999,-0.748775,0.638243
1629795358056,0.011529,-0.749568,0.638853
1629795358066,0.011101999999999999,-0.750361,0.6402559999999999
1629795358075,0.010369999999999999,-0.7509709999999999,0.639402
1629795358085,0.010492,-0.7512759999999999,0.639829
1629795358095,0.012078,-0.750788,0.6399509999999999
1629795358104,0.012383,-0.750727,0.6405
1629795358114,0.012505,-0.7512759999999999,0.643245
1629795358123,0.012383,-0.75152,0.643123
1629795358133,0.012261,-0.752313,0.6433059999999999
1629795358143,0.012199999999999999,-0.751825,0.644038
1629795358152,0.011467999999999999,-0.748653,0.641598
1629795358162,0.008784,-0.746884,0.639463
1629795358171,0.007137,-0.746457,0.638487
1629795358181,0.008784,-0.747494,0.6384259999999999
1629795358191,0.010126,-0.749629,0.640378
1629795358200,0.012322,-0.751032,0.641232
1629795358210,0.012688,-0.752008,0.642757
1629795358219,0.013176,-0.75274,0.6436109999999999
1629795358229,0.012199999999999999,-0.752557,0.643184
1629795358239,0.012444,-0.7524959999999999,0.642208
1629795358248,0.010797,-0.7518859999999999,0.640073
1629795358258,0.00976,-0.751215,0.6390359999999999
1629795358267,0.009455,-0.7506659999999999,0.638975
1629795358277,0.010003999999999999,-0.750178,0.639097
1629795358287,0.010126,-0.750361,0.641293
1629795358296,0.010003999999999999,-0.749568,0.64111
1629795358306,0.011101999999999999,-0.749141,0.642269
1629795358315,0.011651,-0.748836,0.642818
1629795358325,0.011529,-0.748958,0.643428
1629795358335,0.010614,-0.747799,0.643367
1629795358344,0.010431,-0.748409,0.644038
1629795358354,0.010492,-0.747494,0.64294
1629795358363,0.011224,-0.747555,0.641964
1629795358373,0.011712,-0.748348,0.641659
1629795358383,0.011712,-0.750239,0.640988
1629795358392,0.011224,-0.74908,0.64111
1629795358402,0.012688,-0.7506659999999999,0.641293
1629795358411,0.013359,-0.751154,0.641598
1629795358421,0.013603,-0.751825,0.6426959999999999
1629795358431,0.013663999999999999,-0.750422,0.6430009999999999
1629795358440,0.011895,-0.748348,0.639219
1629795358450,0.010187,-0.747799,0.63806
1629795358459,0.011224,-0.749995,0.63806
1629795358469,0.012017,-0.7509709999999999,0.638304
1629795358479,0.012017,-0.751093,0.639707
1629795358488,0.01281,-0.750788,0.640012
1629795358498,0.013359,-0.751337,0.640988
1629795358507,0.013969,-0.751215,0.641415
1629795358517,0.012627,-0.750422,0.642513
1629795358527,0.01098,-0.750056,0.642513
1629795358536,0.011346,-0.749324,0.641354
1629795358546,0.012322,-0.749263,0.640805
1629795358555,0.011467999999999999,-0.749873,0.640805
1629795358565,0.01281,-0.751337,0.640683
1629795358575,0.012199999999999999,-0.750239,0.640988
1629795358584,0.012565999999999999,-0.7503,0.6414759999999999
1629795358594,0.012688,-0.749995,0.642452
1629795358603,0.011712,-0.750117,0.641964
1629795358613,0.012199999999999999,-0.749507,0.641537
1629795358623,0.01281,-0.749446,0.642025
1629795358632,0.012871,-0.750178,0.64172
1629795358642,0.013054,-0.750056,0.642025
1629795358651,0.012993,-0.750727,0.640988
1629795358661,0.012931999999999999,-0.750849,0.640317
1629795358671,0.014518,-0.751459,0.640195
1629795358680,0.013786,-0.7512759999999999,0.63989
1629795358690,0.013786,-0.7515809999999999,0.640012
1629795358699,0.013663999999999999,-0.75091,0.6414759999999999
1629795358709,0.013786,-0.750483,0.640988
1629795358719,0.012993,-0.749629,0.642269
1629795358728,0.013847,-0.749019,0.642513
1629795358738,0.013359,-0.748775,0.642818
1629795358747,0.013176,-0.748226,0.6439159999999999
1629795358757,0.013359,-0.748287,0.6445259999999999
1629795358767,0.012749,-0.748043,0.644282
1629795358776,0.013237,-0.747799,0.6433059999999999
1629795358786,0.014213,-0.747616,0.642818
1629795358795,0.014335,-0.748043,0.642635
1629795358805,0.015067,-0.748592,0.643062
1629795358815,0.016226,-0.748348,0.642513
1629795358824,0.015738,-0.748714,0.6414759999999999
1629795358834,0.015006,-0.747921,0.641598
1629795358843,0.014395999999999999,-0.747555,0.641598
1629795358853,0.014823,-0.747982,0.640927
1629795358863,0.015799,-0.748531,0.6417809999999999
1629795358872,0.01586,-0.749507,0.64233
1629795358882,0.014945,-0.749446,0.641903
1629795358891,0.015799,-0.748592,0.642208
1629795358901,0.014884,-0.74847,0.642574
1629795358911,0.014335,-0.747799,0.643123
1629795358920,0.015555,-0.749263,0.646661
1629795358930,0.015311,-0.747616,0.647576
1629795358939,0.01647,-0.748958,0.647759
1629795358949,0.016287,-0.74847,0.646966
1629795358959,0.015127999999999999,-0.746274,0.645319
1629795358968,0.013359,-0.745115,0.643062
1629795358978,0.012139,-0.7442,0.6420859999999999
1629795358987,0.01342,-0.745542,0.6423909999999999
1629795358997,0.01464,-0.746945,0.643733
1629795359007,0.014884,-0.74725,0.6448309999999999
1629795359016,0.015799,-0.746884,0.645624
1629795359026,0.016226,-0.748287,0.645563
1629795359035,0.016958,-0.747921,0.645075
1629795359045,0.016592,-0.748653,0.6433059999999999
1629795359055,0.015555,-0.748409,0.642208
1629795359064,0.015006,-0.747799,0.640378
1629795359074,0.015127999999999999,-0.748348,0.639463
1629795359083,0.016592,-0.748653,0.640683
1629795359093,0.017629,-0.749568,0.641415
1629795359103,0.017324,-0.749263,0.6439159999999999
1629795359112,0.017079999999999998,-0.748409,0.644465
1629795359122,0.016592,-0.74725,0.644099
1629795359131,0.015067,-0.746091,0.645685
1629795359141,0.014029999999999999,-0.745542,0.645685
1629795359151,0.014335,-0.744688,0.646478
1629795359160,0.014761999999999999,-0.74542,0.646661
1629795359170,0.016104,-0.746884,0.645807
1629795359179,0.015311,-0.746823,0.6457459999999999
1629795359189,0.014884,-0.747189,0.6445259999999999
1629795359199,0.01586,-0.746884,0.644587
1629795359208,0.016592,-0.748714,0.64599
1629795359218,0.017324,-0.748592,0.647271
1629795359227,0.018178,-0.747616,0.647149
1629795359237,0.016287,-0.745969,0.64355
1629795359247,0.014457,-0.744017,0.6408659999999999
1629795359256,0.01464,-0.744627,0.641293
1629795359266,0.016042999999999998,-0.745847,0.6411709999999999
1629795359275,0.016226,-0.745725,0.643184
1629795359285,0.016836,-0.745542,0.644099
1629795359295,0.017629,-0.74725,0.6451359999999999
1629795359304,0.017506999999999998,-0.747372,0.646661
1629795359314,0.016226,-0.74786,0.646356
1629795359323,0.015982,-0.747555,0.6451359999999999
1629795359333,0.015616,-0.747616,0.64416
1629795359343,0.015127999999999999,-0.747982,0.643794
1629795359352,0.015616,-0.747921,0.644709
1629795359362,0.015433,-0.748226,0.644892
1629795359371,0.015372,-0.747921,0.6451359999999999
1629795359381,0.015921,-0.746762,0.645319
1629795359391,0.015493999999999999,-0.746945,0.6451359999999999
1629795359400,0.016104,-0.745664,0.644709
1629795359410,0.015799,-0.746274,0.643855
1629795359419,0.016165,-0.74664,0.643794
1629795359429,0.01586,-0.746762,0.6436109999999999
1629795359439,0.016958,-0.747189,0.64294
1629795359448,0.017202,-0.747738,0.642818
1629795359458,0.016714,-0.747738,0.642635
1629795359467,0.016897,-0.748226,0.643123
1629795359477,0.016836,-0.748897,0.642635
1629795359487,0.016958,-0.748226,0.64111
1629795359496,0.015555,-0.750056,0.642574
1629795359506,0.015433,-0.749873,0.642574
1629795359515,0.015738,-0.749812,0.64294
1629795359525,0.016042999999999998,-0.749446,0.643245
1629795359535,0.015677,-0.750178,0.6433059999999999
1629795359544,0.016592,-0.750605,0.643977
1629795359554,0.016409,-0.750239,0.64294
1629795359563,0.016653,-0.748714,0.6436109999999999
1629795359573,0.01647,-0.748287,0.643428
1629795359583,0.016592,-0.748714,0.642513
1629795359592,0.016714,-0.747555,0.64294
1629795359602,0.015616,-0.748714,0.642635
1629795359611,0.017141,-0.749019,0.643672
1629795359621,0.015738,-0.746762,0.64477
1629795359631,0.015982,-0.747067,0.6439159999999999
1629795359640,0.017751,-0.748592,0.643855
1629795359650,0.01769,-0.748653,0.642757
1629795359659,0.016836,-0.748104,0.641598
1629795359669,0.017751,-0.748958,0.640744
1629795359679,0.016774999999999998,-0.749263,0.64111
1629795359688,0.017811999999999998,-0.749812,0.6408659999999999
1629795359698,0.018422,-0.749446,0.641354
1629795359707,0.017446,-0.750239,0.642025
1629795359717,0.017995,-0.750544,0.6420859999999999
1629795359727,0.018543999999999998,-0.750178,0.641354
1629795359736,0.01891,-0.751398,0.642757
1629795359746,0.019642,-0.751032,0.644465
1629795359755,0.019459,-0.751032,0.645075
1629795359765,0.020007999999999998,-0.75091,0.644587
1629795359775,0.018971,-0.748653,0.6426959999999999
1629795359784,0.0183,-0.747799,0.640378
1629795359794,0.016531,-0.746274,0.639097
1629795359803,0.016409,-0.745847,0.63989
1629795359813,0.018056,-0.747128,0.642208
1629795359823,0.018727,-0.748897,0.6430009999999999
1629795359832,0.019764,-0.748592,0.643367
1629795359842,0.020191,-0.749812,0.643672
1629795359851,0.020191,-0.74969,0.6430009999999999
1629795359861,0.020007999999999998,-0.749873,0.642513
1629795359871,0.020007999999999998,-0.750056,0.640195
1629795359880,0.019154,-0.750422,0.637755
1629795359890,0.019703,-0.749446,0.63684
1629795359899,0.020191,-0.7503,0.636718
1629795359909,0.019703,-0.75091,0.6375109999999999
1629795359919,0.020557,-0.750239,0.638792
1629795359928,0.021411,-0.749446,0.639707
1629795359938,0.022082,-0.750178,0.639707
1629795359947,0.02135,-0.750056,0.639219
1629795359957,0.021655,-0.7506659999999999,0.6384259999999999
1629795359967,0.021838,-0.751398,0.6390359999999999
1629795359976,0.020557,-0.751764,0.637877
1629795359986,0.020374,-0.7518859999999999,0.637267
1629795359995,0.01952,-0.752923,0.637389
1629795360005,0.019642,-0.75213,0.63562
1629795360015,0.019398,-0.751642,0.635498
1629795360024,0.019703,-0.753167,0.636352
1629795360034,0.021045,-0.752618,0.6384259999999999
1629795360043,0.021411,-0.7518859999999999,0.638914
1629795360053,0.019947,-0.751947,0.637328
1629795360063,0.019886,-0.753289,0.6353759999999999
1629795360072,0.018483,-0.752008,0.6335459999999999
1629795360082,0.018483,-0.754204,0.6329359999999999
1629795360091,0.020618,-0.756949,0.631289
1629795360101,0.021106,-0.75701,0.631228
1629795360111,0.021533,-0.7604259999999999,0.6335459999999999
1629795360120,0.022326,-0.76067,0.63257
1629795360130,0.023972999999999998,-0.76067,0.632509
1629795360139,0.024217,-0.7619509999999999,0.633058
1629795360149,0.025131999999999998,-0.7622559999999999,0.63074
1629795360159,0.025681,-0.763049,0.628544
1629795360168,0.025436999999999998,-0.764208,0.627202
1629795360178,0.027632999999999998,-0.765367,0.623908
1629795360187,0.02928,-0.765977,0.621834
1629795360197,0.029828999999999998,-0.767807,0.620614
1629795360207,0.030317,-0.7674409999999999,0.619211
1629795360216,0.030317,-0.767075,0.617808
1629795360226,0.031171,-0.767319,0.6177469999999999
1629795360235,0.032513,-0.76738,0.6171369999999999
1629795360245,0.033611,-0.768417,0.6180519999999999
1629795360255,0.033123,-0.768234,0.618174
1629795360264,0.03294,-0.769088,0.617381
1629795360274,0.033123,-0.770064,0.61671
1629795360283,0.033245,-0.771406,0.61549
1629795360293,0.033916,-0.771894,0.6140869999999999
1629795360303,0.035013999999999997,-0.772809,0.613416
1629795360312,0.033794,-0.773419,0.612623
1629795360322,0.034343,-0.773724,0.612928
1629795360331,0.035623999999999996,-0.7756149999999999,0.610915
1629795360341,0.034892,-0.776469,0.609878
1629795360351,0.035807,-0.775859,0.609939
1629795360360,0.035929,-0.7762249999999999,0.60939
1629795360370,0.0366,-0.776652,0.608048
1629795360379,0.035318999999999996,-0.777201,0.607621
1629795360389,0.036112,-0.777994,0.607255
1629795360399,0.036661,-0.778604,0.605059
1629795360408,0.036539,-0.778787,0.604754
1629795360418,0.036417,-0.779702,0.603839
1629795360427,0.036356,-0.780007,0.602436
1629795360437,0.037881,-0.7804949999999999,0.60207
1629795360447,0.038551999999999996,-0.7817149999999999,0.602558
1629795360456,0.039772,-0.7826299999999999,0.601704
1629795360466,0.03965,-0.7814099999999999,0.599752
1629795360475,0.03904,-0.781959,0.5978
1629795360485,0.039284,-0.781837,0.597251
1629795360495,0.039772,-0.7829349999999999,0.596397
1629795360504,0.040015999999999996,-0.7835449999999999,0.596336
1629795360514,0.039528,-0.784399,0.59597
1629795360523,0.039345,-0.785192,0.596336
1629795360533,0.039528,-0.785436,0.595421
1629795360543,0.040504,-0.785192,0.5952379999999999
1629795360552,0.042578,-0.788059,0.597373
1629795360562,0.042822,-0.787876,0.597617
1629795360571,0.042212,-0.788486,0.598288
1629795360581,0.04331,-0.789096,0.5978
1629795360591,0.044652,-0.788913,0.596702
1629795360600,0.043248999999999996,-0.788669,0.5955429999999999
1629795360610,0.041053,-0.787083,0.593042
1629795360619,0.04026,-0.787144,0.591761
1629795360629,0.040626,-0.788181,0.5917
1629795360639,0.041663,-0.789279,0.591944
1629795360648,0.042273,-0.790499,0.591761
1629795360658,0.043248999999999996,-0.791048,0.591151
1629795360667,0.045201,-0.791658,0.593042
1629795360677,0.044774,-0.790804,0.59353
1629795360687,0.04392,-0.789767,0.591029
1629795360696,0.043188,-0.790316,0.589382
1629795360706,0.042456,-0.790926,0.588894
1629795360715,0.04209,-0.790926,0.588162
1629795360725,0.043188,-0.7917799999999999,0.587186
1629795360735,0.043798,-0.792024,0.587674
1629795360744,0.043981,-0.791536,0.587491
1629795360754,0.043676,-0.7908649999999999,0.587979
1629795360763,0.044347,-0.7911699999999999,0.587979
1629795360773,0.044102999999999996,-0.792268,0.589321
1629795360783,0.04514,-0.792634,0.5885279999999999
1629795360792,0.046116,-0.792268,0.588345
1629795360802,0.044774,-0.792512,0.58743
1629795360811,0.04575,-0.792024,0.586454
1629795360821,0.045323,-0.791902,0.585234
1629795360831,0.046238,-0.7911699999999999,0.585539
1629795360840,0.04758,-0.792695,0.586881
1629795360850,0.047824,-0.793244,0.586576
1629795360859,0.049349,-0.792207,0.586332
1629795360869,0.048251,-0.7914749999999999,0.584685
1629795360879,0.046299,-0.790438,0.584075
1629795360888,0.045262,-0.7890349999999999,0.582367
1629795360898,0.045018,-0.790804,0.58316
1629795360907,0.045323,-0.7911699999999999,0.583648
1629795360917,0.046116,-0.793244,0.583648
1629795360927,0.04697,-0.794281,0.5854779999999999
1629795360936,0.045871999999999996,-0.793976,0.585905
1629795360946,0.045566999999999996,-0.794098,0.587369
1629795360955,0.045018,-0.79422,0.586454
1629795360965,0.045323,-0.795135,0.586881
1629795360975,0.045871999999999996,-0.796843,0.58804
1629795360984,0.045628,-0.796843,0.586454
1629795360994,0.044347,-0.797026,0.5851729999999999
1629795361003,0.044407999999999996,-0.796843,0.585295
1629795361013,0.044347,-0.795989,0.585295
1629795361023,0.043493,-0.795074,0.5851729999999999
1629795361032,0.044774,-0.794586,0.584746
1629795361042,0.044896,-0.793854,0.586637
1629795361051,0.04331,-0.79422,0.586454
1629795361061,0.042334,-0.792756,0.585722
1629795361071,0.042517,-0.793,0.5856
1629795361080,0.042395,-0.794098,0.584197
1629795361090,0.043248999999999996,-0.794708,0.584075
1629795361099,0.044347,-0.795623,0.58255
1629795361109,0.044957,-0.795196,0.582001
1629795361119,0.046176999999999996,-0.796721,0.581879
1629795361128,0.046116,-0.797392,0.581147
1629795361138,0.045566999999999996,-0.797697,0.581452
1629795361147,0.045506,-0.797087,0.581208
1629795361157,0.044225,-0.795745,0.582062
1629795361167,0.043615,-0.795196,0.582489
1629795361176,0.043005,-0.793488,0.5848679999999999
1629795361186,0.04331,-0.793366,0.585356
1629795361195,0.043188,-0.793854,0.585051
1629795361205,0.043188,-0.793549,0.58499
1629795361215,0.04392,-0.79422,0.585905
1629795361224,0.043432,-0.793244,0.58499
1629795361234,0.043188,-0.793488,0.5845629999999999
1629795361243,0.043676,-0.793732,0.583465
1629795361253,0.043676,-0.794342,0.5839529999999999
1629795361263,0.044347,-0.793427,0.584685
1629795361272,0.045262,-0.793488,0.584319
1629795361282,0.044042,-0.792573,0.5842579999999999
1629795361291,0.043066,-0.792268,0.584136
1629795361301,0.042943999999999996,-0.792695,0.584014
1629795361311,0.042883,-0.794037,0.583709
1629795361320,0.043676,-0.794769,0.583587
1629795361330,0.043005,-0.794891,0.5842579999999999
1629795361339,0.042883,-0.795013,0.585539
1629795361349,0.042395,-0.79483,0.5854779999999999
1629795361359,0.042273,-0.793671,0.585966
1629795361368,0.0427,-0.795745,0.5882229999999999
1629795361378,0.043615,-0.794281,0.58804
1629795361387,0.043798,-0.795074,0.590175
1629795361397,0.044164,-0.794891,0.58926
1629795361407,0.042517,-0.793061,0.586759
1629795361416,0.041784999999999996,-0.79239,0.585661
1629795361426,0.039955,-0.790804,0.583709
1629795361435,0.040443,-0.7917799999999999,0.583831
1629795361445,0.041358,-0.792207,0.584929
1629795361455,0.042638999999999996,-0.794037,0.586454
1629795361464,0.043188,-0.79422,0.587552
1629795361474,0.044102999999999996,-0.794708,0.587552
1629795361483,0.044591,-0.79544,0.586576
1629795361493,0.044347,-0.794281,0.586637
1629795361503,0.043981,-0.79361,0.5845629999999999
1629795361512,0.042517,-0.793122,0.581818
1629795361522,0.043005,-0.792878,0.58194
1629795361531,0.043493,-0.794708,0.582672
1629795361541,0.044591,-0.793732,0.584136
1629795361551,0.044042,-0.793549,0.5854779999999999
1629795361560,0.044286,-0.79361,0.5866979999999999
1629795361570,0.044164,-0.793122,0.587491
1629795361579,0.043127,-0.792024,0.587979
1629795361589,0.041968,-0.791414,0.587247
1629795361599,0.041114,-0.791109,0.586942
1629795361608,0.042273,-0.7920849999999999,0.586942
1629795361618,0.041784999999999996,-0.793122,0.5860879999999999
1629795361627,0.041541,-0.793549,0.584624
1629795361637,0.041114,-0.792878,0.58438
1629795361647,0.042212,-0.79361,0.58499
1629795361656,0.04392,-0.795867,0.5866979999999999
1629795361666,0.044957,-0.79483,0.587186
1629795361675,0.044102999999999996,-0.793305,0.586271
1629795361685,0.041846,-0.7917799999999999,0.584502
1629795361695,0.040138,-0.789828,0.581513
1629795361704,0.038918,-0.790316,0.580049
1629795361714,0.04026,-0.791292,0.581635
1629795361723,0.040992,-0.793549,0.583282
1629795361733,0.042395,-0.794952,0.585051
1629795361743,0.043066,-0.796721,0.586332
1629795361752,0.042943999999999996,-0.798063,0.58621
1629795361762,0.042822,-0.797575,0.586515
1629795361771,0.041358,-0.797697,0.5848679999999999
1629795361781,0.040382,-0.79605,0.584685
1629795361791,0.039406,-0.795318,0.58499
1629795361800,0.039162,-0.794647,0.5845629999999999
1629795361810,0.038308,-0.793915,0.5856
1629795361819,0.038308,-0.793854,0.586759
1629795361829,0.039710999999999996,-0.792695,0.587735
1629795361839,0.039162,-0.792512,0.5876129999999999
1629795361848,0.039223,-0.792512,0.588101
1629795361858,0.039223,-0.792329,0.587674
1629795361867,0.039467,-0.791902,0.587247
1629795361877,0.040138,-0.792756,0.587125
1629795361887,0.039894,-0.793366,0.585844
1629795361896,0.040320999999999996,-0.793732,0.584319
1629795361906,0.04087,-0.794586,0.584197
1629795361915,0.041358,-0.795074,0.583282
1629795361925,0.041602,-0.79605,0.58316
1629795361935,0.0427,-0.796111,0.58316
1629795361944,0.043248999999999996,-0.796904,0.582855
1629795361954,0.043676,-0.797697,0.582855
1629795361963,0.04331,-0.796843,0.582855
1629795361973,0.042761,-0.795501,0.582245
1629795361983,0.042456,-0.794586,0.582916
1629795361992,0.042943999999999996,-0.793732,0.583038
1629795362002,0.042822,-0.793671,0.5842579999999999
1629795362011,0.043981,-0.793732,0.585234
1629795362021,0.043615,-0.793854,0.586942
1629795362031,0.042517,-0.793549,0.587674
1629795362040,0.042517,-0.7920849999999999,0.587369
1629795362050,0.042151,-0.790743,0.587064
1629795362059,0.041602,-0.790438,0.587247
1629795362069,0.04331,-0.790194,0.587735
1629795362079,0.043127,-0.789828,0.58804
1629795362088,0.042943999999999996,-0.790194,0.5876129999999999
1629795362098,0.042456,-0.790011,0.587064
1629795362107,0.042822,-0.790316,0.587552
1629795362117,0.043066,-0.789889,0.5860879999999999
1629795362127,0.044225,-0.7911699999999999,0.585295
1629795362136,0.045323,-0.791597,0.587125
1629795362146,0.044652,-0.791719,0.587674
1629795362155,0.044347,-0.791658,0.5873079999999999
1629795362165,0.043615,-0.792146,0.5866979999999999
1629795362175,0.044407999999999996,-0.791414,0.586454
1629795362184,0.044774,-0.792756,0.588284
1629795362194,0.045689,-0.792634,0.5903579999999999
1629795362203,0.046055,-0.792024,0.591456
1629795362213,0.046116,-0.791963,0.5927979999999999
1629795362223,0.045445,-0.791536,0.592127
1629795362232,0.044347,-0.789828,0.588711
1629795362242,0.041663,-0.788303,0.587369
1629795362251,0.040748,-0.786778,0.586027
1629795362261,0.041968,-0.787998,0.586942
1629795362271,0.043127,-0.7896449999999999,0.5888329999999999
1629795362280,0.044286,-0.791353,0.591151
1629795362290,0.045018,-0.79239,0.591456
1629795362299,0.045262,-0.793061,0.591822
1629795362309,0.044042,-0.792756,0.5909679999999999
1629795362319,0.04392,-0.792817,0.588589
1629795362328,0.041846,-0.790926,0.586515
1629795362338,0.041541,-0.790316,0.5856
1629795362347,0.041784999999999996,-0.790133,0.58438
1629795362357,0.043127,-0.791109,0.584197
1629795362367,0.043127,-0.791719,0.585295
1629795362376,0.042578,-0.792512,0.58804
1629795362386,0.044042,-0.792817,0.5888329999999999
1629795362395,0.042943999999999996,-0.792756,0.589016
1629795362405,0.042334,-0.793366,0.589321
1629795362415,0.041907,-0.792024,0.589565
1629795362424,0.041602,-0.793061,0.589504
1629795362434,0.041053,-0.792207,0.589626
1629795362443,0.040138,-0.791536,0.589565
1629795362453,0.039833,-0.7911699999999999,0.588955
1629795362463,0.040931,-0.790133,0.589199
1629795362472,0.042334,-0.792878,0.5909679999999999
1629795362482,0.043188,-0.793305,0.591395
1629795362491,0.04331,-0.791109,0.591151
1629795362501,0.041419,-0.789157,0.5885279999999999
1629795362511,0.038186,-0.787144,0.5866979999999999
1629795362520,0.037087999999999996,-0.786778,0.58438
1629795362530,0.038369,-0.787754,0.584441
1629795362539,0.039284,-0.788852,0.587064
1629795362549,0.041968,-0.790987,0.588711
1629795362559,0.0427,-0.792329,0.59048
1629795362568,0.042395,-0.791719,0.5915779999999999
1629795362578,0.041236,-0.7911699999999999,0.590785
1629795362587,0.039528,-0.790621,0.589565
1629795362597,0.039772,-0.789584,0.588162
1629795362607,0.039589,-0.790072,0.5891379999999999
1629795362616,0.040199,-0.790316,0.5900529999999999
1629795362626,0.039955,-0.790804,0.590541
1629795362635,0.040626,-0.788669,0.590907
1629795362645,0.037759,-0.787937,0.592615
1629795362655,0.038491,-0.786839,0.5940179999999999
1629795362664,0.03904,-0.786961,0.5943229999999999
1629795362674,0.038246999999999996,-0.786534,0.594872
1629795362683,0.03782,-0.7859849999999999,0.594994
1629795362693,0.037271,-0.7859849999999999,0.5952379999999999
1629795362703,0.03782,-0.786656,0.595665
1629795362712,0.037759,-0.7868999999999999,0.595482
1629795362722,0.038186,-0.787998,0.595665
1629795362731,0.037027,-0.7875099999999999,0.5961529999999999
1629795362741,0.036051,-0.786778,0.596092
1629795362751,0.035623999999999996,-0.786717,0.596275
1629795362760,0.036234,-0.787571,0.596031
1629795362770,0.036234,-0.787449,0.596397
1629795362779,0.03538,-0.786473,0.596275
1629795362789,0.036356,-0.786961,0.596275
1629795362799,0.035013999999999997,-0.787022,0.5961529999999999
1629795362808,0.036234,-0.787571,0.596702
1629795362818,0.035258,-0.787022,0.597312
1629795362827,0.03538,-0.7865949999999999,0.597312
1629795362837,0.035136,-0.7875099999999999,0.598349
1629795362847,0.034282,-0.787022,0.598471
1629795362856,0.033489,-0.785741,0.598593
1629795362866,0.033062,-0.784399,0.598715
1629795362875,0.032635,-0.784094,0.599264
1629795362885,0.033672,-0.782264,0.600057
1629795362895,0.032818,-0.782813,0.599996
1629795362904,0.033184,-0.782081,0.600911
1629795362914,0.032879,-0.782203,0.600301
1629795362923,0.031232,-0.780373,0.599569
1629795362933,0.030927,-0.781959,0.600972
1629795362943,0.03111,-0.781349,0.601582
1629795362952,0.030927,-0.781044,0.601887
1629795362962,0.030683,-0.7798849999999999,0.602497
1629795362971,0.028731,-0.7801899999999999,0.602741
1629795362981,0.02867,-0.778604,0.602192
1629795362991,0.028791999999999998,-0.778238,0.603107
1629795363000,0.029951,-0.779519,0.605425
1629795363010,0.029951,-0.777689,0.606706
1629795363019,0.030134,-0.7780549999999999,0.608231
1629795363029,0.030012,-0.777811,0.608475
1629795363039,0.02867,-0.777689,0.607926
1629795363048,0.026718,-0.776469,0.605852
1629795363058,0.023667999999999998,-0.774883,0.605669
1629795363067,0.023667999999999998,-0.775432,0.606706
1629795363077,0.025376,-0.776347,0.608536
1629795363087,0.027023,-0.776896,0.611708
1629795363096,0.027389,-0.777018,0.6140869999999999
1629795363106,0.02623,-0.776469,0.616039
1629795363115,0.025559,-0.774517,0.617015
1629795363125,0.024461,-0.772321,0.617808
1629795363135,0.022143,-0.770552,0.616161
1629795363144,0.021106,-0.7677459999999999,0.614758
1629795363154,0.021106,-0.767197,0.615429
1629795363163,0.020862,-0.766953,0.61732
1629795363173,0.021838,-0.767197,0.617686
1629795363183,0.02135,-0.766648,0.619394
1629795363192,0.022387,-0.767319,0.621834
1629795363202,0.022753,-0.768112,0.622932
1629795363211,0.021655,-0.767624,0.622566
1629795363221,0.021838,-0.767075,0.622993
1629795363231,0.021777,-0.767624,0.624152
1629795363240,0.020496,-0.767563,0.624152
1629795363250,0.020069,-0.767197,0.624396
1629795363259,0.019275999999999998,-0.765672,0.624152
1629795363269,0.018849,-0.763842,0.623786
1629795363279,0.019032,-0.764025,0.626104
1629795363288,0.019825,-0.763537,0.627812
1629795363298,0.021167,-0.764147,0.630313
1629795363307,0.020923,-0.763232,0.63013
1629795363317,0.018239,-0.7607309999999999,0.62769
1629795363327,0.016592,-0.757864,0.626836
1629795363336,0.015067,-0.757132,0.626836
1629795363346,0.015433,-0.756217,0.628361
1629795363355,0.016042999999999998,-0.7567659999999999,0.628117
1629795363365,0.016836,-0.7558509999999999,0.631411
1629795363375,0.01769,-0.7561559999999999,0.6347659999999999
1629795363384,0.016042999999999998,-0.754753,0.635437
1629795363394,0.015067,-0.7540209999999999,0.6356809999999999
1629795363403,0.013054,-0.754143,0.635132
1629795363413,0.013054,-0.754204,0.635742
1629795363423,0.012322,-0.753899,0.637084
1629795363432,0.013725,-0.753838,0.636352
1629795363442,0.013237,-0.753899,0.6381209999999999
1629795363451,0.014518,-0.753533,0.638792
1629795363461,0.01342,-0.7521909999999999,0.640439
1629795363471,0.013481,-0.751703,0.641842
1629795363480,0.012139,-0.750544,0.642208
1629795363490,0.011224,-0.747738,0.6430009999999999
1629795363499,0.011041,-0.746579,0.644099
1629795363509,0.009821,-0.746152,0.644709
1629795363519,0.009882,-0.745908,0.645563
1629795363528,0.010431,-0.744749,0.645197
1629795363538,0.011407,-0.74359,0.645319
1629795363547,0.011895,-0.7431019999999999,0.644404
1629795363557,0.012078,-0.744322,0.644648
1629795363567,0.012993,-0.745176,0.641537
1629795363576,0.013542,-0.747616,0.644892
1629795363586,0.015311,-0.748592,0.644099
1629795363595,0.014945,-0.747128,0.6426959999999999
1629795363605,0.015982,-0.749446,0.6442209999999999
1629795363615,0.017263,-0.749385,0.646051
1629795363624,0.017629,-0.750422,0.6451359999999999
1629795363634,0.018178,-0.748836,0.647088
1629795363643,0.016226,-0.74725,0.647637
1629795363653,0.015555,-0.74542,0.647881
1629795363663,0.014701,-0.742553,0.649467
1629795363672,0.012627,-0.741394,0.651053
1629795363682,0.012322,-0.738405,0.65209
1629795363691,0.010431,-0.735538,0.653371
1629795363701,0.009637999999999999,-0.734623,0.655201
1629795363711,0.009271999999999999,-0.733464,0.657397
1629795363720,0.008905999999999999,-0.73444,0.658434
1629795363730,0.0073809999999999995,-0.733281,0.657702
1629795363739,0.0068319999999999995,-0.732854,0.657946
1629795363749,0.006893,-0.7327319999999999,0.658373
1629795363759,0.007137,-0.732305,0.658373
1629795363768,0.009637999999999999,-0.732854,0.660813
1629795363778,0.009943,-0.73444,0.662521
1629795363787,0.010369999999999999,-0.734928,0.6645949999999999
1629795363797,0.011224,-0.733769,0.664229
1629795363807,0.010735999999999999,-0.73383,0.663131
1629795363816,0.011163,-0.7345619999999999,0.6636799999999999
1629795363826,0.010492,-0.7336469999999999,0.660508
1629795363835,0.009028,-0.732793,0.658739
1629795363845,0.010369999999999999,-0.732976,0.657641
1629795363855,0.012139,-0.735111,0.657397
1629795363864,0.012993,-0.7351719999999999,0.658678
1629795363874,0.013359,-0.735538,0.659471
1629795363883,0.015493999999999999,-0.736819,0.660142
1629795363893,0.015982,-0.736209,0.659044
1629795363903,0.016347999999999998,-0.7351719999999999,0.658739
1629795363912,0.016958,-0.734074,0.657397
1629795363922,0.016774999999999998,-0.732305,0.657519
1629795363931,0.017568,-0.730414,0.657397
1629795363941,0.017446,-0.7293769999999999,0.656848
1629795363951,0.018056,-0.727974,0.657702
1629795363960,0.018178,-0.728706,0.657214
1629795363970,0.018178,-0.728645,0.656787
1629795363979,0.01891,-0.73017,0.6572749999999999
1629795363989,0.019032,-0.731146,0.657458
1629795363999,0.017995,-0.732488,0.6566649999999999
1629795364008,0.017568,-0.733708,0.656726
1629795364018,0.016226,-0.7351719999999999,0.656726
1629795364027,0.015982,-0.737185,0.659288
1629795364037,0.017811999999999998,-0.7397469999999999,0.6600199999999999
1629795364047,0.016226,-0.740235,0.659288
1629795364056,0.015799,-0.738405,0.659166
1629795364066,0.014213,-0.7385269999999999,0.6594099999999999
1629795364075,0.013603,-0.7381,0.659593
1629795364085,0.013663999999999999,-0.7379169999999999,0.6603249999999999
1629795364095,0.010919,-0.736453,0.656482
1629795364104,0.008235,-0.733403,0.654408
1629795364114,0.008905999999999999,-0.7339519999999999,0.6554449999999999
1629795364123,0.010735999999999999,-0.734989,0.657214
1629795364133,0.010858,-0.735904,0.658922
1629795364143,0.012444,-0.737246,0.660508
1629795364152,0.012565999999999999,-0.738405,0.6609349999999999
1629795364162,0.011956,-0.7381,0.658556
1629795364171,0.011285,-0.7366969999999999,0.656848
1629795364181,0.009637999999999999,-0.735538,0.654713
1629795364191,0.010614,-0.7348669999999999,0.653188
1629795364200,0.010797,-0.73566,0.65148
1629795364210,0.01159,-0.73627,0.650077
1629795364219,0.011956,-0.736758,0.651175
1629795364229,0.01281,-0.737124,0.651114
1629795364239,0.013908,-0.738954,0.651907
1629795364248,0.014518,-0.738405,0.651053
1629795364258,0.013908,-0.741211,0.650077
1629795364267,0.013908,-0.742431,0.64965
1629795364277,0.013725,-0.743712,0.648125
1629795364287,0.012688,-0.744322,0.646478
1629795364296,0.011956,-0.744688,0.646173
1629795364306,0.012931999999999999,-0.744505,0.645014
1629795364315,0.012688,-0.744993,0.645624
1629795364325,0.011895,-0.745115,0.646478
1629795364335,0.012078,-0.744932,0.647759
1629795364344,0.010553,-0.744993,0.647698
1629795364354,0.00976,-0.744383,0.64904
1629795364363,0.009516,-0.744688,0.649955
1629795364373,0.008662,-0.745969,0.650016
1629795364383,0.008418,-0.745908,0.648552
1629795364392,0.009028,-0.747006,0.648918
1629795364402,0.008173999999999999,-0.746457,0.648125
1629795364411,0.008905999999999999,-0.746152,0.648125
1629795364421,0.008662,-0.745786,0.648796
1629795364431,0.007686,-0.744871,0.648308
1629795364440,0.0073809999999999995,-0.74481,0.647515
1629795364450,0.0064659999999999995,-0.746396,0.646722
1629795364459,0.007076,-0.746335,0.646722
1629795364469,0.007503,-0.747616,0.647637
1629795364479,0.007686,-0.747677,0.64721
1629795364488,0.007076,-0.748592,0.6457459999999999
1629795364498,0.007076,-0.749385,0.6448309999999999
