timestamp,ax,ay,az
1629880896310,0.101199,0.533201,-0.855281
1629880896320,0.10187,0.533567,-0.856196
1629880896329,0.100711,0.533689,-0.855281
1629880896339,0.09943,0.533628,-0.8553419999999999
1629880896349,0.099186,0.533872,-0.85278
1629880896358,0.09943,0.533811,-0.851621
1629880896368,0.099735,0.534421,-0.852048
1629880896377,0.100467,0.534482,-0.852353
1629880896387,0.100406,0.5364949999999999,-0.8541219999999999
1629880896397,0.100589,0.537654,-0.854
1629880896406,0.099613,0.537776,-0.852841
1629880896416,0.100284,0.536068,-0.85278
1629880896425,0.10248,0.535031,-0.854549
1629880896435,0.103395,0.534177,-0.853268
1629880896445,0.102602,0.533445,-0.85217
1629880896454,0.103334,0.534055,-0.856013
1629880896464,0.103029,0.535153,-0.85522
1629880896473,0.101504,0.533201,-0.853268
1629880896483,0.099491,0.532591,-0.851438
1629880896493,0.09820999999999999,0.531676,-0.8516819999999999
1629880896502,0.099674,0.531615,-0.853695
1629880896512,0.100589,0.532042,-0.8535119999999999
1629880896521,0.102114,0.532347,-0.854854
1629880896531,0.103029,0.533323,-0.855098
1629880896541,0.104188,0.535092,-0.85339
1629880896550,0.10498099999999999,0.536556,-0.8510719999999999
1629880896560,0.106323,0.538142,-0.849669
1629880896569,0.105896,0.538752,-0.848083
1629880896579,0.105164,0.5386299999999999,-0.8474119999999999
1629880896589,0.104127,0.537227,-0.847229
1629880896598,0.10437099999999999,0.536007,-0.848876
1629880721619,-0.015372,0.42736599999999997,-0.916403
1629880721629,-0.015616,0.423157,-0.9228689999999999
1629880721639,-0.016347999999999998,0.418338,-0.9256139999999999
1629880721648,-0.016897,0.414861,-0.925187
1629880721658,-0.016836,0.41412899999999997,-0.9274439999999999
1629880721667,-0.01525,0.414983,-0.927932
1629880721677,-0.015738,0.416691,-0.9262239999999999
1629880721687,-0.015738,0.418948,-0.924272
1629880721696,-0.015311,0.41724,-0.924821
1629880721706,-0.014884,0.41656899999999997,-0.924577
1629880721715,-0.014457,0.414556,-0.926468
1629880721725,-0.013542,0.41321399999999997,-0.9268339999999999
1629880721735,-0.012871,0.410347,-0.927078
1629880721744,-0.012139,0.405833,-0.923662
1629880721754,-0.014029999999999999,0.40138,-0.92232
1629880721763,-0.013297999999999999,0.400709,-0.920246
1629880721773,-0.013786,0.403088,-0.9176839999999999
1629880721783,-0.016836,0.40394199999999997,-0.914146
1629880721792,-0.019764,0.406138,-0.9119499999999999
1629880721802,-0.020679,0.405589,-0.910974
1629880721811,-0.021655,0.402844,-0.909632
1629880721821,-0.022082,0.400648,-0.911462
1629880721831,-0.022631,0.400343,-0.912438
1629880721840,-0.028121,0.400099,-0.908778
1629880721850,-0.030012,0.400648,-0.911584
1629880721859,-0.029219,0.405528,-0.915122
1629880721869,-0.027877,0.40809,-0.9222589999999999
1629880721879,-0.028304,0.40760199999999996,-0.9216489999999999
1629880721888,-0.028182,0.410042,-0.919697
1629880721898,-0.029402,0.413702,-0.919392
1629880721907,-0.02867,0.418765,-0.919453
1629880721917,-0.028243,0.423462,-0.915305
1629880721927,-0.027206,0.427488,-0.915671
1629880721936,-0.025803,0.430294,-0.913902
1629880721946,-0.029707,0.429928,-0.909754
1629880721955,-0.035807,0.42828099999999997,-0.904508
1629880721965,-0.040443,0.425048,-0.898164
1629880721975,-0.041602,0.425292,-0.899323
1629880721984,-0.037454,0.42919599999999997,-0.905484
1629880721994,-0.031171,0.434503,-0.911706
1629880722003,-0.024827,0.442067,-0.913292
1629880722013,-0.017079999999999998,0.448594,-0.9185989999999999
1629880722023,-0.011346,0.45414499999999997,-0.919453
1629880722032,-0.010003999999999999,0.457134,-0.9185989999999999
1629880722042,-0.009516,0.457439,-0.919392
1629880722051,-0.015493999999999999,0.455548,-0.920185
1629880722061,-0.027145,0.44926499999999997,-0.914878
1629880722071,-0.037332,0.44060299999999997,-0.9179889999999999
1629880722080,-0.04392,0.435235,-0.925248
1629880722090,-0.044652,0.43041599999999997,-0.931287
1629880722099,-0.03904,0.429074,-0.936655
1629880722109,-0.035013999999999997,0.42889099999999997,-0.940254
1629880722119,-0.026535,0.43066,-0.9375089999999999
1629880722128,-0.016409,0.436455,-0.927505
1629880722138,-0.010126,0.44212799999999997,-0.9185989999999999
1629880722147,-0.001281,0.44712999999999997,-0.916708
1629880722157,0.00122,0.447374,-0.905301
1629880722167,-0.005612,0.44029799999999997,-0.896639
1629880722176,-0.009271999999999999,0.432734,-0.897066
1629880722186,-0.009333,0.42523099999999997,-0.899201
1629880722195,-0.010797,0.41656899999999997,-0.900909
1629880722205,-0.011956,0.411506,-0.9070699999999999
1629880722215,-0.010675,0.40699199999999996,-0.910913
1629880722224,-0.010248,0.403393,-0.910486
1629880722234,-0.008235,0.403454,-0.913414
1629880722243,-0.007503,0.40443,-0.904508
1629880722253,-0.013176,0.402356,-0.899689
1629880722263,-0.012199999999999999,0.401624,-0.904508
1629880722272,-0.01159,0.40485699999999997,-0.9110349999999999
1629880722282,-0.014457,0.405711,-0.913292
1629880722291,-0.018605,0.40577199999999997,-0.916464
1629880722301,-0.018422,0.406443,-0.920917
1629880722311,-0.017873,0.405894,-0.926102
1629880722320,-0.018117,0.404064,-0.93086
1629880722330,-0.018971,0.40272199999999997,-0.931775
1629880722339,-0.020923,0.400709,-0.9277489999999999
1629880722349,-0.025803,0.396744,-0.930067
1629880722359,-0.028121,0.394548,-0.928542
1629880722368,-0.033245,0.393328,-0.93208
1629880722378,-0.035563,0.391986,-0.937021
1629880722387,-0.037942,0.393633,-0.937631
1629880722397,-0.03965,0.395951,-0.938485
1629880722407,-0.040748,0.398208,-0.93635
1629880722416,-0.043859,0.396073,-0.9341539999999999
1629880722426,-0.044407999999999996,0.39314499999999997,-0.93513
1629880722435,-0.04331,0.390583,-0.936045
1629880722445,-0.043676,0.389668,-0.93635
1629880722455,-0.043371,0.389851,-0.939156
1629880722464,-0.043127,0.389912,-0.941962
1629880722474,-0.043005,0.390827,-0.940986
1629880722483,-0.043371,0.393389,-0.9378139999999999
1629880722493,-0.041297,0.395707,-0.935008
1629880722503,-0.039223,0.396256,-0.928725
1629880722512,-0.040138,0.394182,-0.9246989999999999
1629880722522,-0.037698,0.393572,-0.92476
1629880722531,-0.035623999999999996,0.392779,-0.9222589999999999
1629880722541,-0.036478,0.391132,-0.923845
1629880722551,-0.035013999999999997,0.392596,-0.9259189999999999
1629880722560,-0.03477,0.394731,-0.929335
1629880722570,-0.030683,0.399245,-0.933971
1629880722579,-0.028364999999999998,0.404064,-0.9317139999999999
1629880722589,-0.02623,0.40821199999999996,-0.930311
1629880722599,-0.024704999999999998,0.412482,-0.9246989999999999
1629880722608,-0.025742,0.41260399999999997,-0.921222
1629880722618,-0.025498,0.411506,-0.922198
1629880722627,-0.022935999999999998,0.41138399999999997,-0.9243939999999999
1629880722637,-0.022631,0.412116,-0.923967
1629880722647,-0.022082,0.410896,-0.923601
1629880722656,-0.020984,0.410774,-0.922686
1629880722666,-0.021655,0.410713,-0.921283
1629880722675,-0.021167,0.4087,-0.917867
1629880722685,-0.022082,0.405833,-0.913292
1629880722695,-0.022082,0.405589,-0.914268
1629880722704,-0.020801,0.408273,-0.9179889999999999
1629880722714,-0.019581,0.410042,-0.920612
1629880722723,-0.018117,0.41107899999999997,-0.9216489999999999
1629880722733,-0.016042999999999998,0.41290899999999997,-0.919697
1629880722743,-0.01647,0.41199399999999997,-0.914817
1629880722752,-0.018117,0.410896,-0.915
1629880722762,-0.018178,0.410652,-0.914207
1629880722771,-0.021411,0.409981,-0.914268
1629880722781,-0.021716,0.409188,-0.917257
1629880722791,-0.022082,0.410835,-0.9192089999999999
1629880722800,-0.02379,0.409737,-0.920185
1629880722810,-0.023119,0.410286,-0.920307
1629880722819,-0.020862,0.410286,-0.920612
1629880722829,-0.020801,0.409798,-0.918416
1629880722839,-0.02013,0.410408,-0.918477
1629880722848,-0.019032,0.409127,-0.918843
1629880722858,-0.022082,0.409737,-0.917623
1629880722867,-0.023241,0.409676,-0.915488
1629880722877,-0.02318,0.410896,-0.918721
1629880722887,-0.021716,0.41138399999999997,-0.919636
1629880722896,-0.020739999999999998,0.41260399999999997,-0.919758
1629880722906,-0.023058,0.41175,-0.918111
1629880722915,-0.024095,0.410774,-0.919636
1629880722925,-0.022448,0.411628,-0.922198
1629880722935,-0.021045,0.41358,-0.926773
1629880722944,-0.020618,0.414068,-0.927078
1629880722954,-0.01952,0.414556,-0.9271389999999999
1629880722963,-0.020679,0.413946,-0.926041
1629880722973,-0.022265,0.41541,-0.924577
1629880722983,-0.023119,0.415532,-0.925248
1629880722992,-0.021411,0.41541,-0.92476
1629880723002,-0.022692,0.414678,-0.923601
1629880723011,-0.022753,0.41358,-0.924516
1629880723021,-0.023912,0.41297,-0.923296
1629880723031,-0.025131999999999998,0.411811,-0.92537
1629880723040,-0.024583,0.411567,-0.926102
1629880723050,-0.025254,0.411506,-0.925797
1629880723059,-0.024034,0.41138399999999997,-0.927505
1629880723069,-0.022448,0.412848,-0.926773
1629880723079,-0.022753,0.414068,-0.924516
1629880723088,-0.022997,0.41321399999999997,-0.92171
1629880723098,-0.023729,0.412421,-0.921588
1629880723107,-0.023607,0.411811,-0.920551
1629880723117,-0.022753,0.410591,-0.920185
1629880723127,-0.021716,0.41138399999999997,-0.921161
1629880723136,-0.02196,0.41107899999999997,-0.921161
1629880723146,-0.021899,0.410896,-0.921161
1629880723155,-0.020801,0.411872,-0.920002
1629880723165,-0.02013,0.412848,-0.9198189999999999
1629880723175,-0.020252,0.411933,-0.916037
1629880723184,-0.020801,0.411506,-0.915427
1629880723194,-0.020557,0.411628,-0.914512
1629880723203,-0.021655,0.412665,-0.916525
1629880723213,-0.020496,0.414617,-0.917257
1629880723223,-0.019398,0.414312,-0.916037
1629880723232,-0.019154,0.41504399999999997,-0.917196
1629880723242,-0.016104,0.416203,-0.920978
1629880723251,-0.016042999999999998,0.41351899999999997,-0.91927
1629880723261,-0.019032,0.410835,-0.921405
1629880723271,-0.019154,0.41114,-0.924272
1629880723280,-0.020191,0.411323,-0.922808
1629880723290,-0.023972999999999998,0.41175,-0.917196
1629880723299,-0.025436999999999998,0.411628,-0.914817
1629880723309,-0.025436999999999998,0.41443399999999997,-0.915976
1629880723319,-0.021411,0.414678,-0.919453
1629880723328,-0.017751,0.41656899999999997,-0.924211
1629880723338,-0.016836,0.416386,-0.92537
1629880723347,-0.017019,0.416508,-0.92232
1629880723357,-0.019581,0.41473899999999997,-0.921893
1629880723367,-0.019215,0.414617,-0.9216489999999999
1629880723376,-0.020496,0.414007,-0.92049
1629880723386,-0.021716,0.41297,-0.920368
1629880723395,-0.021594,0.413885,-0.9195139999999999
1629880723405,-0.02196,0.41419,-0.920246
1629880723415,-0.021594,0.41541,-0.922076
1629880723424,-0.01952,0.416386,-0.9240889999999999
1629880723434,-0.017873,0.417362,-0.924455
1629880723443,-0.015677,0.418765,-0.9231739999999999
1629880723453,-0.016104,0.418643,-0.922625
1629880723463,-0.016347999999999998,0.417667,-0.9210389999999999
1629880723472,-0.017873,0.417606,-0.919575
1629880723482,-0.018361,0.417118,-0.921161
1629880723491,-0.017202,0.416996,-0.922198
1629880723501,-0.016714,0.41626399999999997,-0.922442
1629880723511,-0.018849,0.41443399999999997,-0.9211
1629880723520,-0.018666,0.41412899999999997,-0.920002
1629880723530,-0.017141,0.412726,-0.917379
1629880723539,-0.015555,0.411323,-0.919148
1629880723549,-0.014518,0.41138399999999997,-0.919758
1629880723559,-0.016287,0.410164,-0.91988
1629880723568,-0.016836,0.409371,-0.9182939999999999
1629880723578,-0.019703,0.409859,-0.916159
1629880723587,-0.020739999999999998,0.409798,-0.917257
1629880723597,-0.018849,0.411201,-0.919392
1629880723607,-0.018239,0.410713,-0.918721
1629880723616,-0.018788,0.41199399999999997,-0.91866
1629880723626,-0.017995,0.41260399999999997,-0.920856
1629880723635,-0.018117,0.41351899999999997,-0.921161
1629880723645,-0.01769,0.41565399999999997,-0.920856
1629880723655,-0.018117,0.41687399999999997,-0.919575
1629880723664,-0.019093,0.415471,-0.918477
1629880723674,-0.022143,0.412726,-0.915915
1629880723683,-0.026168999999999998,0.410591,-0.917257
1629880723693,-0.026900999999999998,0.410042,-0.921222
1629880723703,-0.024766,0.411445,-0.924882
1629880723712,-0.024888,0.412177,-0.927566
1629880723722,-0.024827,0.413641,-0.928298
1629880723731,-0.024278,0.413885,-0.924516
1629880723741,-0.025803,0.412787,-0.920612
1629880723751,-0.026962,0.411323,-0.920856
1629880723760,-0.026047,0.410896,-0.9225639999999999
1629880723770,-0.02562,0.409371,-0.924516
1629880723779,-0.026413,0.409554,-0.9250039999999999
1629880723789,-0.027816,0.410896,-0.924882
1629880723799,-0.026352,0.413092,-0.925431
1629880723808,-0.024461,0.414861,-0.924028
1629880723818,-0.021838,0.413885,-0.92354
1629880723827,-0.022692,0.413031,-0.922015
1629880723837,-0.024766,0.412665,-0.92049
1629880723847,-0.025681,0.41236,-0.91805
1629880723856,-0.025254,0.41199399999999997,-0.918782
1629880723866,-0.025498,0.41138399999999997,-0.91927
1629880723875,-0.024827,0.412665,-0.9207339999999999
1629880723885,-0.021899,0.414068,-0.920978
1629880723895,-0.021471999999999998,0.414922,-0.920795
1629880723904,-0.020313,0.414922,-0.920551
1629880723914,-0.019886,0.415776,-0.918172
1629880723923,-0.021167,0.415593,-0.917196
1629880723933,-0.021471999999999998,0.415837,-0.917379
1629880723943,-0.022082,0.413885,-0.917806
1629880723952,-0.023607,0.412665,-0.918355
1629880723962,-0.023424,0.412055,-0.920246
1629880723971,-0.023485,0.411201,-0.920063
1629880723981,-0.025376,0.409798,-0.917013
1629880723991,-0.025742,0.409737,-0.918965
1629880724000,-0.025376,0.410713,-0.91866
1629880724010,-0.026352,0.411628,-0.919392
1629880724019,-0.025863999999999998,0.411872,-0.920856
1629880724029,-0.026535,0.413092,-0.9211
1629880724039,-0.025986,0.415776,-0.922808
1629880724048,-0.026779,0.415166,-0.921405
1629880724058,-0.027694,0.41382399999999997,-0.92537
1629880724067,-0.024766,0.413702,-0.929457
1629880724077,-0.02684,0.41138399999999997,-0.928481
1629880724087,-0.030073,0.408639,-0.926773
1629880724096,-0.031232,0.406138,-0.926773
1629880724106,-0.031415,0.4026,-0.9237839999999999
1629880724115,-0.035013999999999997,0.398696,-0.915671
1629880724125,-0.03782,0.397842,-0.914634
1629880724135,-0.036234,0.39936699999999997,-0.917074
1629880724144,-0.034892,0.403393,-0.923662
1629880724154,-0.030987999999999998,0.406504,-0.927627
1629880724163,-0.027267,0.411506,-0.9301889999999999
1629880724173,-0.025131999999999998,0.413641,-0.932385
1629880724183,-0.023972999999999998,0.41534899999999997,-0.931287
1629880724192,-0.024827,0.41443399999999997,-0.9268339999999999
1629880724202,-0.026168999999999998,0.411506,-0.9237839999999999
1629880724211,-0.026718,0.40931,-0.923296
1629880724221,-0.028182,0.407968,-0.920795
1629880724231,-0.02928,0.405223,-0.919758
1629880724240,-0.028791999999999998,0.40546699999999997,-0.922686
1629880724250,-0.02684,0.405711,-0.924272
1629880724259,-0.026900999999999998,0.40638199999999997,-0.92415
1629880724269,-0.025193,0.407785,-0.923723
1629880724279,-0.025376,0.409066,-0.9237839999999999
1629880724288,-0.023607,0.410164,-0.923357
1629880724298,-0.023729,0.410896,-0.92354
1629880724307,-0.022082,0.410469,-0.923296
1629880724317,-0.021106,0.409798,-0.9219539999999999
1629880724327,-0.022082,0.409737,-0.919636
1629880724336,-0.024583,0.411262,-0.915671
1629880724346,-0.025376,0.412421,-0.91439
1629880724355,-0.025863999999999998,0.414922,-0.9131699999999999
1629880724365,-0.024278,0.415898,-0.914146
1629880724375,-0.022935999999999998,0.41626399999999997,-0.915488
1629880724384,-0.022387,0.41419,-0.919392
1629880724394,-0.021289,0.413885,-0.920368
1629880724403,-0.02379,0.414373,-0.921527
1629880724413,-0.025254,0.413275,-0.921161
1629880724423,-0.026962,0.413092,-0.9216489999999999
1629880724432,-0.026962,0.413458,-0.923418
1629880724442,-0.028548,0.41175,-0.923418
1629880724451,-0.029402,0.409737,-0.92415
1629880724461,-0.029585,0.406016,-0.924943
1629880724471,-0.029463,0.402966,-0.925797
1629880724480,-0.031903,0.40138,-0.9246989999999999
1629880724490,-0.031903,0.401441,-0.926041
1629880724499,-0.032452,0.401258,-0.925736
1629880724509,-0.031964,0.402905,-0.92537
1629880724519,-0.031781,0.404186,-0.925187
1629880724528,-0.03111,0.406016,-0.924577
1629880724538,-0.030134,0.40809,-0.924943
1629880724547,-0.029158,0.409127,-0.925431
1629880724557,-0.028791999999999998,0.41114,-0.925858
1629880724567,-0.029036,0.412238,-0.926285
1629880724576,-0.027389,0.414068,-0.9265289999999999
1629880724586,-0.029036,0.415166,-0.9216489999999999
1629880724595,-0.029646,0.41473899999999997,-0.917074
1629880724605,-0.028914,0.412421,-0.914573
1629880724615,-0.02745,0.409249,-0.915488
1629880724624,-0.027327999999999998,0.409188,-0.9195139999999999
1629880724634,-0.025925,0.41053,-0.921283
1629880724643,-0.026657,0.41138399999999997,-0.923906
1629880724653,-0.027327999999999998,0.410286,-0.926712
1629880724663,-0.028548,0.409432,-0.928237
1629880724672,-0.030073,0.408029,-0.92781
1629880724682,-0.030073,0.406504,-0.9268339999999999
1629880724691,-0.029646,0.404979,-0.926163
1629880724701,-0.029828999999999998,0.402844,-0.9277489999999999
1629880724711,-0.030866,0.40089199999999997,-0.92293
1629880724720,-0.030378,0.398208,-0.923418
1629880724730,-0.028853,0.395524,-0.925126
1629880724739,-0.028304,0.396744,-0.926102
1629880724749,-0.027572,0.397842,-0.925492
1629880724759,-0.027267,0.399306,-0.924272
1629880724768,-0.026900999999999998,0.400038,-0.92293
1629880724778,-0.025803,0.40211199999999997,-0.921588
1629880724787,-0.026352,0.401746,-0.920856
1629880724797,-0.026413,0.40119699999999997,-0.919758
1629880724807,-0.025803,0.401014,-0.920856
1629880724816,-0.024034,0.402356,-0.92354
1629880724826,-0.023972999999999998,0.404064,-0.922442
1629880724835,-0.023485,0.40485699999999997,-0.92293
1629880724845,-0.023485,0.40638199999999997,-0.922137
1629880724855,-0.024156,0.407541,-0.919453
1629880724864,-0.025559,0.408456,-0.919026
1629880724874,-0.023424,0.40809,-0.921161
1629880724883,-0.022935999999999998,0.409188,-0.923052
1629880724893,-0.023912,0.408639,-0.924211
1629880724903,-0.023912,0.410164,-0.925187
1629880724912,-0.023851,0.411445,-0.923418
1629880724922,-0.023546,0.410103,-0.9225639999999999
1629880724931,-0.021594,0.410469,-0.92598
1629880724941,-0.020923,0.409005,-0.926285
1629880724951,-0.02318,0.406809,-0.923662
1629880724960,-0.024217,0.404064,-0.922991
1629880724970,-0.025925,0.40211199999999997,-0.924638
1629880724979,-0.027572,0.401685,-0.921527
1629880724989,-0.030622,0.402966,-0.917867
1629880724999,-0.031964,0.404186,-0.917623
1629880725008,-0.030622,0.406626,-0.919758
1629880725018,-0.027816,0.408273,-0.922686
1629880725027,-0.026474,0.410286,-0.924333
1629880725037,-0.025436999999999998,0.411323,-0.925736
1629880725047,-0.02379,0.41297,-0.9256139999999999
1629880725056,-0.023546,0.411628,-0.9250039999999999
1629880725066,-0.025131999999999998,0.41229899999999997,-0.922137
1629880725075,-0.028364999999999998,0.411506,-0.919575
1629880725085,-0.030073,0.41053,-0.9189039999999999
1629880725095,-0.031659,0.40992,-0.9201239999999999
1629880725104,-0.031537,0.410286,-0.921283
1629880725114,-0.030744,0.410103,-0.9222589999999999
1629880725123,-0.029707,0.410347,-0.923418
1629880725133,-0.028914,0.410347,-0.92415
1629880725143,-0.02989,0.410103,-0.924333
1629880725152,-0.029951,0.408822,-0.92354
1629880725162,-0.031598,0.408578,-0.922625
1629880725171,-0.032390999999999996,0.407114,-0.920856
1629880725181,-0.032757,0.406138,-0.921466
1629880725191,-0.033306,0.406443,-0.9213439999999999
1629880725200,-0.034099,0.407419,-0.921405
1629880725210,-0.033733,0.4087,-0.922503
1629880725219,-0.03233,0.409615,-0.922076
1629880725229,-0.031659,0.41107899999999997,-0.92293
1629880725239,-0.030927,0.413458,-0.923296
1629880725248,-0.030134,0.413031,-0.924028
1629880725258,-0.0305,0.412787,-0.925248
1629880725267,-0.031964,0.41236,-0.921893
1629880725277,-0.034099,0.41114,-0.920978
1629880725287,-0.033672,0.409859,-0.920978
1629880725296,-0.033794,0.408944,-0.920917
1629880725306,-0.035197,0.408883,-0.920856
1629880725315,-0.035318999999999996,0.408761,-0.9211
1629880725325,-0.034831,0.409859,-0.921588
1629880725335,-0.033977,0.409798,-0.922625
1629880725344,-0.033854999999999996,0.409066,-0.923357
1629880725354,-0.034343,0.410408,-0.920978
1629880725363,-0.036112,0.410286,-0.92049
1629880725373,-0.035441,0.409676,-0.922442
1629880725383,-0.036112,0.410652,-0.921832
1629880725392,-0.036173,0.410042,-0.9225639999999999
1629880725402,-0.035746,0.409432,-0.922625
1629880725411,-0.036905,0.408151,-0.923601
1629880725421,-0.038064,0.407236,-0.9213439999999999
1629880725431,-0.039162,0.40577199999999997,-0.921832
1629880725440,-0.04026,0.40577199999999997,-0.921405
1629880725450,-0.038125,0.405589,-0.922015
1629880725459,-0.0366,0.40748,-0.922808
1629880725469,-0.037332,0.407785,-0.92293
1629880725479,-0.039223,0.40748,-0.92171
1629880725488,-0.039406,0.407968,-0.922015
1629880725498,-0.039833,0.408456,-0.922686
1629880725507,-0.041297,0.408273,-0.920856
1629880725517,-0.040382,0.409066,-0.922198
1629880725527,-0.040809,0.40931,-0.922137
1629880725536,-0.040443,0.407968,-0.922442
1629880725546,-0.041541,0.40760199999999996,-0.923845
1629880725555,-0.041479999999999996,0.407236,-0.922503
1629880725565,-0.041174999999999996,0.408639,-0.9216489999999999
1629880725575,-0.04087,0.409859,-0.9219539999999999
1629880725584,-0.040809,0.410347,-0.922076
1629880725594,-0.040809,0.409066,-0.92171
1629880725603,-0.040748,0.409859,-0.92171
1629880725613,-0.041114,0.409188,-0.922442
1629880725623,-0.042638999999999996,0.409493,-0.922503
1629880725632,-0.042822,0.408517,-0.924577
1629880725642,-0.043005,0.409249,-0.92476
1629880725651,-0.042334,0.40931,-0.924516
1629880725661,-0.042943999999999996,0.409859,-0.924577
1629880725671,-0.041784999999999996,0.41053,-0.9243939999999999
1629880725680,-0.04026,0.41107899999999997,-0.924943
1629880725690,-0.040748,0.410774,-0.924516
1629880725699,-0.039894,0.411811,-0.92415
1629880725709,-0.038857,0.411262,-0.925431
1629880725719,-0.037271,0.41138399999999997,-0.9250039999999999
1629880725728,-0.037515,0.411201,-0.921222
1629880725738,-0.038003,0.409005,-0.919941
1629880725747,-0.037881,0.407724,-0.920002
1629880725757,-0.03843,0.406626,-0.917806
1629880725767,-0.038369,0.40626,-0.917928
1629880725776,-0.036173,0.407236,-0.919087
1629880725786,-0.0366,0.40699199999999996,-0.919941
1629880725795,-0.037087999999999996,0.407358,-0.9204289999999999
1629880725805,-0.036356,0.407419,-0.9231739999999999
1629880725815,-0.038003,0.40699199999999996,-0.921832
1629880725824,-0.037515,0.406565,-0.9210389999999999
1629880725834,-0.035868,0.406016,-0.924638
1629880725843,-0.032879,0.406016,-0.92964
1629880725853,-0.031781,0.404918,-0.929823
1629880725863,-0.031171,0.405223,-0.929091
1629880725872,-0.02989,0.406809,-0.9292739999999999
1629880725882,-0.030134,0.407053,-0.926468
1629880725891,-0.031781,0.407114,-0.921588
1629880725901,-0.034282,0.406199,-0.918782
1629880725911,-0.034587,0.406016,-0.917562
1629880725920,-0.032025,0.40699199999999996,-0.919087
1629880725930,-0.029646,0.407663,-0.9204289999999999
1629880725939,-0.027877,0.4087,-0.920307
1629880725949,-0.025436999999999998,0.411018,-0.9211
1629880725959,-0.024522,0.41358,-0.921222
1629880725968,-0.024583,0.415715,-0.92049
1629880725978,-0.023119,0.417606,-0.92049
1629880725987,-0.023729,0.41931399999999996,-0.919026
1629880725997,-0.023667999999999998,0.419802,-0.91744
1629880726007,-0.023058,0.420107,-0.916708
1629880726016,-0.022265,0.419436,-0.917318
1629880726026,-0.021838,0.417118,-0.918538
1629880726035,-0.022753,0.41541,-0.91866
1629880726045,-0.024095,0.414373,-0.917562
1629880726055,-0.025742,0.411506,-0.918233
1629880726064,-0.026168999999999998,0.410286,-0.920002
1629880726074,-0.02623,0.40821199999999996,-0.920673
1629880726083,-0.026413,0.40748,-0.922381
1629880726093,-0.025681,0.407175,-0.923906
1629880726103,-0.024583,0.40760199999999996,-0.925065
1629880726112,-0.023424,0.407663,-0.923906
1629880726122,-0.024034,0.406565,-0.923662
1629880726131,-0.022631,0.40699199999999996,-0.925431
1629880726141,-0.021106,0.40699199999999996,-0.926285
1629880726151,-0.020557,0.404918,-0.925736
1629880726160,-0.022631,0.402356,-0.923601
1629880726170,-0.024583,0.399306,-0.92171
1629880726179,-0.028182,0.396378,-0.920917
1629880726189,-0.027084,0.397842,-0.920307
1629880726199,-0.022875,0.399916,-0.921466
1629880726208,-0.021471999999999998,0.40180699999999997,-0.922747
1629880726218,-0.019642,0.40443,-0.923723
1629880726227,-0.016897,0.407236,-0.924272
1629880726237,-0.015372,0.410896,-0.9253089999999999
1629880726247,-0.014335,0.413031,-0.92354
1629880726256,-0.014457,0.415227,-0.922137
1629880726266,-0.014945,0.416447,-0.919636
1629880726275,-0.015189,0.418643,-0.917745
1629880726285,-0.016531,0.41846,-0.9176839999999999
1629880726295,-0.017934,0.417972,-0.917135
1629880726304,-0.018239,0.417606,-0.918355
1629880726314,-0.017079999999999998,0.41785,-0.91988
1629880726323,-0.017079999999999998,0.41724,-0.921466
1629880726333,-0.016714,0.416813,-0.922747
1629880726343,-0.01647,0.41717899999999997,-0.923418
1629880726352,-0.015433,0.41687399999999997,-0.924577
1629880726362,-0.014945,0.417118,-0.923296
1629880726371,-0.015433,0.416996,-0.921588
1629880726381,-0.015921,0.417728,-0.920551
1629880726391,-0.017568,0.417606,-0.919758
1629880726400,-0.018666,0.41687399999999997,-0.917318
1629880726410,-0.018056,0.417118,-0.917013
1629880726419,-0.018605,0.415166,-0.91805
1629880726429,-0.01952,0.413397,-0.91744
1629880726439,-0.019825,0.412116,-0.918477
1629880726448,-0.020252,0.410408,-0.9189039999999999
1629880726458,-0.021594,0.407968,-0.918782
1629880726467,-0.022326,0.406504,-0.91988
1629880726477,-0.023546,0.404796,-0.918965
1629880726487,-0.025498,0.403759,-0.9198189999999999
1629880726496,-0.026168999999999998,0.402295,-0.9211
1629880726506,-0.026474,0.403698,-0.9207339999999999
1629880726515,-0.026535,0.40321,-0.9225639999999999
1629880726525,-0.02562,0.404186,-0.923723
1629880726535,-0.026047,0.404674,-0.92476
1629880726544,-0.026108,0.404735,-0.9256139999999999
1629880726554,-0.026779,0.40546699999999997,-0.926102
1629880726563,-0.026779,0.40607699999999997,-0.92537
1629880726573,-0.027023,0.406138,-0.925675
1629880726583,-0.027327999999999998,0.405711,-0.9256139999999999
1629880726592,-0.028059999999999998,0.406016,-0.925431
1629880726602,-0.028548,0.40638199999999997,-0.9246989999999999
1629880726611,-0.028914,0.406016,-0.92354
1629880726621,-0.028609,0.406504,-0.92293
1629880726631,-0.02928,0.40668699999999997,-0.923235
1629880726640,-0.02928,0.40699199999999996,-0.921466
1629880726650,-0.029768,0.408029,-0.9213439999999999
1629880726659,-0.030195,0.409188,-0.921405
1629880726669,-0.030195,0.409981,-0.922991
1629880726679,-0.029463,0.410103,-0.9213439999999999
1629880726688,-0.029036,0.409249,-0.921832
1629880726698,-0.028243,0.409371,-0.924272
1629880726707,-0.028243,0.409005,-0.9246989999999999
1629880726717,-0.028731,0.408395,-0.92415
1629880726727,-0.030255999999999998,0.408395,-0.9246989999999999
1629880726736,-0.028731,0.409798,-0.923601
1629880726746,-0.0305,0.410225,-0.921771
1629880726755,-0.032269,0.409981,-0.919392
1629880726765,-0.033245,0.408944,-0.917745
1629880726775,-0.032695999999999996,0.41053,-0.91805
1629880726784,-0.03233,0.411506,-0.9207339999999999
1629880726794,-0.02989,0.412543,-0.9216489999999999
1629880726803,-0.028059999999999998,0.413397,-0.922686
1629880726813,-0.027632999999999998,0.413336,-0.9231739999999999
1629880726823,-0.028914,0.413397,-0.9222589999999999
1629880726832,-0.02989,0.412848,-0.92049
1629880726842,-0.030987999999999998,0.413885,-0.919148
1629880726851,-0.031415,0.414312,-0.917806
1629880726861,-0.03172,0.414617,-0.91744
1629880726871,-0.031476,0.415532,-0.916952
1629880726880,-0.03233,0.4148,-0.917623
1629880726890,-0.031781,0.41504399999999997,-0.91866
1629880726899,-0.032757,0.414312,-0.9204289999999999
1629880726909,-0.033428,0.413458,-0.9213439999999999
1629880726919,-0.034221,0.411445,-0.922076
1629880726928,-0.035685,0.410225,-0.921588
1629880726938,-0.036478,0.410774,-0.921405
1629880726947,-0.036234,0.41138399999999997,-0.9211
1629880726957,-0.037515,0.412055,-0.920856
1629880726967,-0.037637,0.412482,-0.91927
1629880726976,-0.036966,0.41290899999999997,-0.919392
1629880726986,-0.036112,0.415776,-0.920368
1629880726995,-0.034892,0.41602,-0.922198
1629880727005,-0.033977,0.41504399999999997,-0.923357
1629880727015,-0.034953,0.414861,-0.9213439999999999
1629880727024,-0.036539,0.414861,-0.918416
1629880727034,-0.038246999999999996,0.414495,-0.917013
1629880727043,-0.038796,0.41504399999999997,-0.917074
1629880727053,-0.038186,0.41541,-0.917562
1629880727063,-0.037942,0.415532,-0.918538
1629880727072,-0.035868,0.41565399999999997,-0.9201239999999999
1629880727082,-0.035623999999999996,0.41473899999999997,-0.921588
1629880727091,-0.03599,0.41473899999999997,-0.922015
1629880727101,-0.036966,0.41443399999999997,-0.922686
1629880727111,-0.037027,0.414678,-0.922442
1629880727120,-0.037881,0.413946,-0.920307
1629880727130,-0.039345,0.41419,-0.920612
1629880727139,-0.041053,0.413092,-0.920063
1629880727149,-0.040138,0.412482,-0.920063
1629880727159,-0.039894,0.41236,-0.920795
1629880727168,-0.040443,0.412848,-0.920795
1629880727178,-0.041114,0.41236,-0.92049
1629880727187,-0.041479999999999996,0.411872,-0.920917
1629880727197,-0.04026,0.41382399999999997,-0.921222
1629880727207,-0.040748,0.41290899999999997,-0.920368
1629880727216,-0.040626,0.412482,-0.92049
1629880727226,-0.040992,0.412543,-0.9210389999999999
1629880727235,-0.041174999999999996,0.412482,-0.920185
1629880727245,-0.041358,0.41236,-0.921222
1629880727255,-0.041907,0.413458,-0.921466
1629880727264,-0.042212,0.413702,-0.920917
1629880727274,-0.043493,0.41290899999999997,-0.921222
1629880727283,-0.042517,0.412482,-0.9211
1629880727293,-0.043798,0.411567,-0.920917
1629880727303,-0.044102999999999996,0.410957,-0.920978
1629880727312,-0.044896,0.41053,-0.921161
1629880727322,-0.044591,0.408517,-0.922442
1629880727331,-0.044957,0.4087,-0.923906
1629880727341,-0.046726,0.40638199999999997,-0.923052
1629880727351,-0.045506,0.40485699999999997,-0.92415
1629880727360,-0.046604,0.40363699999999997,-0.92476
1629880727370,-0.048861,0.401868,-0.9243939999999999
1629880727379,-0.047763,0.401929,-0.925248
1629880727389,-0.048922,0.401319,-0.924272
1629880727399,-0.049776,0.401075,-0.924882
1629880727408,-0.048494999999999996,0.40058699999999997,-0.924211
1629880727418,-0.048312,0.400526,-0.925736
1629880727427,-0.048312,0.400404,-0.9250039999999999
1629880727437,-0.046665,0.399916,-0.924455
1629880727447,-0.045871999999999996,0.400953,-0.92354
1629880727456,-0.047153,0.401136,-0.922747
1629880727466,-0.045933,0.400831,-0.922198
1629880727475,-0.045445,0.39936699999999997,-0.9222589999999999
1629880727485,-0.046482,0.398879,-0.922198
1629880727495,-0.047458,0.399306,-0.9222589999999999
1629880727504,-0.047030999999999996,0.399184,-0.922991
1629880727514,-0.045994,0.39955,-0.923601
1629880727523,-0.044712999999999996,0.400465,-0.924333
1629880727533,-0.042212,0.40089199999999997,-0.9274439999999999
1629880727543,-0.040748,0.40119699999999997,-0.926651
1629880727552,-0.041724,0.400221,-0.926468
1629880727562,-0.041479999999999996,0.401624,-0.926346
1629880727571,-0.040809,0.40199,-0.9268339999999999
1629880727581,-0.041358,0.401746,-0.9250039999999999
1629880727591,-0.042761,0.400709,-0.922991
1629880727600,-0.044896,0.40028199999999997,-0.9219539999999999
1629880727610,-0.045384,0.398147,-0.921832
1629880727619,-0.045566999999999996,0.398147,-0.922747
1629880727629,-0.044225,0.397171,-0.9246989999999999
1629880727639,-0.044347,0.3965,-0.9259189999999999
1629880727648,-0.043737,0.3965,-0.92659
1629880727658,-0.042578,0.396561,-0.9265289999999999
1629880727667,-0.042822,0.397415,-0.927322
1629880727677,-0.044347,0.398452,-0.926956
1629880727687,-0.045871999999999996,0.398025,-0.925675
1629880727696,-0.046604,0.397537,-0.925675
1629880727706,-0.04758,0.396012,-0.925065
1629880727715,-0.048494999999999996,0.393816,-0.925858
1629880727725,-0.048617,0.393206,-0.9274439999999999
1629880727735,-0.049471,0.390888,-0.928176
1629880727744,-0.050813,0.38856999999999997,-0.930006
1629880727754,-0.05063,0.387411,-0.930372
1629880727763,-0.052765,0.384971,-0.931653
1629880727773,-0.054655999999999996,0.383202,-0.931226
1629880727783,-0.0549,0.382897,-0.931165
1629880727792,-0.055815,0.384056,-0.930982
1629880727802,-0.056059,0.384422,-0.929213
1629880727811,-0.056242,0.386191,-0.929762
1629880727821,-0.055449,0.388021,-0.930311
1629880727831,-0.054717,0.389424,-0.932446
1629880727840,-0.051911,0.388814,-0.932507
1629880727850,-0.052582,0.389058,-0.929823
1629880727859,-0.054229,0.38887499999999997,-0.927688
1629880727869,-0.056608,0.388692,-0.925858
1629880727879,-0.057157,0.388326,-0.9256139999999999
1629880727888,-0.057157,0.388692,-0.926956
1629880727898,-0.056059,0.38826499999999997,-0.929152
1629880727907,-0.054168,0.388326,-0.930006
1629880727917,-0.055083,0.389119,-0.9298839999999999
1629880727927,-0.054655999999999996,0.387777,-0.929701
1629880727936,-0.055144,0.387777,-0.9311039999999999
1629880727946,-0.055998,0.388509,-0.930921
1629880727955,-0.056974,0.387594,-0.930128
1629880727965,-0.05795,0.387899,-0.930616
1629880727975,-0.058498999999999995,0.38826499999999997,-0.9307989999999999
1629880727984,-0.05856,0.38674,-0.9298839999999999
1629880727994,-0.059536,0.385337,-0.930128
1629880728003,-0.061,0.384056,-0.93086
1629880728013,-0.061061,0.38234799999999997,-0.93208
1629880728023,-0.062403,0.382409,-0.931836
1629880728032,-0.06222,0.382165,-0.933117
1629880728042,-0.061854,0.382714,-0.932751
1629880728051,-0.061854,0.382531,-0.932568
1629880728061,-0.061183,0.383446,-0.932385
1629880728071,-0.062708,0.3843,-0.930433
1629880728080,-0.062952,0.385215,-0.93086
1629880728090,-0.063989,0.386313,-0.93025
1629880728099,-0.06417199999999999,0.387045,-0.929518
1629880728109,-0.063867,0.386862,-0.929335
1629880728119,-0.063928,0.388936,-0.930067
1629880728128,-0.063135,0.38856999999999997,-0.930006
1629880728138,-0.062952,0.388509,-0.929762
1629880728147,-0.064294,0.388326,-0.929335
1629880728157,-0.063257,0.388448,-0.930616
1629880728167,-0.06344,0.387533,-0.931592
1629880728176,-0.063867,0.387228,-0.931592
1629880728186,-0.063806,0.38765499999999997,-0.9323239999999999
1629880728195,-0.064416,0.386069,-0.930555
1629880728205,-0.064416,0.385154,-0.930555
1629880728215,-0.063806,0.38491,-0.9301889999999999
1629880728224,-0.06478199999999999,0.383385,-0.929945
1629880728234,-0.062403,0.384666,-0.932263
1629880728243,-0.058865,0.387716,-0.932141
1629880728253,-0.059047999999999996,0.386862,-0.93269
1629880728263,-0.059902,0.385032,-0.930677
1629880728272,-0.061,0.384178,-0.928725
1629880728282,-0.059657999999999996,0.384361,-0.930433
1629880728291,-0.058438,0.383324,-0.9289689999999999
1629880728301,-0.059719,0.38143299999999997,-0.92964
1629880728311,-0.059109,0.380762,-0.930982
1629880728320,-0.058926,0.38234799999999997,-0.930616
1629880728330,-0.057706,0.381372,-0.930921
1629880728339,-0.057096,0.379664,-0.933178
1629880728349,-0.055937,0.37881,-0.934581
1629880728359,-0.054534,0.377285,-0.934581
1629880728368,-0.054412,0.37838299999999997,-0.934215
1629880728378,-0.055083,0.37881,-0.93391
1629880728387,-0.053801999999999996,0.38064,-0.933605
1629880728397,-0.053801999999999996,0.382226,-0.9311039999999999
1629880728407,-0.054473,0.38308,-0.928786
1629880728416,-0.055265999999999996,0.383507,-0.9280539999999999
1629880728426,-0.053131,0.384117,-0.929152
1629880728435,-0.050996,0.385276,-0.9307989999999999
1629880728445,-0.049958999999999996,0.385154,-0.9326289999999999
1629880728455,-0.048312,0.385337,-0.9347639999999999
1629880728464,-0.047824,0.384544,-0.934886
1629880728474,-0.048068,0.38387299999999996,-0.934947
1629880728483,-0.048129,0.384239,-0.933788
1629880728493,-0.049898,0.384056,-0.93208
1629880728503,-0.051667,0.384056,-0.930006
1629880728512,-0.052337999999999996,0.383995,-0.929762
1629880728522,-0.051301,0.382592,-0.930555
1629880728531,-0.050508,0.382287,-0.931226
1629880728541,-0.050081,0.381006,-0.932263
1629880728551,-0.049654,0.380396,-0.9329339999999999
1629880728560,-0.049776,0.37929799999999997,-0.934276
1629880728570,-0.05002,0.3782,-0.9332389999999999
1629880728579,-0.049654,0.376004,-0.933666
1629880728589,-0.051606,0.375577,-0.932751
1629880728599,-0.051057,0.377102,-0.932385
1629880728608,-0.050752,0.378322,-0.93147
1629880728618,-0.050691,0.379847,-0.929701
1629880728627,-0.048861,0.381982,-0.930128
1629880728637,-0.046299,0.384971,-0.931592
1629880728647,-0.044591,0.386801,-0.934215
1629880728656,-0.043188,0.385947,-0.9335439999999999
1629880728666,-0.044591,0.386496,-0.930433
1629880728675,-0.046665,0.386496,-0.9280539999999999
1629880728685,-0.047519,0.387106,-0.925492
1629880728695,-0.047640999999999996,0.386862,-0.925858
1629880728704,-0.046543,0.386618,-0.927505
1629880728714,-0.04575,0.385886,-0.929518
1629880728723,-0.04514,0.386008,-0.930921
1629880728733,-0.044591,0.385032,-0.931897
1629880728743,-0.044712999999999996,0.385154,-0.933117
1629880728752,-0.046116,0.384544,-0.932873
1629880728762,-0.046482,0.385398,-0.931775
1629880728771,-0.047335999999999996,0.386191,-0.930982
1629880728781,-0.048617,0.386862,-0.930128
1629880728791,-0.049288,0.387716,-0.9298839999999999
1629880728800,-0.049288,0.387167,-0.93025
1629880728810,-0.048556,0.386557,-0.930006
1629880728819,-0.049532,0.386252,-0.931531
1629880728829,-0.049715,0.385886,-0.933056
1629880728839,-0.048739,0.385825,-0.9329339999999999
1629880728848,-0.050325,0.385581,-0.933178
1629880728858,-0.050813,0.385276,-0.932751
1629880728867,-0.051911,0.38552,-0.932263
1629880728877,-0.051911,0.385459,-0.931226
1629880728887,-0.052337999999999996,0.385581,-0.930372
1629880728896,-0.052704,0.385947,-0.930616
1629880728906,-0.052155,0.38613,-0.930433
1629880728915,-0.051484,0.386252,-0.9304939999999999
1629880728925,-0.050996,0.387228,-0.9301889999999999
1629880728935,-0.052277,0.386435,-0.9301889999999999
1629880728944,-0.052155,0.386618,-0.9295789999999999
1629880728954,-0.05124,0.386923,-0.930311
1629880728963,-0.05185,0.385764,-0.930006
1629880728973,-0.05063,0.385886,-0.930067
1629880728983,-0.051606,0.386008,-0.930433
1629880728992,-0.051484,0.384849,-0.931165
1629880729002,-0.052216,0.384117,-0.929823
1629880729011,-0.052643,0.383934,-0.930555
1629880729021,-0.052826,0.384605,-0.93147
1629880729031,-0.05307,0.383324,-0.931348
1629880729040,-0.05246,0.384483,-0.9323239999999999
1629880729050,-0.05185,0.383507,-0.93208
1629880729059,-0.052216,0.383812,-0.93025
1629880729069,-0.052032999999999996,0.384544,-0.93025
1629880729079,-0.051545,0.385398,-0.929762
1629880729088,-0.051118,0.386679,-0.9283589999999999
1629880729098,-0.050263999999999996,0.388448,-0.927871
1629880729107,-0.049715,0.389973,-0.929518
1629880729117,-0.050263999999999996,0.390522,-0.9301889999999999
1629880729127,-0.049288,0.390339,-0.930311
1629880729136,-0.048434,0.389973,-0.932751
1629880729146,-0.047153,0.389241,-0.934093
1629880729155,-0.047945999999999996,0.387411,-0.932995
1629880729165,-0.049349,0.386923,-0.932873
1629880729175,-0.05063,0.387777,-0.932568
1629880729184,-0.050996,0.388387,-0.931775
1629880729194,-0.050386,0.388631,-0.93086
1629880729203,-0.05124,0.388204,-0.928176
1629880729213,-0.051484,0.38887499999999997,-0.926712
1629880729223,-0.052216,0.388509,-0.9283589999999999
1629880729232,-0.05002,0.389668,-0.931958
1629880729242,-0.048799999999999996,0.388997,-0.933056
1629880729251,-0.047824,0.389668,-0.933483
1629880729261,-0.04758,0.38948499999999997,-0.932812
1629880729271,-0.047214,0.39070499999999997,-0.931836
1629880729280,-0.047275,0.391132,-0.930555
1629880729290,-0.04758,0.392047,-0.9265289999999999
1629880729299,-0.048434,0.39161999999999997,-0.926468
1629880729309,-0.047824,0.391437,-0.9259189999999999
1629880729319,-0.047335999999999996,0.390766,-0.925675
1629880729328,-0.046482,0.390278,-0.9262239999999999
1629880729338,-0.044225,0.388936,-0.927688
1629880729347,-0.044469,0.387838,-0.929213
1629880729357,-0.04514,0.386679,-0.9298839999999999
1629880729367,-0.045262,0.386313,-0.930311
1629880729376,-0.046421,0.386008,-0.929091
1629880729386,-0.046421,0.386862,-0.928603
1629880729395,-0.046726,0.387106,-0.928237
1629880729405,-0.046238,0.388631,-0.92842
1629880729415,-0.046055,0.389668,-0.927505
1629880729424,-0.044774,0.390278,-0.928481
1629880729434,-0.042029,0.39131499999999997,-0.9304939999999999
1629880729443,-0.041602,0.392596,-0.933178
1629880729453,-0.039710999999999996,0.390949,-0.935313
1629880729463,-0.041297,0.389973,-0.9333
1629880729472,-0.042943999999999996,0.389058,-0.930921
1629880729482,-0.045323,0.389424,-0.928237
1629880729491,-0.047335999999999996,0.388814,-0.926041
1629880729501,-0.046665,0.389546,-0.927505
1629880729511,-0.044591,0.390034,-0.92964
1629880729520,-0.043981,0.390888,-0.9311039999999999
1629880729530,-0.042638999999999996,0.39039999999999997,-0.931531
1629880729539,-0.040504,0.390156,-0.932446
1629880729549,-0.04026,0.390888,-0.932385
1629880729559,-0.04209,0.390888,-0.931775
1629880729568,-0.043432,0.390888,-0.930372
1629880729578,-0.043127,0.389241,-0.929823
1629880729587,-0.043432,0.38978999999999997,-0.929152
1629880729597,-0.043554,0.389668,-0.928542
1629880729607,-0.041968,0.389546,-0.928176
1629880729616,-0.040809,0.390583,-0.92842
1629880729626,-0.039223,0.390461,-0.928908
1629880729635,-0.038796,0.390827,-0.92964
1629880729645,-0.037881,0.390644,-0.9298839999999999
1629880729655,-0.038551999999999996,0.390644,-0.929762
1629880729664,-0.03904,0.391254,-0.928786
1629880729674,-0.039528,0.390888,-0.9283589999999999
1629880729683,-0.038735,0.390522,-0.9272
1629880729693,-0.039955,0.39009499999999997,-0.927322
1629880729703,-0.039955,0.389973,-0.927322
1629880729712,-0.039894,0.390278,-0.92842
1629880729722,-0.039528,0.39009499999999997,-0.9286639999999999
1629880729731,-0.039101,0.390583,-0.928603
1629880729741,-0.038796,0.390461,-0.929091
1629880729751,-0.038918,0.389851,-0.930006
1629880729760,-0.038613,0.38978999999999997,-0.9292739999999999
1629880729770,-0.038674,0.388997,-0.930067
1629880729779,-0.038186,0.388448,-0.930006
1629880729789,-0.038979,0.387594,-0.928542
1629880729799,-0.039833,0.38734999999999997,-0.926895
1629880729808,-0.040748,0.387228,-0.9271389999999999
1629880729818,-0.040077,0.387289,-0.92842
1629880729827,-0.040748,0.387716,-0.928115
1629880729837,-0.040565,0.38856999999999997,-0.929518
1629880729847,-0.042578,0.392108,-0.924028
1629880729856,-0.044286,0.394487,-0.922015
1629880729866,-0.041907,0.399062,-0.924882
1629880729875,-0.037881,0.40077,-0.929762
1629880729885,-0.034221,0.400831,-0.934825
1629880729895,-0.031598,0.40089199999999997,-0.93574
1629880729904,-0.031659,0.396927,-0.935313
1629880729914,-0.033062,0.39405999999999997,-0.934642
1629880729923,-0.035502,0.391986,-0.9333
1629880729933,-0.038308,0.388387,-0.930433
1629880729943,-0.038918,0.387106,-0.931531
1629880729952,-0.037698,0.386313,-0.930677
1629880729962,-0.038003,0.385276,-0.92964
1629880729971,-0.036782999999999996,0.385947,-0.9295789999999999
1629880729981,-0.033733,0.38887499999999997,-0.930677
1629880729991,-0.033062,0.39100999999999997,-0.9277489999999999
1629880730000,-0.033184,0.393694,-0.926041
1629880730010,-0.031842,0.397232,-0.925553
1629880730019,-0.031537,0.398391,-0.927993
1629880730029,-0.030560999999999998,0.398391,-0.928725
1629880730039,-0.030439,0.39772,-0.929152
1629880730048,-0.030255999999999998,0.397476,-0.929823
1629880730058,-0.031049,0.396683,-0.928115
1629880730067,-0.031293,0.396439,-0.9301889999999999
1629880730077,-0.030560999999999998,0.397659,-0.930433
1629880730087,-0.030987999999999998,0.397232,-0.929396
1629880730096,-0.030255999999999998,0.398147,-0.9295789999999999
1629880730106,-0.029341,0.39833,-0.9289689999999999
1629880730115,-0.027206,0.399245,-0.9272
1629880730125,-0.025863999999999998,0.399123,-0.9274439999999999
1629880730135,-0.025742,0.39711,-0.925248
1629880730144,-0.027877,0.39466999999999997,-0.92415
1629880730154,-0.027938,0.393511,-0.923357
1629880730163,-0.028304,0.392474,-0.924028
1629880730173,-0.028121,0.393206,-0.9268339999999999
1629880730183,-0.026413,0.394853,-0.927932
1629880730192,-0.024827,0.396195,-0.928908
1629880730202,-0.023363,0.397781,-0.928298
1629880730211,-0.02257,0.40028199999999997,-0.92781
1629880730221,-0.023058,0.401319,-0.925675
1629880730231,-0.022814,0.40089199999999997,-0.924943
1629880730240,-0.021228,0.39967199999999997,-0.926163
1629880730250,-0.020984,0.39997699999999997,-0.92781
1629880730259,-0.019459,0.399184,-0.929213
1629880730269,-0.020739999999999998,0.398635,-0.926346
1629880730279,-0.022509,0.39711,-0.922198
1629880730288,-0.02501,0.398147,-0.9207339999999999
1629880730298,-0.025742,0.399062,-0.9201239999999999
1629880730307,-0.022814,0.40028199999999997,-0.922808
1629880730317,-0.021471999999999998,0.401258,-0.927383
1629880730327,-0.019093,0.402051,-0.9304939999999999
1629880730336,-0.018056,0.402234,-0.93147
1629880730346,-0.018788,0.40199,-0.930616
1629880730355,-0.018849,0.402539,-0.930921
1629880730365,-0.019398,0.40241699999999997,-0.929518
1629880730375,-0.020618,0.401929,-0.927688
1629880730384,-0.021777,0.401075,-0.925736
1629880730394,-0.021471999999999998,0.40016,-0.9250039999999999
1629880730403,-0.023302,0.398635,-0.9243939999999999
1629880730413,-0.023485,0.397476,-0.925187
1629880730423,-0.021716,0.398147,-0.926285
1629880730432,-0.02196,0.398452,-0.926102
1629880730442,-0.021777,0.398696,-0.927566
1629880730451,-0.020862,0.399306,-0.928115
1629880730461,-0.020739999999999998,0.39967199999999997,-0.926956
1629880730471,-0.022082,0.399611,-0.926773
1629880730480,-0.020801,0.400404,-0.926346
1629880730490,-0.021289,0.401319,-0.9246989999999999
1629880730499,-0.021471999999999998,0.40028199999999997,-0.9246989999999999
1629880730509,-0.021289,0.40077,-0.925797
1629880730519,-0.020618,0.40150199999999997,-0.927383
1629880730528,-0.019764,0.402295,-0.925797
1629880730538,-0.019703,0.401685,-0.92659
1629880730547,-0.019154,0.40138,-0.926346
1629880730557,-0.020191,0.40016,-0.925431
1629880730567,-0.020739999999999998,0.39894,-0.9234789999999999
1629880730576,-0.021716,0.398147,-0.9250039999999999
1629880730586,-0.021716,0.397842,-0.92476
1629880730595,-0.022326,0.396744,-0.924516
1629880730605,-0.024095,0.396744,-0.924638
1629880730615,-0.023729,0.395829,-0.9243939999999999
1629880730624,-0.023546,0.395707,-0.926468
1629880730634,-0.023485,0.396378,-0.927383
1629880730643,-0.023119,0.396866,-0.9289689999999999
1629880730653,-0.023972999999999998,0.398025,-0.9289689999999999
1629880730663,-0.023302,0.397537,-0.9295789999999999
1629880730672,-0.024827,0.3965,-0.92842
1629880730682,-0.026474,0.396805,-0.926102
1629880730691,-0.02745,0.397232,-0.925431
1629880730701,-0.026900999999999998,0.396866,-0.926041
1629880730711,-0.02684,0.396622,-0.9280539999999999
1629880730720,-0.025071,0.396378,-0.931043
1629880730730,-0.024156,0.395646,-0.93025
1629880730739,-0.025742,0.394792,-0.9301889999999999
1629880730749,-0.025559,0.39527999999999996,-0.928237
1629880730759,-0.027084,0.39711,-0.926407
1629880730768,-0.027938,0.397476,-0.927322
1629880730778,-0.027084,0.397903,-0.927566
1629880730787,-0.028426,0.399245,-0.924211
1629880730797,-0.028914,0.399428,-0.924455
1629880730807,-0.026962,0.400038,-0.926956
1629880730816,-0.025742,0.40077,-0.9298839999999999
1629880730826,-0.024461,0.40058699999999997,-0.931287
1629880730835,-0.024399999999999998,0.400709,-0.930982
1629880730845,-0.025376,0.39997699999999997,-0.92842
1629880730855,-0.026352,0.400404,-0.925858
1629880730864,-0.028548,0.401868,-0.924516
1629880730874,-0.027145,0.40150199999999997,-0.925187
1629880730883,-0.027327999999999998,0.402966,-0.923662
1629880730893,-0.026047,0.40333199999999997,-0.92476
1629880730903,-0.02501,0.40363699999999997,-0.92598
1629880730912,-0.026108,0.401746,-0.925797
1629880730922,-0.025498,0.401563,-0.92537
1629880730931,-0.025315,0.40077,-0.92598
1629880730941,-0.026108,0.399428,-0.926041
1629880730951,-0.026352,0.399916,-0.924638
1629880730960,-0.02623,0.40089199999999997,-0.924516
1629880730970,-0.026352,0.401746,-0.9250039999999999
1629880730979,-0.026291,0.401624,-0.924333
1629880730989,-0.025376,0.402905,-0.925553
1629880730999,-0.025131999999999998,0.405101,-0.924943
1629880731008,-0.024339,0.40363699999999997,-0.9253089999999999
1629880731018,-0.022692,0.40516199999999997,-0.927932
1629880731027,-0.02257,0.404979,-0.929457
1629880731037,-0.022143,0.404186,-0.930006
1629880731047,-0.02196,0.40626,-0.926285
1629880731056,-0.02562,0.404613,-0.920368
1629880731066,-0.028791999999999998,0.402783,-0.918416
1629880731075,-0.028364999999999998,0.403088,-0.919026
1629880731085,-0.02684,0.402478,-0.919636
1629880731095,-0.024888,0.405406,-0.924516
1629880731104,-0.021594,0.406321,-0.9274439999999999
1629880731114,-0.020191,0.407053,-0.930006
1629880731123,-0.021106,0.406931,-0.929152
1629880731133,-0.02257,0.407541,-0.927078
1629880731143,-0.02379,0.406504,-0.924028
1629880731152,-0.024949,0.407114,-0.922076
1629880731162,-0.024034,0.40699199999999996,-0.92171
1629880731171,-0.021777,0.409798,-0.923296
1629880731181,-0.020862,0.409554,-0.924821
1629880731191,-0.024644,0.406138,-0.923662
1629880731200,-0.02501,0.406565,-0.9243939999999999
1629880731210,-0.022326,0.40607699999999997,-0.9262239999999999
1629880731219,-0.022326,0.40565,-0.9243939999999999
1629880731229,-0.022326,0.404064,-0.925126
1629880731239,-0.023058,0.403515,-0.924577
1629880731248,-0.024399999999999998,0.40302699999999997,-0.923052
1629880731258,-0.024339,0.40333199999999997,-0.923296
1629880731267,-0.023972999999999998,0.40382,-0.922198
1629880731277,-0.024704999999999998,0.403576,-0.92232
1629880731287,-0.023424,0.405528,-0.92415
1629880731296,-0.022387,0.404979,-0.924882
1629880731306,-0.022448,0.40504,-0.9243939999999999
1629880731315,-0.022448,0.40546699999999997,-0.924333
1629880731325,-0.022814,0.405406,-0.924211
1629880731335,-0.02318,0.406565,-0.9253089999999999
1629880731344,-0.022814,0.40638199999999997,-0.9246989999999999
1629880731354,-0.022265,0.406321,-0.925675
1629880731363,-0.020801,0.407419,-0.925065
1629880731373,-0.020618,0.407968,-0.9246989999999999
1629880731383,-0.019032,0.407785,-0.923723
1629880731392,-0.02013,0.408456,-0.9222589999999999
1629880731402,-0.020496,0.407724,-0.920673
1629880731411,-0.020739999999999998,0.407358,-0.919636
1629880731421,-0.019947,0.408151,-0.9219539999999999
1629880731431,-0.019825,0.409188,-0.92293
1629880731440,-0.019886,0.407785,-0.922686
1629880731450,-0.020557,0.408578,-0.9222589999999999
1629880731459,-0.020557,0.411262,-0.922503
1629880731469,-0.018788,0.41229899999999997,-0.923662
1629880731479,-0.017629,0.410835,-0.9243939999999999
1629880731488,-0.017934,0.409981,-0.924577
1629880731498,-0.017263,0.408151,-0.9256139999999999
1629880731507,-0.018178,0.40699199999999996,-0.9240889999999999
1629880731517,-0.020679,0.405528,-0.921161
1629880731527,-0.022509,0.405345,-0.919941
1629880731536,-0.021106,0.406931,-0.922991
1629880731546,-0.01952,0.407968,-0.924577
1629880731555,-0.020007999999999998,0.408883,-0.92049
1629880731565,-0.020007999999999998,0.409188,-0.918843
1629880731575,-0.018422,0.41168899999999997,-0.920551
1629880731584,-0.016714,0.413031,-0.922381
1629880731594,-0.015677,0.41382399999999997,-0.92354
1629880731603,-0.015799,0.413946,-0.922442
1629880731613,-0.017202,0.41297,-0.921771
1629880731623,-0.017385,0.411628,-0.920612
1629880731632,-0.017934,0.41138399999999997,-0.920795
1629880731642,-0.01891,0.41199399999999997,-0.91927
1629880731651,-0.020007999999999998,0.411933,-0.9192089999999999
1629880731661,-0.02013,0.411811,-0.9201239999999999
1629880731671,-0.019459,0.412116,-0.9211
1629880731680,-0.020069,0.41199399999999997,-0.920185
1629880731690,-0.019459,0.41168899999999997,-0.9201239999999999
1629880731699,-0.019398,0.411872,-0.9207339999999999
1629880731709,-0.019093,0.412665,-0.92293
1629880731719,-0.019947,0.412726,-0.923296
1629880731728,-0.019764,0.41199399999999997,-0.9228689999999999
1629880731738,-0.021167,0.413275,-0.922686
1629880731747,-0.018727,0.415532,-0.923052
1629880731757,-0.018788,0.415532,-0.922747
1629880731767,-0.020739999999999998,0.41473899999999997,-0.922381
1629880731776,-0.021228,0.413458,-0.921588
1629880731786,-0.020496,0.412177,-0.923235
1629880731795,-0.018849,0.411506,-0.925248
1629880731805,-0.01891,0.41138399999999997,-0.9243939999999999
1629880731815,-0.019215,0.410774,-0.924943
1629880731824,-0.020435,0.41260399999999997,-0.919697
1629880731834,-0.023546,0.411201,-0.915732
1629880731843,-0.024461,0.410652,-0.917257
1629880731853,-0.021838,0.411201,-0.917928
1629880731863,-0.019886,0.412177,-0.921832
1629880731872,-0.019886,0.412848,-0.924516
1629880731882,-0.017751,0.413153,-0.9256139999999999
1629880731891,-0.019154,0.41236,-0.923906
1629880731901,-0.019825,0.410896,-0.923235
1629880731911,-0.021167,0.41114,-0.922198
1629880731920,-0.022265,0.410408,-0.9204289999999999
1629880731930,-0.021594,0.410286,-0.919148
1629880731939,-0.022509,0.409981,-0.920307
1629880731949,-0.021594,0.410042,-0.920307
1629880731959,-0.022509,0.410591,-0.920002
1629880731968,-0.022265,0.410774,-0.922015
1629880731978,-0.021228,0.411323,-0.922747
1629880731987,-0.021533,0.411567,-0.923113
1629880731997,-0.020618,0.41199399999999997,-0.922625
1629880732007,-0.020984,0.411323,-0.921466
1629880732016,-0.021838,0.41107899999999997,-0.921283
1629880732026,-0.021716,0.411506,-0.92171
1629880732035,-0.019947,0.41229899999999997,-0.922198
1629880732045,-0.021716,0.41168899999999997,-0.921222
1629880732055,-0.02257,0.411262,-0.921161
1629880732064,-0.022935999999999998,0.411628,-0.92171
1629880732074,-0.023424,0.410713,-0.922381
1629880732083,-0.023546,0.409371,-0.922015
1629880732093,-0.023729,0.409005,-0.9240889999999999
1629880732103,-0.022875,0.408456,-0.925126
1629880732112,-0.023058,0.40821199999999996,-0.925126
1629880732122,-0.023667999999999998,0.407785,-0.9243939999999999
1629880732131,-0.023546,0.407419,-0.923052
1629880732141,-0.02257,0.407785,-0.922808
1629880732151,-0.02196,0.408883,-0.9225639999999999
1629880732160,-0.021716,0.409188,-0.920673
1629880732170,-0.022935999999999998,0.409066,-0.919392
1629880732179,-0.022326,0.409554,-0.919697
1629880732189,-0.021594,0.41053,-0.920795
1629880732199,-0.021167,0.410652,-0.923296
1629880732208,-0.021167,0.410591,-0.922808
1629880732218,-0.021289,0.410286,-0.923235
1629880732227,-0.020984,0.41199399999999997,-0.924333
1629880732237,-0.022265,0.412787,-0.92415
1629880732247,-0.021411,0.411872,-0.924577
1629880732256,-0.019459,0.412238,-0.9250039999999999
1629880732266,-0.019154,0.411262,-0.9246989999999999
1629880732275,-0.020069,0.40992,-0.925126
1629880732285,-0.022753,0.406138,-0.920673
1629880732295,-0.024888,0.405345,-0.9195139999999999
1629880732304,-0.023546,0.406199,-0.924577
1629880732314,-0.021471999999999998,0.405955,-0.9272
1629880732323,-0.022448,0.40668699999999997,-0.924211
1629880732333,-0.022753,0.407663,-0.921283
1629880732343,-0.020739999999999998,0.40748,-0.9228689999999999
1629880732352,-0.01891,0.409615,-0.924577
1629880732362,-0.017202,0.410896,-0.925492
1629880732371,-0.017629,0.411872,-0.925431
1629880732381,-0.017079999999999998,0.412116,-0.923906
1629880732391,-0.017629,0.410652,-0.922198
1629880732400,-0.017568,0.410469,-0.921527
1629880732410,-0.017934,0.410164,-0.92049
1629880732419,-0.019032,0.408883,-0.919575
1629880732429,-0.019032,0.408029,-0.9207339999999999
1629880732439,-0.018361,0.407968,-0.921527
1629880732448,-0.017568,0.406748,-0.922381
1629880732458,-0.017873,0.40577199999999997,-0.924028
1629880732467,-0.017811999999999998,0.404369,-0.923296
1629880732477,-0.019215,0.404186,-0.922198
1629880732487,-0.019459,0.403393,-0.923601
1629880732496,-0.019459,0.40333199999999997,-0.924821
1629880732506,-0.01952,0.403698,-0.924577
1629880732515,-0.019215,0.404796,-0.923906
1629880732525,-0.0183,0.40516199999999997,-0.923967
1629880732535,-0.016714,0.406809,-0.924882
1629880732544,-0.015616,0.40809,-0.925797
1629880732554,-0.016287,0.408395,-0.924455
1629880732563,-0.01586,0.408883,-0.923906
1629880732573,-0.014335,0.408273,-0.924333
1629880732583,-0.013176,0.40931,-0.925431
1629880732592,-0.012931999999999999,0.40687,-0.927566
1629880732602,-0.013847,0.40638199999999997,-0.925187
1629880732611,-0.017385,0.40485699999999997,-0.920551
1629880732621,-0.019825,0.402234,-0.91988
1629880732631,-0.020496,0.40333199999999997,-0.919697
1629880732640,-0.02013,0.402295,-0.9216489999999999
1629880732650,-0.017811999999999998,0.4026,-0.926407
1629880732659,-0.015372,0.40443,-0.928298
1629880732669,-0.014884,0.405284,-0.927932
1629880732679,-0.01464,0.40504,-0.928847
1629880732688,-0.014945,0.40455199999999997,-0.928176
1629880732698,-0.015493999999999999,0.40443,-0.927627
1629880732707,-0.016226,0.40546699999999997,-0.925492
1629880732717,-0.017079999999999998,0.40546699999999997,-0.923906
1629880732727,-0.018543999999999998,0.404613,-0.923601
1629880732736,-0.017629,0.403393,-0.922747
1629880732746,-0.016958,0.403515,-0.922381
1629880732755,-0.017263,0.401563,-0.9234789999999999
1629880732765,-0.016409,0.402661,-0.9259189999999999
1629880732775,-0.016042999999999998,0.401929,-0.927017
1629880732784,-0.01525,0.402661,-0.927322
1629880732794,-0.016287,0.402051,-0.926468
1629880732803,-0.016653,0.402295,-0.925065
1629880732813,-0.018483,0.401319,-0.922503
1629880732823,-0.01769,0.401929,-0.923357
1629880732832,-0.018239,0.401868,-0.923418
1629880732842,-0.017751,0.401929,-0.9256139999999999
1629880732851,-0.016958,0.402234,-0.9262239999999999
1629880732861,-0.016165,0.402661,-0.92537
1629880732871,-0.016287,0.403149,-0.926956
1629880732880,-0.016104,0.402966,-0.926956
1629880732890,-0.016531,0.403454,-0.926651
1629880732899,-0.016958,0.404003,-0.926346
1629880732909,-0.016287,0.402295,-0.925797
1629880732919,-0.017934,0.40241699999999997,-0.9243939999999999
1629880732928,-0.017446,0.401746,-0.925248
1629880732938,-0.017141,0.40199,-0.9256139999999999
1629880732947,-0.016774999999999998,0.40272199999999997,-0.926468
1629880732957,-0.016714,0.401929,-0.9262239999999999
1629880732967,-0.016104,0.403088,-0.926651
1629880732976,-0.015006,0.402966,-0.9265289999999999
1629880732986,-0.015372,0.402173,-0.926712
1629880732995,-0.01586,0.4026,-0.92415
1629880733005,-0.015982,0.40199,-0.924455
1629880733015,-0.015982,0.402844,-0.925126
1629880733024,-0.016714,0.40321,-0.92476
1629880733034,-0.016653,0.404918,-0.924333
1629880733043,-0.01464,0.40504,-0.92415
1629880733053,-0.015006,0.406443,-0.925492
1629880733063,-0.015067,0.406138,-0.926102
1629880733072,-0.014395999999999999,0.406931,-0.927688
1629880733082,-0.014274,0.406931,-0.925675
1629880733091,-0.015555,0.40546699999999997,-0.923052
1629880733101,-0.014274,0.40394199999999997,-0.92659
1629880733111,-0.013237,0.404003,-0.9280539999999999
1629880733120,-0.015982,0.40016,-0.925553
1629880733130,-0.016226,0.399489,-0.926346
1629880733139,-0.015067,0.399611,-0.927932
1629880733149,-0.016104,0.39967199999999997,-0.9265289999999999
1629880733159,-0.017446,0.400038,-0.922015
1629880733168,-0.018543999999999998,0.401441,-0.9195139999999999
1629880733178,-0.017324,0.40333199999999997,-0.920612
1629880733187,-0.014945,0.404796,-0.922198
1629880733197,-0.012261,0.406443,-0.924943
1629880733207,-0.012383,0.407114,-0.925553
1629880733216,-0.011467999999999999,0.4087,-0.925492
1629880733226,-0.012627,0.410042,-0.92537
1629880733235,-0.012565999999999999,0.410469,-0.925431
1629880733245,-0.012688,0.410896,-0.9256139999999999
1629880733255,-0.013725,0.410835,-0.924211
1629880733264,-0.014091,0.410774,-0.922991
1629880733274,-0.014152,0.409615,-0.923418
1629880733283,-0.013847,0.409005,-0.924272
1629880733293,-0.013847,0.406931,-0.923906
1629880733303,-0.013847,0.40516199999999997,-0.924272
1629880733312,-0.012565999999999999,0.40504,-0.9243939999999999
1629880733322,-0.013969,0.404369,-0.923601
1629880733331,-0.015067,0.403759,-0.923235
1629880733341,-0.015127999999999999,0.405223,-0.923052
1629880733351,-0.015006,0.40565,-0.923601
1629880733360,-0.015311,0.404796,-0.922808
1629880733370,-0.014274,0.405894,-0.9222589999999999
1629880733379,-0.014701,0.40638199999999997,-0.92354
1629880733389,-0.013359,0.408517,-0.92415
1629880733399,-0.012505,0.40821199999999996,-0.92537
1629880733408,-0.01281,0.408578,-0.924455
1629880733418,-0.013297999999999999,0.40699199999999996,-0.9253089999999999
1629880733427,-0.012565999999999999,0.40687,-0.9265289999999999
1629880733437,-0.013786,0.40565,-0.926895
1629880733447,-0.015127999999999999,0.404796,-0.925858
1629880733456,-0.01769,0.404918,-0.9219539999999999
1629880733466,-0.017568,0.40394199999999997,-0.922625
1629880733475,-0.017141,0.403271,-0.924333
1629880733485,-0.01525,0.40321,-0.92537
1629880733495,-0.016226,0.403454,-0.924638
1629880733504,-0.016714,0.40382,-0.9256139999999999
1629880733514,-0.016042999999999998,0.402905,-0.926102
1629880733523,-0.015921,0.402295,-0.925858
1629880733533,-0.016774999999999998,0.40211199999999997,-0.925431
1629880733543,-0.017019,0.401868,-0.926407
1629880733552,-0.017568,0.402234,-0.926895
1629880733562,-0.017385,0.402356,-0.927566
1629880733571,-0.017324,0.401624,-0.9271389999999999
1629880733581,-0.017324,0.40241699999999997,-0.926407
1629880733591,-0.016958,0.402478,-0.9262239999999999
1629880733600,-0.017568,0.40333199999999997,-0.9256139999999999
1629880733610,-0.017934,0.40302699999999997,-0.9240889999999999
1629880733619,-0.018483,0.402295,-0.923906
1629880733629,-0.018239,0.40272199999999997,-0.92476
1629880733639,-0.017811999999999998,0.403515,-0.925065
1629880733648,-0.017751,0.403393,-0.925797
1629880733658,-0.016104,0.402844,-0.926346
1629880733667,-0.016714,0.40394199999999997,-0.927261
1629880733677,-0.01769,0.403515,-0.9271389999999999
1629880733687,-0.017629,0.4026,-0.926102
1629880733696,-0.017995,0.401441,-0.92598
1629880733706,-0.019642,0.40199,-0.925248
1629880733715,-0.020374,0.40089199999999997,-0.9250039999999999
1629880733725,-0.020801,0.40089199999999997,-0.925248
1629880733735,-0.019337,0.40028199999999997,-0.925797
1629880733744,-0.018361,0.401014,-0.9272
1629880733754,-0.017873,0.401685,-0.927078
1629880733763,-0.017385,0.402661,-0.926956
1629880733773,-0.017568,0.402661,-0.926712
1629880733783,-0.016958,0.40302699999999997,-0.92598
1629880733792,-0.017811999999999998,0.401624,-0.9237839999999999
1629880733802,-0.019032,0.400831,-0.92354
1629880733811,-0.019093,0.400221,-0.924455
1629880733821,-0.018849,0.400465,-0.926163
1629880733831,-0.018666,0.401136,-0.926773
1629880733840,-0.018056,0.400709,-0.926163
1629880733850,-0.016958,0.401746,-0.926773
1629880733859,-0.017629,0.40119699999999997,-0.92659
1629880733869,-0.017751,0.401258,-0.925797
1629880733879,-0.018178,0.40199,-0.925492
1629880733888,-0.017385,0.402234,-0.9256139999999999
1629880733898,-0.018178,0.40321,-0.9250039999999999
1629880733907,-0.018178,0.402966,-0.924638
1629880733917,-0.017079999999999998,0.403088,-0.925736
1629880733927,-0.016592,0.404003,-0.9253089999999999
1629880733936,-0.016592,0.403088,-0.926163
1629880733946,-0.017141,0.402905,-0.926956
1629880733955,-0.017202,0.402356,-0.927017
1629880733965,-0.01891,0.40138,-0.925553
1629880733975,-0.02013,0.400648,-0.924211
1629880733984,-0.020374,0.400038,-0.924882
1629880733994,-0.019642,0.40180699999999997,-0.926346
1629880734003,-0.019215,0.401746,-0.927261
1629880734013,-0.019398,0.402478,-0.927322
1629880734023,-0.017934,0.402234,-0.927261
1629880734032,-0.018422,0.402661,-0.926285
1629880734042,-0.019032,0.40138,-0.927383
1629880734051,-0.019215,0.40150199999999997,-0.926102
1629880734061,-0.019459,0.401258,-0.925126
1629880734071,-0.019154,0.40199,-0.926163
1629880734080,-0.019764,0.401746,-0.924638
1629880734090,-0.019337,0.401075,-0.92598
1629880734099,-0.018666,0.401746,-0.9253089999999999
1629880734109,-0.018543999999999998,0.402173,-0.926285
1629880734119,-0.018483,0.4026,-0.926895
1629880734128,-0.018605,0.402661,-0.925492
1629880734138,-0.017629,0.4026,-0.925736
1629880734147,-0.017079999999999998,0.40199,-0.9250039999999999
1629880734157,-0.017629,0.402539,-0.9246989999999999
1629880734167,-0.017934,0.401868,-0.924516
1629880734176,-0.018788,0.401746,-0.924638
1629880734186,-0.018422,0.401136,-0.924516
1629880734195,-0.017934,0.400709,-0.926041
1629880734205,-0.017873,0.40058699999999997,-0.926041
1629880734215,-0.018056,0.400648,-0.926651
1629880734224,-0.018543999999999998,0.40058699999999997,-0.927322
1629880734234,-0.01952,0.40077,-0.9277489999999999
1629880734243,-0.019154,0.400404,-0.926956
1629880734253,-0.019459,0.402051,-0.9262239999999999
1629880734263,-0.020313,0.401929,-0.925492
1629880734272,-0.020557,0.402478,-0.92476
1629880734282,-0.020374,0.40302699999999997,-0.92659
1629880734291,-0.020496,0.40363699999999997,-0.927322
1629880734301,-0.020374,0.40546699999999997,-0.926895
1629880734311,-0.020618,0.404979,-0.92598
1629880734320,-0.018727,0.40516199999999997,-0.924821
1629880734330,-0.019154,0.40485699999999997,-0.924333
1629880734339,-0.018543999999999998,0.405833,-0.923845
1629880734349,-0.020007999999999998,0.40424699999999997,-0.924821
1629880734359,-0.019703,0.402966,-0.925736
1629880734368,-0.021228,0.401075,-0.926468
1629880734378,-0.022875,0.399916,-0.927322
1629880734387,-0.02379,0.398635,-0.927261
1629880734397,-0.024461,0.396439,-0.925553
1629880734407,-0.022265,0.39527999999999996,-0.92781
1629880734416,-0.021411,0.394426,-0.9307989999999999
1629880734426,-0.020862,0.394609,-0.930616
1629880734435,-0.020801,0.394426,-0.930982
1629880734445,-0.017629,0.39497499999999997,-0.93208
1629880734455,-0.018178,0.395707,-0.928847
1629880734464,-0.021655,0.396012,-0.923296
1629880734474,-0.022875,0.397659,-0.921161
1629880734483,-0.020984,0.400038,-0.922076
1629880734493,-0.019032,0.401136,-0.924882
1629880734503,-0.017079999999999998,0.401563,-0.926651
1629880734512,-0.016409,0.403149,-0.927383
1629880734522,-0.015493999999999999,0.404918,-0.92842
1629880734531,-0.014395999999999999,0.406016,-0.928725
1629880734541,-0.014457,0.406748,-0.927688
1629880734551,-0.016104,0.406931,-0.9268339999999999
1629880734560,-0.015311,0.407968,-0.9256139999999999
1629880734570,-0.015311,0.407968,-0.924638
1629880734579,-0.01586,0.40790699999999996,-0.924272
1629880734589,-0.016226,0.407724,-0.922137
1629880734599,-0.016958,0.406748,-0.923418
1629880734608,-0.015006,0.406321,-0.9253089999999999
1629880734618,-0.015982,0.404979,-0.925675
1629880734627,-0.015372,0.403759,-0.9259189999999999
1629880734637,-0.015982,0.402661,-0.924638
1629880734647,-0.017202,0.40119699999999997,-0.924943
1629880734656,-0.016347999999999998,0.40089199999999997,-0.926773
1629880734666,-0.016774999999999998,0.401441,-0.926895
1629880734675,-0.016897,0.400709,-0.926346
1629880734685,-0.016774999999999998,0.400404,-0.926163
1629880734695,-0.017263,0.401258,-0.926651
1629880734704,-0.016409,0.401563,-0.9262239999999999
1629880734714,-0.015372,0.400648,-0.92598
1629880734723,-0.015738,0.40028199999999997,-0.925736
1629880734733,-0.016104,0.401258,-0.92476
1629880734743,-0.014884,0.40119699999999997,-0.925797
1629880734752,-0.015799,0.399184,-0.92659
1629880734762,-0.01464,0.399184,-0.92598
1629880734771,-0.015921,0.401136,-0.924028
1629880734781,-0.014884,0.403088,-0.924943
1629880734791,-0.01281,0.403515,-0.9253089999999999
1629880734800,-0.012871,0.404674,-0.9246989999999999
1629880734810,-0.013359,0.405345,-0.924272
1629880734819,-0.013663999999999999,0.40504,-0.923418
1629880734829,-0.01281,0.404735,-0.923662
1629880734839,-0.013542,0.403454,-0.9240889999999999
1629880734848,-0.012688,0.403698,-0.924882
1629880734858,-0.013542,0.403576,-0.9253089999999999
1629880734867,-0.014395999999999999,0.40363699999999997,-0.925492
1629880734877,-0.013663999999999999,0.403515,-0.926468
1629880734887,-0.013359,0.403149,-0.9274439999999999
1629880734896,-0.013603,0.402661,-0.927383
1629880734906,-0.014761999999999999,0.40199,-0.9265289999999999
1629880734915,-0.014701,0.40016,-0.92598
1629880734925,-0.013725,0.400343,-0.9262239999999999
1629880734935,-0.014457,0.400831,-0.924882
1629880734944,-0.015921,0.401075,-0.92537
1629880734954,-0.015799,0.40089199999999997,-0.9256139999999999
1629880734963,-0.01525,0.40089199999999997,-0.925858
1629880734973,-0.015677,0.40077,-0.92537
1629880734983,-0.016409,0.401136,-0.925797
1629880734992,-0.015921,0.401929,-0.926468
1629880735002,-0.016104,0.401685,-0.927383
1629880735011,-0.016531,0.40302699999999997,-0.927505
1629880735021,-0.018361,0.4026,-0.928725
1629880735031,-0.018117,0.403088,-0.928115
1629880735040,-0.018971,0.402478,-0.9274439999999999
1629880735050,-0.019459,0.402356,-0.9272
1629880735059,-0.01891,0.401319,-0.928481
1629880735069,-0.018605,0.401746,-0.9283589999999999
1629880735079,-0.01891,0.401868,-0.927627
1629880735088,-0.019642,0.401258,-0.927566
1629880735098,-0.019947,0.400953,-0.927688
1629880735107,-0.018605,0.398635,-0.928603
1629880735117,-0.017506999999999998,0.397659,-0.92842
1629880735127,-0.018117,0.395707,-0.927688
1629880735136,-0.019642,0.394853,-0.92598
1629880735146,-0.019581,0.39405999999999997,-0.925126
1629880735155,-0.021411,0.393511,-0.924455
1629880735165,-0.020801,0.393816,-0.9237839999999999
1629880735175,-0.018727,0.395646,-0.925248
1629880735184,-0.017446,0.396988,-0.9256139999999999
1629880735194,-0.017079999999999998,0.397476,-0.925553
1629880735203,-0.016531,0.397415,-0.926468
1629880735213,-0.01586,0.398147,-0.9262239999999999
1629880735223,-0.016226,0.397598,-0.925797
1629880735232,-0.016165,0.398513,-0.927383
1629880735242,-0.016226,0.399916,-0.926285
1629880735251,-0.016104,0.40077,-0.926163
1629880735261,-0.017568,0.401136,-0.9268339999999999
1629880735271,-0.01769,0.400648,-0.926956
1629880735280,-0.018788,0.40077,-0.9268339999999999
1629880735290,-0.019093,0.400526,-0.9272
1629880735299,-0.018727,0.401136,-0.927383
1629880735309,-0.02013,0.400465,-0.92842
1629880735319,-0.020679,0.399916,-0.928725
1629880735328,-0.020557,0.399794,-0.92964
1629880735338,-0.022143,0.40028199999999997,-0.930311
1629880735347,-0.022082,0.39997699999999997,-0.93025
1629880735357,-0.022265,0.399306,-0.9311039999999999
1629880735367,-0.021167,0.399306,-0.930555
1629880735376,-0.021411,0.398574,-0.930067
1629880735386,-0.021533,0.398086,-0.92842
1629880735395,-0.021899,0.39711,-0.928176
1629880735405,-0.022143,0.396683,-0.927688
1629880735415,-0.022082,0.396622,-0.926895
1629880735424,-0.022692,0.396439,-0.9265289999999999
1629880735434,-0.021411,0.397232,-0.925797
1629880735443,-0.020557,0.39772,-0.926468
1629880735453,-0.019703,0.398879,-0.926651
1629880735463,-0.019154,0.398391,-0.92659
1629880735472,-0.019215,0.398269,-0.925797
1629880735482,-0.020252,0.398452,-0.925858
1629880735491,-0.01952,0.399123,-0.926285
1629880735501,-0.018666,0.400526,-0.926102
1629880735511,-0.019581,0.40138,-0.925187
1629880735520,-0.018727,0.402173,-0.9253089999999999
1629880735530,-0.018788,0.40138,-0.92537
1629880735539,-0.019764,0.401929,-0.923845
1629880735549,-0.020007999999999998,0.403088,-0.9240889999999999
1629880735559,-0.020374,0.40211199999999997,-0.9256139999999999
1629880735568,-0.021106,0.401319,-0.9272
1629880735578,-0.021411,0.39967199999999997,-0.928908
1629880735587,-0.021167,0.399184,-0.930616
1629880735597,-0.021838,0.397903,-0.92964
1629880735607,-0.022935999999999998,0.396256,-0.929762
1629880735616,-0.020801,0.395707,-0.931653
1629880735626,-0.019275999999999998,0.396012,-0.932873
1629880735635,-0.021228,0.39314499999999997,-0.9314089999999999
1629880735645,-0.021533,0.393633,-0.931287
1629880735655,-0.01952,0.393694,-0.931958
1629880735664,-0.019703,0.393206,-0.929152
1629880735674,-0.02135,0.39283999999999997,-0.9262239999999999
1629880735683,-0.022509,0.392962,-0.922625
1629880735693,-0.021289,0.394243,-0.923357
1629880735703,-0.018849,0.396073,-0.926346
1629880735712,-0.016226,0.396866,-0.928786
1629880735722,-0.015372,0.397964,-0.929335
1629880735731,-0.015433,0.398269,-0.928542
1629880735741,-0.014701,0.398696,-0.928725
1629880735751,-0.015189,0.400038,-0.9271389999999999
1629880735760,-0.015555,0.400099,-0.926468
1629880735770,-0.017141,0.400953,-0.925736
1629880735779,-0.017263,0.400831,-0.92476
1629880735789,-0.018178,0.40119699999999997,-0.924516
1629880735799,-0.01891,0.398879,-0.926163
1629880735808,-0.017995,0.398513,-0.9289689999999999
1629880735818,-0.018178,0.396805,-0.929701
1629880735827,-0.018666,0.394609,-0.93208
1629880735837,-0.019764,0.392596,-0.933178
1629880735847,-0.020252,0.390949,-0.933727
1629880735856,-0.020496,0.38917999999999997,-0.932568
1629880735866,-0.021471999999999998,0.389058,-0.931958
1629880735875,-0.021716,0.389424,-0.93147
1629880735885,-0.020862,0.388326,-0.930006
1629880735895,-0.020374,0.389241,-0.92903
1629880735904,-0.019825,0.389912,-0.929945
1629880735914,-0.018178,0.390888,-0.92903
1629880735923,-0.01769,0.39344999999999997,-0.929335
1629880735933,-0.016409,0.39436499999999997,-0.928603
1629880735943,-0.016531,0.39405999999999997,-0.9277489999999999
1629880735952,-0.015006,0.396988,-0.928786
1629880735962,-0.013603,0.396866,-0.929091
1629880735971,-0.012871,0.395402,-0.9286639999999999
1629880735981,-0.014152,0.395158,-0.926773
1629880735991,-0.016347999999999998,0.394792,-0.924882
1629880736000,-0.017263,0.394426,-0.92415
1629880736010,-0.017141,0.393816,-0.925736
1629880736019,-0.016714,0.392108,-0.926285
1629880736029,-0.018056,0.39344999999999997,-0.927261
1629880736039,-0.018117,0.394304,-0.929457
1629880736048,-0.017568,0.39436499999999997,-0.930738
1629880736058,-0.016409,0.394792,-0.932141
1629880736067,-0.017263,0.39527999999999996,-0.9333
1629880736077,-0.01647,0.3965,-0.933727
1629880736087,-0.017568,0.396256,-0.9329339999999999
1629880736096,-0.018056,0.39527999999999996,-0.930921
1629880736106,-0.019093,0.394914,-0.930982
1629880736115,-0.019764,0.393023,-0.930128
1629880736125,-0.01952,0.392779,-0.92903
1629880736135,-0.020007999999999998,0.391742,-0.928908
1629880736144,-0.019764,0.390888,-0.928786
1629880736154,-0.019642,0.391071,-0.928481
1629880736163,-0.019398,0.391071,-0.928786
1629880736173,-0.019093,0.391193,-0.9289689999999999
1629880736183,-0.018727,0.392352,-0.92842
1629880736192,-0.019275999999999998,0.392169,-0.9286639999999999
1629880736202,-0.018178,0.393084,-0.929152
1629880736211,-0.018605,0.394121,-0.928847
1629880736221,-0.018666,0.394731,-0.9292739999999999
1629880736231,-0.018666,0.395158,-0.928908
1629880736240,-0.018727,0.395646,-0.928725
1629880736250,-0.018543999999999998,0.395463,-0.928542
1629880736259,-0.019275999999999998,0.395158,-0.929457
1629880736269,-0.019459,0.394609,-0.929518
1629880736279,-0.019703,0.39375499999999997,-0.929823
1629880736288,-0.019886,0.393267,-0.930616
1629880736298,-0.020862,0.39314499999999997,-0.9311039999999999
1629880736307,-0.021045,0.392169,-0.931348
1629880736317,-0.021106,0.391437,-0.93147
1629880736327,-0.020739999999999998,0.391193,-0.9307989999999999
1629880736336,-0.021594,0.391071,-0.9314089999999999
1629880736346,-0.022265,0.389729,-0.930372
1629880736355,-0.022265,0.390522,-0.930738
1629880736365,-0.021594,0.39039999999999997,-0.931226
1629880736375,-0.021899,0.390827,-0.930921
1629880736384,-0.021899,0.390888,-0.931165
1629880736394,-0.021471999999999998,0.390278,-0.9298839999999999
1629880736403,-0.021899,0.389912,-0.9304939999999999
1629880736413,-0.02196,0.390339,-0.9311039999999999
1629880736423,-0.021777,0.390888,-0.931165
1629880736432,-0.020984,0.391437,-0.930006
1629880736442,-0.020435,0.391376,-0.93025
1629880736451,-0.020374,0.392108,-0.9295789999999999
1629880736461,-0.020252,0.393023,-0.93025
1629880736471,-0.019275999999999998,0.39344999999999997,-0.92964
1629880736480,-0.019337,0.393572,-0.930006
1629880736490,-0.019154,0.393694,-0.929762
1629880736499,-0.018788,0.39375499999999997,-0.9289689999999999
1629880736509,-0.019642,0.393938,-0.9286639999999999
1629880736519,-0.019947,0.393206,-0.929518
1629880736528,-0.020191,0.392596,-0.92964
1629880736538,-0.020739999999999998,0.391498,-0.929823
1629880736547,-0.022387,0.391254,-0.930555
1629880736557,-0.022326,0.389973,-0.931653
1629880736567,-0.023363,0.389729,-0.93086
1629880736576,-0.02257,0.389302,-0.93147
1629880736586,-0.02318,0.38978999999999997,-0.931897
1629880736595,-0.022448,0.390156,-0.932446
1629880736605,-0.022448,0.390644,-0.9323239999999999
1629880736615,-0.022082,0.390766,-0.931775
1629880736624,-0.022387,0.39070499999999997,-0.9311039999999999
1629880736634,-0.021655,0.391681,-0.930006
1629880736643,-0.022326,0.390949,-0.930067
1629880736653,-0.021594,0.390522,-0.929518
1629880736663,-0.022753,0.39070499999999997,-0.92903
1629880736672,-0.022203999999999998,0.390766,-0.930372
1629880736682,-0.021838,0.391559,-0.930677
1629880736691,-0.021471999999999998,0.39222999999999997,-0.929945
1629880736701,-0.020739999999999998,0.39222999999999997,-0.929152
1629880736711,-0.018605,0.39314499999999997,-0.932568
1629880736720,-0.018849,0.392718,-0.931592
1629880736730,-0.020007999999999998,0.39161999999999997,-0.92964
1629880736739,-0.01952,0.392291,-0.930555
1629880736749,-0.019275999999999998,0.393633,-0.929823
1629880736759,-0.018971,0.393633,-0.928908
1629880736768,-0.018971,0.393572,-0.9262239999999999
1629880736778,-0.01952,0.393816,-0.92415
1629880736787,-0.02013,0.393816,-0.9262239999999999
1629880736797,-0.017811999999999998,0.395402,-0.928603
1629880736807,-0.016714,0.395829,-0.931592
1629880736816,-0.016592,0.395402,-0.9314089999999999
1629880736826,-0.01586,0.396195,-0.931226
1629880736835,-0.016165,0.396378,-0.930982
1629880736845,-0.01769,0.396927,-0.92964
1629880736855,-0.018483,0.397537,-0.927871
1629880736864,-0.019032,0.396927,-0.926041
1629880736874,-0.019093,0.397476,-0.926163
1629880736883,-0.019703,0.39588999999999996,-0.9265289999999999
1629880736893,-0.019337,0.395646,-0.928298
1629880736903,-0.019398,0.394304,-0.929152
1629880736912,-0.019032,0.393023,-0.930006
1629880736922,-0.01952,0.39253499999999997,-0.9314089999999999
1629880736931,-0.020191,0.392108,-0.931043
1629880736941,-0.02135,0.39100999999999997,-0.93086
1629880736951,-0.021533,0.391803,-0.9298839999999999
1629880736960,-0.021655,0.391681,-0.929945
1629880736970,-0.022203999999999998,0.392108,-0.928603
1629880736979,-0.021594,0.393938,-0.9283589999999999
1629880736989,-0.02135,0.395036,-0.9280539999999999
1629880736999,-0.020313,0.395341,-0.927993
1629880737008,-0.020496,0.396805,-0.9283589999999999
1629880737018,-0.019642,0.39772,-0.927383
1629880737027,-0.020923,0.396195,-0.927566
1629880737037,-0.019398,0.3965,-0.929823
1629880737047,-0.018971,0.396927,-0.930616
1629880737056,-0.018422,0.39527999999999996,-0.931836
1629880737066,-0.019337,0.393633,-0.9295789999999999
1629880737075,-0.022509,0.39161999999999997,-0.926041
1629880737085,-0.023546,0.39100999999999997,-0.924638
1629880737095,-0.024156,0.390644,-0.924882
1629880737104,-0.022935999999999998,0.391193,-0.926773
1629880737114,-0.022082,0.391132,-0.92903
1629880737123,-0.019581,0.391864,-0.930982
1629880737133,-0.018543999999999998,0.394243,-0.93452
1629880737143,-0.018788,0.39527999999999996,-0.9314089999999999
1629880737152,-0.021228,0.394487,-0.931043
1629880737162,-0.022143,0.394792,-0.930555
1629880737171,-0.021655,0.395097,-0.931592
1629880737181,-0.022082,0.395036,-0.9292739999999999
1629880737191,-0.02379,0.393633,-0.929335
1629880737200,-0.022875,0.39283999999999997,-0.930311
1629880737210,-0.022082,0.391376,-0.931653
1629880737219,-0.023729,0.390278,-0.930128
1629880737229,-0.023424,0.390034,-0.931226
1629880737239,-0.022997,0.390278,-0.931531
1629880737248,-0.024278,0.389302,-0.930982
1629880737258,-0.025742,0.38856999999999997,-0.93025
1629880737267,-0.025863999999999998,0.389058,-0.929701
1629880737277,-0.025742,0.389302,-0.9298839999999999
1629880737287,-0.025436999999999998,0.389912,-0.930677
1629880737296,-0.025681,0.391193,-0.930372
1629880737306,-0.025498,0.391254,-0.930067
1629880737315,-0.025803,0.391376,-0.930555
1629880737325,-0.024766,0.391864,-0.930982
1629880737335,-0.024278,0.393084,-0.931226
1629880737344,-0.024644,0.392291,-0.931226
1629880737354,-0.024888,0.392047,-0.930738
1629880737363,-0.024399999999999998,0.391498,-0.930677
1629880737373,-0.024704999999999998,0.391559,-0.931836
1629880737383,-0.024888,0.390827,-0.9314089999999999
1629880737392,-0.024827,0.390583,-0.930006
1629880737402,-0.025376,0.390583,-0.930128
1629880737411,-0.024888,0.390156,-0.930372
1629880737421,-0.025193,0.389546,-0.9298839999999999
1629880737431,-0.024156,0.388753,-0.928786
1629880737440,-0.024399999999999998,0.389363,-0.928725
1629880737450,-0.024522,0.390583,-0.929762
1629880737459,-0.024095,0.38978999999999997,-0.929091
1629880737469,-0.024399999999999998,0.390278,-0.928847
1629880737479,-0.023912,0.391742,-0.9286639999999999
1629880737488,-0.02379,0.39161999999999997,-0.929152
1629880737498,-0.023546,0.391254,-0.929213
1629880737507,-0.023119,0.391254,-0.929457
1629880737517,-0.023119,0.391071,-0.929335
1629880737527,-0.022997,0.39100999999999997,-0.9295789999999999
1629880737536,-0.022997,0.391193,-0.929823
1629880737546,-0.023667999999999998,0.391559,-0.930006
1629880737555,-0.022692,0.391742,-0.929945
1629880737565,-0.023667999999999998,0.39192499999999997,-0.929823
1629880737575,-0.023302,0.39161999999999997,-0.9292739999999999
1629880737584,-0.022814,0.392718,-0.9280539999999999
1629880737594,-0.022692,0.393572,-0.92903
1629880737603,-0.021533,0.393816,-0.92964
1629880737613,-0.021655,0.394792,-0.931287
1629880737623,-0.021106,0.394853,-0.930738
1629880737632,-0.022935999999999998,0.39436499999999997,-0.928786
1629880737642,-0.023729,0.394609,-0.927871
1629880737651,-0.025315,0.394426,-0.9289689999999999
1629880737661,-0.025254,0.394426,-0.9292739999999999
1629880737671,-0.025803,0.393267,-0.92964
1629880737680,-0.026657,0.392596,-0.931348
1629880737690,-0.027145,0.393023,-0.931592
1629880737699,-0.026900999999999998,0.39253499999999997,-0.93147
1629880737709,-0.025559,0.39131499999999997,-0.931897
1629880737719,-0.025071,0.390583,-0.934642
1629880737728,-0.025131999999999998,0.390034,-0.93269
1629880737738,-0.027084,0.389302,-0.930006
1629880737747,-0.027084,0.389973,-0.92903
1629880737757,-0.02562,0.392047,-0.929396
1629880737767,-0.025742,0.392108,-0.927627
1629880737776,-0.026047,0.39222999999999997,-0.92476
1629880737786,-0.026535,0.393816,-0.922991
1629880737795,-0.026168999999999998,0.394609,-0.923723
1629880737805,-0.023302,0.395951,-0.927017
1629880737815,-0.021471999999999998,0.396988,-0.92964
1629880737824,-0.020679,0.397598,-0.930372
1629880737834,-0.021289,0.398818,-0.929457
1629880737843,-0.020923,0.39967199999999997,-0.9286639999999999
1629880737853,-0.022265,0.399306,-0.9280539999999999
1629880737863,-0.022935999999999998,0.398696,-0.925492
1629880737872,-0.024217,0.398696,-0.9256139999999999
1629880737882,-0.02562,0.39772,-0.92537
1629880737891,-0.02684,0.396073,-0.925126
1629880737901,-0.025986,0.394853,-0.926651
1629880737911,-0.02562,0.393572,-0.928786
1629880737920,-0.025254,0.392596,-0.9292739999999999
1629880737930,-0.025986,0.392352,-0.930372
1629880737939,-0.02684,0.392901,-0.931836
1629880737949,-0.026657,0.395829,-0.9311039999999999
1629880737959,-0.027572,0.395646,-0.928725
1629880737968,-0.028182,0.396378,-0.928847
1629880737978,-0.027694,0.39833,-0.9286639999999999
1629880737987,-0.026168999999999998,0.399916,-0.927688
1629880737997,-0.027267,0.399245,-0.926712
1629880738007,-0.027206,0.40180699999999997,-0.926956
1629880738016,-0.023058,0.404308,-0.928237
1629880738026,-0.02562,0.401563,-0.927322
1629880738035,-0.02745,0.399184,-0.928298
1629880738045,-0.026474,0.401624,-0.9286639999999999
1629880738055,-0.025131999999999998,0.399916,-0.9311039999999999
1629880738064,-0.023546,0.399855,-0.9280539999999999
1629880738074,-0.025436999999999998,0.40077,-0.923296
1629880738083,-0.02684,0.39997699999999997,-0.923296
1629880738093,-0.02867,0.40077,-0.919453
1629880738103,-0.027145,0.401136,-0.922198
1629880738112,-0.025254,0.402356,-0.924028
1629880738122,-0.025254,0.40272199999999997,-0.925858
1629880738131,-0.024399999999999998,0.403698,-0.9277489999999999
1629880738141,-0.024278,0.404186,-0.92781
1629880738151,-0.025376,0.404491,-0.9274439999999999
1629880738160,-0.02501,0.40516199999999997,-0.928298
1629880738170,-0.026657,0.404796,-0.925126
1629880738179,-0.027755,0.40302699999999997,-0.925126
1629880738189,-0.028487,0.403271,-0.9234789999999999
1629880738199,-0.027694,0.402356,-0.924577
1629880738208,-0.027206,0.401136,-0.925492
1629880738218,-0.02745,0.40150199999999997,-0.925126
1629880738227,-0.028791999999999998,0.40089199999999997,-0.923967
1629880738237,-0.028304,0.40058699999999997,-0.9253089999999999
1629880738247,-0.026962,0.400709,-0.925248
1629880738256,-0.027755,0.40028199999999997,-0.925553
1629880738266,-0.028731,0.399489,-0.923967
1629880738275,-0.030134,0.39833,-0.922686
1629880738285,-0.030134,0.396439,-0.92354
1629880738295,-0.031354,0.395768,-0.922076
1629880738304,-0.031049,0.395036,-0.923113
1629880738314,-0.031598,0.394182,-0.9237839999999999
1629880738323,-0.031232,0.394548,-0.926712
1629880738333,-0.029707,0.396134,-0.926773
1629880738343,-0.028914,0.397903,-0.927383
1629880738352,-0.02989,0.39833,-0.927017
1629880738362,-0.029402,0.398879,-0.925736
1629880738371,-0.029951,0.399428,-0.924272
1629880738381,-0.030378,0.40058699999999997,-0.924638
1629880738391,-0.030987999999999998,0.401746,-0.92537
1629880738400,-0.030073,0.402234,-0.9280539999999999
1629880738410,-0.030378,0.403576,-0.928725
1629880738419,-0.029951,0.404003,-0.929213
1629880738429,-0.030317,0.404003,-0.929518
1629880738439,-0.029523999999999998,0.404796,-0.92903
1629880738448,-0.030683,0.404979,-0.9277489999999999
1629880738458,-0.030683,0.40577199999999997,-0.926712
1629880738467,-0.031964,0.406016,-0.926285
1629880738477,-0.031537,0.404369,-0.925858
1629880738487,-0.032390999999999996,0.404369,-0.92476
1629880738496,-0.033489,0.40321,-0.9259189999999999
1629880738506,-0.033672,0.40382,-0.92598
1629880738515,-0.033489,0.404369,-0.926041
1629880738525,-0.033611,0.404613,-0.925553
1629880738535,-0.033672,0.406321,-0.924882
1629880738544,-0.033367,0.407114,-0.925736
1629880738554,-0.033245,0.40809,-0.924028
1629880738563,-0.032695999999999996,0.408273,-0.923906
1629880738573,-0.032635,0.408639,-0.921832
1629880738583,-0.033854999999999996,0.4087,-0.920307
1629880738592,-0.033306,0.409432,-0.920551
1629880738602,-0.033123,0.409249,-0.921222
1629880738611,-0.033306,0.410103,-0.921466
1629880738621,-0.033611,0.409615,-0.920612
1629880738631,-0.035502,0.408395,-0.9204289999999999
1629880738640,-0.035075,0.408456,-0.92171
1629880738650,-0.036112,0.4087,-0.922991
1629880738659,-0.036051,0.40760199999999996,-0.922198
1629880738669,-0.034465,0.408151,-0.923906
1629880738679,-0.032695999999999996,0.407785,-0.92415
1629880738688,-0.035136,0.407236,-0.923052
1629880738698,-0.033916,0.408395,-0.922808
1629880738707,-0.035013999999999997,0.407358,-0.9237839999999999
1629880738717,-0.038186,0.40626,-0.922198
1629880738727,-0.035868,0.408395,-0.9231739999999999
1629880738736,-0.036478,0.409798,-0.9204289999999999
1629880738746,-0.037637,0.409249,-0.92049
1629880738755,-0.036234,0.41114,-0.923357
1629880738765,-0.033916,0.412238,-0.9243939999999999
1629880738775,-0.032147,0.412238,-0.926041
1629880738784,-0.032879,0.411567,-0.927322
1629880738794,-0.032269,0.413092,-0.92598
1629880738803,-0.031293,0.41321399999999997,-0.923845
1629880738813,-0.034831,0.41138399999999997,-0.922747
1629880738823,-0.033672,0.411445,-0.921405
1629880738832,-0.033611,0.412238,-0.920856
1629880738842,-0.035746,0.408944,-0.919392
1629880738851,-0.033123,0.410652,-0.921222
1629880738861,-0.033001,0.409005,-0.9211
1629880738871,-0.033428,0.409432,-0.9225639999999999
1629880738880,-0.032085999999999996,0.409859,-0.922991
1629880738890,-0.031293,0.40931,-0.924516
1629880738899,-0.033184,0.408578,-0.9225639999999999
1629880738909,-0.031415,0.409188,-0.9246989999999999
1629880738919,-0.032452,0.4087,-0.9228689999999999
1629880738928,-0.033367,0.40790699999999996,-0.922076
1629880738938,-0.033123,0.407053,-0.922991
1629880738947,-0.033245,0.40668699999999997,-0.924028
1629880738957,-0.033245,0.40638199999999997,-0.924943
1629880738967,-0.033489,0.406016,-0.922442
1629880738976,-0.034099,0.40516199999999997,-0.923052
1629880738986,-0.032208,0.405101,-0.92537
1629880738995,-0.032818,0.40394199999999997,-0.927078
1629880739005,-0.029768,0.403393,-0.929518
1629880739015,-0.030255999999999998,0.40302699999999997,-0.929152
1629880739024,-0.033549999999999996,0.401624,-0.9216489999999999
1629880739034,-0.034953,0.401075,-0.9210389999999999
1629880739043,-0.036051,0.401075,-0.920002
1629880739053,-0.034953,0.401075,-0.921283
1629880739063,-0.034465,0.40150199999999997,-0.922625
1629880739072,-0.031598,0.400831,-0.925431
1629880739082,-0.030744,0.401441,-0.9274439999999999
1629880739091,-0.030012,0.402478,-0.928847
1629880739101,-0.029463,0.40211199999999997,-0.927993
1629880739111,-0.030622,0.401563,-0.926468
1629880739120,-0.031598,0.40150199999999997,-0.925126
1629880739130,-0.032085999999999996,0.401929,-0.923601
1629880739139,-0.032025,0.403088,-0.9225639999999999
1629880739149,-0.031049,0.40211199999999997,-0.922381
1629880739159,-0.030255999999999998,0.402478,-0.922808
1629880739168,-0.029768,0.402478,-0.9234789999999999
1629880739178,-0.029036,0.402356,-0.924516
1629880739187,-0.028548,0.402966,-0.925431
1629880739197,-0.027816,0.403515,-0.924577
1629880739207,-0.027206,0.402783,-0.92476
1629880739216,-0.027632999999999998,0.404064,-0.923723
1629880739226,-0.028243,0.403576,-0.924516
1629880739235,-0.027694,0.404674,-0.923601
1629880739245,-0.027145,0.40394199999999997,-0.922625
1629880739255,-0.027632999999999998,0.403393,-0.92293
1629880739264,-0.026718,0.404796,-0.923723
1629880739274,-0.026474,0.404796,-0.9240889999999999
1629880739283,-0.025376,0.405894,-0.925248
1629880739293,-0.024461,0.405711,-0.9262239999999999
1629880739303,-0.024949,0.40516199999999997,-0.9268339999999999
1629880739312,-0.024339,0.405284,-0.92598
1629880739322,-0.025193,0.40504,-0.925187
1629880739331,-0.024644,0.405589,-0.925858
1629880739341,-0.024278,0.405894,-0.925553
1629880739351,-0.025925,0.404674,-0.926102
1629880739360,-0.027023,0.404064,-0.925675
1629880739370,-0.026779,0.404735,-0.925248
1629880739379,-0.028304,0.403515,-0.925187
1629880739389,-0.028182,0.402173,-0.9243939999999999
1629880739399,-0.02745,0.403149,-0.926102
1629880739408,-0.025376,0.405101,-0.92842
1629880739418,-0.026962,0.403759,-0.9271389999999999
1629880739427,-0.027267,0.404369,-0.926895
1629880739437,-0.025863999999999998,0.40516199999999997,-0.9271389999999999
1629880739447,-0.027206,0.40443,-0.9250039999999999
1629880739456,-0.027206,0.402356,-0.926712
1629880739466,-0.026962,0.4026,-0.925858
1629880739475,-0.027816,0.400953,-0.924211
1629880739485,-0.028059999999999998,0.401014,-0.92476
1629880739495,-0.028243,0.401075,-0.923967
1629880739504,-0.027511,0.400953,-0.924333
1629880739514,-0.025986,0.40119699999999997,-0.924272
1629880739523,-0.024522,0.39894,-0.924516
1629880739533,-0.024827,0.398818,-0.924638
1629880739543,-0.025559,0.39955,-0.923723
1629880739552,-0.026108,0.398452,-0.920673
1629880739562,-0.025863999999999998,0.398452,-0.9222589999999999
1629880739571,-0.024949,0.40138,-0.9271389999999999
1629880739581,-0.023058,0.402234,-0.92842
1629880739591,-0.024278,0.40272199999999997,-0.92598
1629880739600,-0.025863999999999998,0.40272199999999997,-0.924272
1629880739610,-0.024461,0.40394199999999997,-0.926407
1629880739619,-0.024217,0.402905,-0.9274439999999999
1629880739629,-0.024522,0.402478,-0.928908
1629880739639,-0.02379,0.402234,-0.927993
1629880739648,-0.024278,0.402539,-0.927688
1629880739658,-0.024949,0.402539,-0.927932
1629880739667,-0.025071,0.402844,-0.927505
1629880739677,-0.024583,0.402234,-0.926346
1629880739687,-0.024888,0.4026,-0.926041
1629880739696,-0.024217,0.40199,-0.92598
1629880739706,-0.024522,0.401624,-0.924638
1629880739715,-0.025376,0.400526,-0.924821
1629880739725,-0.024766,0.400526,-0.924821
1629880739735,-0.024644,0.40058699999999997,-0.924882
1629880739744,-0.024461,0.400709,-0.92659
1629880739754,-0.02379,0.40058699999999997,-0.926468
1629880739763,-0.024522,0.400526,-0.926102
1629880739773,-0.023729,0.40211199999999997,-0.925492
1629880739783,-0.023424,0.40199,-0.924272
1629880739792,-0.023546,0.402478,-0.9246989999999999
1629880739802,-0.024644,0.40211199999999997,-0.9253089999999999
1629880739811,-0.023972999999999998,0.403393,-0.924028
1629880739821,-0.024034,0.403881,-0.9237839999999999
1629880739831,-0.02257,0.40321,-0.92598
1629880739840,-0.021594,0.405284,-0.92842
1629880739850,-0.020069,0.404003,-0.931226
1629880739859,-0.02013,0.402295,-0.93025
1629880739869,-0.023424,0.402295,-0.924516
1629880739879,-0.026900999999999998,0.40077,-0.9211
1629880739888,-0.026962,0.400465,-0.921466
1629880739898,-0.025742,0.400648,-0.92293
1629880739907,-0.024766,0.400343,-0.924028
1629880739917,-0.023424,0.400953,-0.926041
1629880739927,-0.020496,0.402051,-0.929213
1629880739936,-0.021594,0.4026,-0.929396
1629880739946,-0.022143,0.402051,-0.927261
1629880739955,-0.022631,0.401563,-0.926407
1629880739965,-0.022997,0.401868,-0.924821
1629880739975,-0.022509,0.40199,-0.9246989999999999
1629880739984,-0.022631,0.402966,-0.923296
1629880739994,-0.022997,0.40302699999999997,-0.922076
1629880740003,-0.022935999999999998,0.4026,-0.923601
1629880740013,-0.021899,0.402905,-0.923845
1629880740023,-0.020862,0.403149,-0.925675
1629880740032,-0.021838,0.404674,-0.925675
1629880740042,-0.020923,0.40485699999999997,-0.926346
1629880740051,-0.020252,0.404491,-0.926102
1629880740061,-0.021289,0.405101,-0.926651
1629880740071,-0.021289,0.405711,-0.925797
1629880740080,-0.021471999999999998,0.405589,-0.925126
1629880740090,-0.02196,0.405284,-0.925187
1629880740099,-0.021411,0.40565,-0.92476
1629880740109,-0.022021,0.404674,-0.924638
1629880740119,-0.023058,0.402478,-0.924882
1629880740128,-0.021655,0.402173,-0.924882
1629880740138,-0.022203999999999998,0.402173,-0.925187
1629880740147,-0.022692,0.402051,-0.926102
1629880740157,-0.022143,0.40211199999999997,-0.92598
1629880740167,-0.02257,0.402173,-0.926285
1629880740176,-0.022021,0.402539,-0.926163
1629880740186,-0.022203999999999998,0.40199,-0.92598
1629880740195,-0.022021,0.401929,-0.926041
1629880740205,-0.021411,0.401624,-0.925797
1629880740215,-0.022631,0.402173,-0.925248
1629880740224,-0.022692,0.401014,-0.924882
1629880740234,-0.022448,0.40180699999999997,-0.92415
1629880740243,-0.021838,0.40302699999999997,-0.924577
1629880740253,-0.021045,0.404186,-0.926346
1629880740263,-0.020801,0.40455199999999997,-0.9262239999999999
1629880740272,-0.020252,0.404674,-0.9256139999999999
1629880740282,-0.021228,0.40424699999999997,-0.92415
1629880740291,-0.022021,0.40424699999999997,-0.924455
1629880740301,-0.021471999999999998,0.40382,-0.923235
1629880740311,-0.021594,0.40455199999999997,-0.921832
1629880740320,-0.022448,0.404735,-0.923418
1629880740330,-0.022935999999999998,0.405284,-0.92476
1629880740339,-0.022935999999999998,0.406016,-0.92537
1629880740349,-0.022692,0.404918,-0.924638
1629880740359,-0.020739999999999998,0.40394199999999997,-0.9277489999999999
1629880740368,-0.019275999999999998,0.40443,-0.928725
1629880740378,-0.022203999999999998,0.401929,-0.926651
1629880740387,-0.022875,0.400953,-0.9262239999999999
1629880740397,-0.023912,0.40138,-0.9256139999999999
1629880740407,-0.023851,0.40138,-0.926285
1629880740416,-0.023851,0.40199,-0.926102
1629880740426,-0.024888,0.40150199999999997,-0.923296
1629880740435,-0.025315,0.402661,-0.9225639999999999
1629880740445,-0.024399999999999998,0.40302699999999997,-0.924028
1629880740455,-0.023912,0.403576,-0.9262239999999999
1629880740464,-0.022203999999999998,0.404491,-0.9274439999999999
1629880740474,-0.021471999999999998,0.404796,-0.9280539999999999
1629880740483,-0.021289,0.40607699999999997,-0.926956
1629880740493,-0.022448,0.405345,-0.926041
1629880740503,-0.02257,0.405955,-0.924943
1629880740512,-0.022509,0.406809,-0.924333
1629880740522,-0.022631,0.40638199999999997,-0.924333
1629880740531,-0.022326,0.406809,-0.9240889999999999
1629880740541,-0.022997,0.406809,-0.924272
1629880740551,-0.022935999999999998,0.40516199999999997,-0.925492
1629880740560,-0.022082,0.405101,-0.92598
1629880740570,-0.022203999999999998,0.403393,-0.926407
1629880740579,-0.02257,0.402356,-0.925858
1629880740589,-0.02257,0.40150199999999997,-0.924943
1629880740599,-0.023302,0.401075,-0.9237839999999999
1629880740608,-0.024399999999999998,0.40138,-0.92415
1629880740618,-0.024399999999999998,0.402356,-0.923723
1629880740627,-0.023912,0.40241699999999997,-0.924028
1629880740637,-0.02318,0.40272199999999997,-0.924821
1629880740647,-0.02257,0.40302699999999997,-0.925675
1629880740656,-0.020984,0.40424699999999997,-0.925675
1629880740666,-0.021228,0.404369,-0.924272
1629880740675,-0.022692,0.404674,-0.924272
1629880740685,-0.021471999999999998,0.40638199999999997,-0.926346
1629880740695,-0.020923,0.405955,-0.928176
1629880740704,-0.019398,0.404186,-0.930067
1629880740714,-0.021045,0.402844,-0.927383
1629880740723,-0.024217,0.40150199999999997,-0.922442
1629880740733,-0.026352,0.400465,-0.921466
1629880740743,-0.02623,0.400648,-0.921832
1629880740752,-0.025803,0.40150199999999997,-0.92415
1629880740762,-0.023485,0.40089199999999997,-0.925858
1629880740771,-0.021838,0.402539,-0.926895
1629880740781,-0.022143,0.402966,-0.927566
1629880740791,-0.021655,0.402844,-0.927688
1629880740800,-0.021533,0.403149,-0.927932
1629880740810,-0.021716,0.403454,-0.926956
1629880740819,-0.022082,0.402905,-0.925431
1629880740829,-0.021716,0.40443,-0.9256139999999999
1629880740839,-0.021838,0.40363699999999997,-0.926346
1629880740848,-0.020191,0.402356,-0.925553
1629880740858,-0.020923,0.401563,-0.926102
1629880740867,-0.02013,0.40150199999999997,-0.9256139999999999
1629880740877,-0.020313,0.40077,-0.925492
1629880740887,-0.020923,0.401014,-0.926407
1629880740896,-0.020435,0.400404,-0.926773
1629880740906,-0.020374,0.40058699999999997,-0.925553
1629880740915,-0.020496,0.40138,-0.925431
1629880740925,-0.019581,0.402478,-0.92598
1629880740935,-0.019947,0.403271,-0.925858
1629880740944,-0.019642,0.403881,-0.9262239999999999
1629880740954,-0.018605,0.40485699999999997,-0.925736
1629880740963,-0.017995,0.404186,-0.925248
1629880740973,-0.017506999999999998,0.404735,-0.925736
1629880740983,-0.017079999999999998,0.403088,-0.925492
1629880740992,-0.019337,0.402966,-0.925065
1629880741002,-0.01891,0.402234,-0.926346
1629880741011,-0.0183,0.40199,-0.925492
1629880741021,-0.017995,0.401075,-0.926346
1629880741031,-0.0183,0.39967199999999997,-0.925675
1629880741040,-0.0183,0.39955,-0.925858
1629880741050,-0.018727,0.400465,-0.9259189999999999
1629880741059,-0.018849,0.400038,-0.925858
1629880741069,-0.01891,0.400343,-0.926102
1629880741079,-0.017629,0.400709,-0.927261
1629880741088,-0.017202,0.401136,-0.9262239999999999
1629880741098,-0.016409,0.40150199999999997,-0.9268339999999999
1629880741107,-0.017568,0.402295,-0.9265289999999999
1629880741117,-0.017202,0.402966,-0.925736
1629880741127,-0.016958,0.403088,-0.924577
1629880741136,-0.017141,0.403759,-0.924577
1629880741146,-0.016958,0.40333199999999997,-0.92476
1629880741155,-0.018422,0.402661,-0.925431
1629880741165,-0.018605,0.402905,-0.9265289999999999
1629880741175,-0.018117,0.402661,-0.92659
1629880741184,-0.018361,0.402478,-0.925065
1629880741194,-0.0183,0.402478,-0.92537
1629880741203,-0.016592,0.40211199999999997,-0.92781
1629880741213,-0.01586,0.401624,-0.929152
1629880741223,-0.017263,0.39936699999999997,-0.927261
1629880741232,-0.01769,0.400465,-0.9262239999999999
1629880741242,-0.017385,0.400465,-0.927322
1629880741251,-0.016592,0.39997699999999997,-0.9280539999999999
1629880741261,-0.018056,0.399428,-0.924821
1629880741271,-0.019337,0.399428,-0.923235
1629880741280,-0.019947,0.399428,-0.923296
1629880741290,-0.018239,0.400038,-0.925492
1629880741299,-0.016714,0.401441,-0.926773
1629880741309,-0.015616,0.402478,-0.927871
1629880741319,-0.015006,0.403271,-0.928176
1629880741328,-0.015799,0.403271,-0.9268339999999999
1629880741338,-0.016774999999999998,0.404125,-0.925736
1629880741347,-0.016653,0.403881,-0.9250039999999999
1629880741357,-0.017568,0.404674,-0.925126
1629880741367,-0.017324,0.404369,-0.924272
1629880741376,-0.017324,0.40516199999999997,-0.92415
1629880741386,-0.017324,0.40455199999999997,-0.924882
1629880741395,-0.016104,0.403454,-0.9262239999999999
1629880741405,-0.015921,0.403454,-0.927261
1629880741415,-0.015372,0.401563,-0.927078
1629880741424,-0.015738,0.40138,-0.927566
1629880741434,-0.016897,0.40028199999999997,-0.9272
1629880741443,-0.016774999999999998,0.399489,-0.9265289999999999
1629880741453,-0.017506999999999998,0.399428,-0.925065
1629880741463,-0.017324,0.40016,-0.925675
1629880741472,-0.017811999999999998,0.400221,-0.924516
1629880741482,-0.017385,0.39955,-0.9262239999999999
1629880741491,-0.015616,0.40089199999999997,-0.927078
1629880741501,-0.015006,0.40211199999999997,-0.926895
1629880741511,-0.015189,0.40241699999999997,-0.925553
1629880741520,-0.015799,0.403515,-0.926163
1629880741530,-0.014274,0.403881,-0.927566
1629880741539,-0.013359,0.402051,-0.929152
1629880741549,-0.014579,0.401258,-0.927993
1629880741559,-0.016042999999999998,0.40150199999999997,-0.9256139999999999
1629880741568,-0.017629,0.40138,-0.92354
1629880741578,-0.016409,0.400953,-0.924333
1629880741587,-0.015311,0.40058699999999997,-0.9246989999999999
1629880741597,-0.015372,0.401075,-0.9250039999999999
1629880741607,-0.015067,0.401319,-0.925065
1629880741616,-0.015372,0.401014,-0.926407
1629880741626,-0.015616,0.40089199999999997,-0.926102
1629880741635,-0.015738,0.401319,-0.927017
1629880741645,-0.015677,0.401136,-0.927261
1629880741655,-0.015677,0.402356,-0.927993
1629880741664,-0.015433,0.402295,-0.927261
1629880741674,-0.015799,0.40272199999999997,-0.92659
1629880741683,-0.015006,0.401746,-0.926346
1629880741693,-0.016287,0.40138,-0.926407
1629880741703,-0.017019,0.40180699999999997,-0.9259189999999999
1629880741712,-0.015433,0.401258,-0.926285
1629880741722,-0.015067,0.400404,-0.927261
1629880741731,-0.015555,0.399306,-0.927261
1629880741741,-0.015189,0.398147,-0.92781
1629880741751,-0.015921,0.397537,-0.927078
1629880741760,-0.01586,0.397964,-0.926163
1629880741770,-0.015921,0.39833,-0.925797
1629880741779,-0.016287,0.397171,-0.926651
1629880741789,-0.016104,0.397903,-0.92598
1629880741799,-0.016347999999999998,0.397964,-0.927078
1629880741808,-0.016226,0.398635,-0.927078
1629880741818,-0.015982,0.399489,-0.927505
1629880741827,-0.015921,0.399489,-0.9274439999999999
1629880741837,-0.015921,0.40089199999999997,-0.9286639999999999
1629880741847,-0.015677,0.400038,-0.928786
1629880741856,-0.016042999999999998,0.40016,-0.92842
1629880741866,-0.015982,0.39894,-0.92781
1629880741875,-0.01586,0.398635,-0.928603
1629880741885,-0.017263,0.398452,-0.92903
1629880741895,-0.016409,0.397964,-0.928237
1629880741904,-0.016774999999999998,0.396683,-0.9280539999999999
1629880741914,-0.0183,0.395402,-0.9286639999999999
1629880741923,-0.018666,0.395646,-0.928542
1629880741933,-0.018666,0.395341,-0.928298
1629880741943,-0.018117,0.394853,-0.927688
1629880741952,-0.019459,0.39527999999999996,-0.927627
1629880741962,-0.018543999999999998,0.396622,-0.927932
1629880741971,-0.019093,0.396805,-0.928481
1629880741981,-0.017263,0.398269,-0.928786
1629880741991,-0.017568,0.399855,-0.928786
1629880742000,-0.015982,0.400953,-0.928542
1629880742010,-0.015738,0.400709,-0.928725
1629880742019,-0.016165,0.40077,-0.927627
1629880742029,-0.017019,0.401075,-0.927566
1629880742039,-0.017324,0.39997699999999997,-0.92659
1629880742048,-0.017263,0.398696,-0.926346
1629880742058,-0.018666,0.398025,-0.9268339999999999
1629880742067,-0.019093,0.397049,-0.9274439999999999
1629880742077,-0.018543999999999998,0.397415,-0.929701
1629880742087,-0.018666,0.396195,-0.9280539999999999
1629880742096,-0.01952,0.396012,-0.9272
1629880742106,-0.017141,0.396561,-0.931287
1629880742115,-0.01586,0.397354,-0.931775
1629880742125,-0.017446,0.395097,-0.929457
1629880742135,-0.018178,0.395158,-0.928481
1629880742144,-0.017141,0.396866,-0.9280539999999999
1629880742154,-0.017873,0.397293,-0.928847
1629880742163,-0.017385,0.397354,-0.92598
1629880742173,-0.018483,0.397598,-0.923906
1629880742183,-0.017629,0.397415,-0.924943
1629880742192,-0.016042999999999998,0.398818,-0.927017
1629880742202,-0.014457,0.39967199999999997,-0.92903
1629880742211,-0.013969,0.399123,-0.930555
1629880742221,-0.014152,0.399428,-0.930006
1629880742231,-0.013908,0.399794,-0.928908
1629880742240,-0.014457,0.400831,-0.9277489999999999
1629880742250,-0.014884,0.401014,-0.926773
1629880742259,-0.016104,0.401258,-0.9256139999999999
1629880742269,-0.015677,0.400648,-0.925492
1629880742279,-0.016531,0.400404,-0.925187
1629880742288,-0.015616,0.399916,-0.926041
1629880742298,-0.015493999999999999,0.399001,-0.9286639999999999
1629880742307,-0.014395999999999999,0.397903,-0.9301889999999999
1629880742317,-0.014335,0.396744,-0.9314089999999999
1629880742327,-0.014761999999999999,0.396317,-0.931531
1629880742336,-0.015616,0.394731,-0.931043
1629880742346,-0.016165,0.393999,-0.9301889999999999
1629880742355,-0.01647,0.393267,-0.9292739999999999
1629880742365,-0.016226,0.39497499999999997,-0.928603
1629880742375,-0.015677,0.394548,-0.928847
1629880742384,-0.014457,0.396012,-0.928237
1629880742394,-0.014029999999999999,0.397354,-0.928786
1629880742403,-0.01342,0.398147,-0.927566
1629880742413,-0.012627,0.398452,-0.927017
1629880742423,-0.01159,0.399428,-0.928481
1629880742432,-0.011467999999999999,0.39997699999999997,-0.929762
1629880742442,-0.010369999999999999,0.397903,-0.930677
1629880742451,-0.01159,0.3965,-0.928298
1629880742461,-0.013847,0.396744,-0.925492
1629880742471,-0.015006,0.395524,-0.9250039999999999
1629880742480,-0.014945,0.394243,-0.925187
1629880742490,-0.013297999999999999,0.394487,-0.9271389999999999
1629880742499,-0.013908,0.393328,-0.9274439999999999
1629880742509,-0.015006,0.393999,-0.9271389999999999
1629880742519,-0.015127999999999999,0.393206,-0.9283589999999999
1629880742528,-0.014335,0.39344999999999997,-0.9289689999999999
1629880742538,-0.014274,0.39375499999999997,-0.9298839999999999
1629880742547,-0.014579,0.393999,-0.928542
1629880742557,-0.014579,0.394609,-0.929701
1629880742567,-0.014274,0.395707,-0.929823
1629880742576,-0.013542,0.3965,-0.930006
1629880742586,-0.012749,0.395951,-0.92964
1629880742595,-0.013054,0.396622,-0.92964
1629880742605,-0.013115,0.396378,-0.92903
1629880742615,-0.012931999999999999,0.396622,-0.927993
1629880742624,-0.013542,0.396195,-0.92842
1629880742634,-0.013725,0.396134,-0.9280539999999999
1629880742643,-0.014701,0.394731,-0.927261
1629880742653,-0.015493999999999999,0.393877,-0.928176
1629880742663,-0.014457,0.393511,-0.928542
1629880742672,-0.014761999999999999,0.393511,-0.929762
1629880742682,-0.015006,0.39405999999999997,-0.930067
1629880742691,-0.015433,0.394182,-0.9295789999999999
1629880742701,-0.01464,0.394609,-0.92964
1629880742711,-0.015372,0.39588999999999996,-0.9295789999999999
1629880742720,-0.015067,0.395646,-0.930372
1629880742730,-0.015799,0.396439,-0.9304939999999999
1629880742739,-0.014823,0.39527999999999996,-0.930921
1629880742749,-0.015799,0.395524,-0.930555
1629880742759,-0.016226,0.394426,-0.931531
1629880742768,-0.015921,0.395097,-0.931348
1629880742778,-0.016104,0.39405999999999997,-0.932202
1629880742787,-0.016287,0.393389,-0.931775
1629880742797,-0.016347999999999998,0.392901,-0.930433
1629880742807,-0.015189,0.392352,-0.929213
1629880742816,-0.015433,0.39253499999999997,-0.9286639999999999
1629880742826,-0.016897,0.391864,-0.926773
1629880742835,-0.016104,0.39192499999999997,-0.9268339999999999
1629880742845,-0.017019,0.391132,-0.927993
1629880742855,-0.018361,0.390217,-0.928908
1629880742864,-0.0183,0.390827,-0.928725
1629880742874,-0.017751,0.392169,-0.9295789999999999
1629880742883,-0.01586,0.39405999999999997,-0.927932
1629880742893,-0.015127999999999999,0.394731,-0.928725
1629880742903,-0.014945,0.395402,-0.9280539999999999
1629880742912,-0.014029999999999999,0.397232,-0.92903
1629880742922,-0.01525,0.397171,-0.928786
1629880742931,-0.017202,0.396134,-0.927627
1629880742941,-0.01647,0.396317,-0.927383
1629880742951,-0.014518,0.396744,-0.9298839999999999
1629880742960,-0.015127999999999999,0.398208,-0.929945
1629880742970,-0.015189,0.397964,-0.9283589999999999
1629880742979,-0.016226,0.397171,-0.929152
1629880742989,-0.017141,0.396866,-0.928786
1629880742999,-0.01525,0.398208,-0.92842
1629880743008,-0.014579,0.400953,-0.9292739999999999
1629880743018,-0.014761999999999999,0.400465,-0.929457
1629880743027,-0.014884,0.400404,-0.928725
1629880743037,-0.015677,0.39967199999999997,-0.92781
1629880743047,-0.016714,0.398696,-0.926468
1629880743056,-0.015799,0.39772,-0.928725
1629880743066,-0.016714,0.395524,-0.928847
1629880743075,-0.017811999999999998,0.394792,-0.928786
1629880743085,-0.018361,0.39375499999999997,-0.930128
1629880743095,-0.018361,0.394487,-0.929396
1629880743104,-0.01769,0.39344999999999997,-0.928542
1629880743114,-0.016347999999999998,0.394426,-0.931897
1629880743123,-0.015616,0.394304,-0.93208
1629880743133,-0.017141,0.393023,-0.930677
1629880743143,-0.017568,0.392413,-0.931836
1629880743152,-0.016104,0.394426,-0.931226
1629880743162,-0.017202,0.393511,-0.930982
1629880743171,-0.017506999999999998,0.393694,-0.927932
1629880743181,-0.018483,0.394487,-0.924516
1629880743191,-0.018788,0.394792,-0.925248
1629880743200,-0.016104,0.395402,-0.928542
1629880743210,-0.014274,0.396744,-0.930433
1629880743219,-0.013176,0.397598,-0.9311039999999999
1629880743229,-0.012993,0.397537,-0.931043
1629880743239,-0.013176,0.398269,-0.9314089999999999
1629880743248,-0.013786,0.398879,-0.929396
1629880743258,-0.014761999999999999,0.398696,-0.927932
1629880743267,-0.015677,0.398452,-0.925858
1629880743277,-0.01586,0.397476,-0.9268339999999999
1629880743287,-0.015738,0.395829,-0.9262239999999999
1629880743296,-0.016409,0.393938,-0.926407
1629880743306,-0.016226,0.392718,-0.927322
1629880743315,-0.016347999999999998,0.39192499999999997,-0.929701
1629880743325,-0.015311,0.391437,-0.930433
1629880743335,-0.016409,0.390827,-0.931226
1629880743344,-0.016165,0.39100999999999997,-0.930616
1629880743354,-0.016287,0.39161999999999997,-0.9301889999999999
1629880743363,-0.015799,0.391254,-0.930006
1629880743373,-0.015738,0.391071,-0.929335
1629880743383,-0.016104,0.390888,-0.9298839999999999
1629880743392,-0.016104,0.39039999999999997,-0.9298839999999999
1629880743402,-0.016347999999999998,0.390827,-0.930433
1629880743411,-0.015311,0.39131499999999997,-0.930372
1629880743421,-0.015067,0.39283999999999997,-0.928847
1629880743431,-0.015006,0.394609,-0.929518
1629880743440,-0.014091,0.396622,-0.9301889999999999
1629880743450,-0.012931999999999999,0.397171,-0.931531
1629880743459,-0.011833999999999999,0.397049,-0.932202
1629880743469,-0.013115,0.396195,-0.929396
1629880743479,-0.016714,0.395707,-0.9272
1629880743488,-0.016653,0.39497499999999997,-0.927261
1629880743498,-0.016714,0.39527999999999996,-0.92781
1629880743507,-0.016347999999999998,0.394182,-0.929213
1629880743517,-0.016042999999999998,0.39466999999999997,-0.92964
1629880743527,-0.014945,0.395341,-0.930128
1629880743536,-0.015555,0.395341,-0.931653
1629880743546,-0.01464,0.396134,-0.9323239999999999
1629880743555,-0.015127999999999999,0.396317,-0.9311039999999999
1629880743565,-0.015493999999999999,0.396683,-0.929701
1629880743575,-0.016226,0.397171,-0.928237
1629880743584,-0.016287,0.3965,-0.928176
1629880743594,-0.015982,0.395768,-0.927322
1629880743603,-0.016592,0.395219,-0.928298
1629880743613,-0.016347999999999998,0.394182,-0.9283589999999999
1629880743623,-0.016774999999999998,0.393572,-0.928908
1629880743632,-0.017141,0.393084,-0.928176
1629880743642,-0.018117,0.39283999999999997,-0.928542
1629880743651,-0.018178,0.39253499999999997,-0.92903
1629880743661,-0.018056,0.39222999999999997,-0.928786
1629880743671,-0.01769,0.39222999999999997,-0.9292739999999999
1629880743680,-0.018239,0.393084,-0.92903
1629880743690,-0.018483,0.393511,-0.928847
1629880743699,-0.017873,0.393816,-0.928542
1629880743709,-0.017446,0.39436499999999997,-0.928237
1629880743719,-0.017751,0.394304,-0.928908
1629880743728,-0.018483,0.39405999999999997,-0.929335
1629880743738,-0.017263,0.394548,-0.930921
1629880743747,-0.017079999999999998,0.394182,-0.9314089999999999
1629880743757,-0.016958,0.394792,-0.930982
1629880743767,-0.017629,0.394487,-0.93025
1629880743776,-0.017873,0.39436499999999997,-0.930738
1629880743786,-0.017324,0.393572,-0.931226
1629880743795,-0.017873,0.393206,-0.930372
1629880743805,-0.017202,0.39344999999999997,-0.930433
1629880743815,-0.017446,0.392718,-0.9317139999999999
1629880743824,-0.016774999999999998,0.392779,-0.931043
1629880743834,-0.016897,0.391986,-0.931287
1629880743843,-0.018056,0.39039999999999997,-0.931775
1629880743853,-0.017934,0.390522,-0.9311039999999999
1629880743863,-0.017629,0.390278,-0.929762
1629880743872,-0.01769,0.390583,-0.930982
1629880743882,-0.018543999999999998,0.390827,-0.93025
1629880743891,-0.016409,0.391254,-0.931592
1629880743901,-0.016165,0.391498,-0.930555
1629880743911,-0.015555,0.391559,-0.9307989999999999
1629880743920,-0.015372,0.392108,-0.93147
1629880743930,-0.01464,0.392718,-0.9311039999999999
1629880743939,-0.014701,0.39314499999999997,-0.930128
1629880743949,-0.015555,0.392657,-0.9298839999999999
1629880743959,-0.016774999999999998,0.391376,-0.9292739999999999
1629880743968,-0.016958,0.389912,-0.929213
1629880743978,-0.017324,0.389912,-0.929701
1629880743987,-0.016592,0.389607,-0.93025
1629880743997,-0.017385,0.388936,-0.931348
1629880744007,-0.016897,0.38948499999999997,-0.930982
1629880744016,-0.017079999999999998,0.389668,-0.9311039999999999
1629880744026,-0.017568,0.388997,-0.9304939999999999
1629880744035,-0.017811999999999998,0.388997,-0.929396
1629880744045,-0.018239,0.388997,-0.9301889999999999
1629880744055,-0.018483,0.388448,-0.930128
1629880744064,-0.01891,0.387228,-0.9301889999999999
1629880744074,-0.018727,0.388326,-0.9320189999999999
1629880744083,-0.018543999999999998,0.389851,-0.932446
1629880744093,-0.018727,0.38917999999999997,-0.932202
1629880744103,-0.017141,0.389607,-0.934581
1629880744112,-0.015555,0.390034,-0.93574
1629880744122,-0.016958,0.387411,-0.933666
1629880744131,-0.017263,0.387167,-0.933178
1629880744141,-0.0183,0.388326,-0.933056
1629880744151,-0.017751,0.388936,-0.93147
1629880744160,-0.017995,0.388692,-0.9292739999999999
1629880744170,-0.019032,0.389058,-0.9274439999999999
1629880744179,-0.018483,0.390034,-0.9271389999999999
1629880744189,-0.016897,0.39100999999999997,-0.92842
1629880744199,-0.015493999999999999,0.392474,-0.9307989999999999
1629880744208,-0.01342,0.39497499999999997,-0.9326289999999999
1629880744218,-0.01281,0.395158,-0.933666
1629880744227,-0.013115,0.3965,-0.932873
1629880744237,-0.013786,0.396622,-0.9317139999999999
1629880744247,-0.014884,0.396744,-0.930616
1629880744256,-0.016347999999999998,0.397476,-0.927261
1629880744266,-0.016714,0.396744,-0.927078
1629880744275,-0.017202,0.394731,-0.926712
1629880744285,-0.017079999999999998,0.395036,-0.928176
1629880744295,-0.016226,0.392962,-0.929335
1629880744304,-0.016042999999999998,0.391498,-0.931043
1629880744314,-0.016531,0.390827,-0.932141
1629880744323,-0.017324,0.389668,-0.932995
1629880744333,-0.017385,0.389912,-0.93269
1629880744343,-0.018361,0.389363,-0.931043
1629880744352,-0.018239,0.390278,-0.929396
1629880744362,-0.018971,0.39100999999999997,-0.929701
1629880744371,-0.018727,0.390949,-0.929396
1629880744381,-0.018178,0.39253499999999997,-0.929518
1629880744391,-0.017506999999999998,0.393084,-0.92964
1629880744400,-0.017385,0.394121,-0.929762
1629880744410,-0.017446,0.393511,-0.928725
1629880744419,-0.016714,0.394304,-0.9298839999999999
1629880744429,-0.015555,0.394487,-0.93147
1629880744439,-0.014395999999999999,0.394731,-0.933422
1629880744448,-0.015006,0.393206,-0.9329339999999999
1629880744458,-0.016409,0.39222999999999997,-0.928603
1629880744467,-0.018788,0.390583,-0.924943
1629880744477,-0.020252,0.389546,-0.92415
1629880744487,-0.019886,0.389058,-0.9262239999999999
1629880744496,-0.01891,0.389058,-0.9292739999999999
1629880744506,-0.017141,0.389546,-0.930006
1629880744515,-0.016714,0.390217,-0.931348
1629880744525,-0.016774999999999998,0.390827,-0.933178
1629880744535,-0.016104,0.392657,-0.93452
1629880744544,-0.016104,0.391864,-0.934032
1629880744554,-0.016714,0.392901,-0.932141
1629880744563,-0.017446,0.393572,-0.932202
1629880744573,-0.0183,0.393633,-0.931287
1629880744583,-0.017385,0.392901,-0.930982
1629880744592,-0.016714,0.392413,-0.931531
1629880744602,-0.016042999999999998,0.391132,-0.9323239999999999
1629880744611,-0.01647,0.390522,-0.932385
1629880744621,-0.016836,0.389729,-0.931531
1629880744631,-0.017019,0.389546,-0.930616
1629880744640,-0.017263,0.38826499999999997,-0.92964
1629880744650,-0.017811999999999998,0.388326,-0.930128
1629880744659,-0.017568,0.389058,-0.929457
1629880744669,-0.017019,0.388326,-0.9298839999999999
1629880744679,-0.015982,0.388753,-0.92964
1629880744688,-0.016165,0.389607,-0.92842
1629880744698,-0.0183,0.389058,-0.9274439999999999
1629880744707,-0.017263,0.389119,-0.928725
1629880744717,-0.017202,0.390461,-0.931958
1629880744727,-0.016165,0.391437,-0.9323239999999999
1629880744736,-0.017141,0.39222999999999997,-0.932446
1629880744746,-0.017446,0.392047,-0.932202
1629880744755,-0.017446,0.391254,-0.9307989999999999
1629880744765,-0.017019,0.392352,-0.931165
1629880744775,-0.018056,0.391498,-0.932263
1629880744784,-0.017263,0.390156,-0.9320189999999999
1629880744794,-0.017873,0.389241,-0.9329339999999999
1629880744803,-0.018483,0.388204,-0.932507
1629880744813,-0.018788,0.387533,-0.9317139999999999
1629880744823,-0.02013,0.386435,-0.931043
1629880744832,-0.020252,0.385764,-0.931592
1629880744842,-0.02013,0.386008,-0.930982
1629880744851,-0.020739999999999998,0.386679,-0.932202
1629880744861,-0.019642,0.387045,-0.93208
1629880744871,-0.017934,0.388692,-0.9326289999999999
1629880744880,-0.016958,0.38917999999999997,-0.933666
1629880744890,-0.017568,0.389241,-0.93269
1629880744899,-0.018422,0.390461,-0.931958
1629880744909,-0.016165,0.39039999999999997,-0.933178
1629880744919,-0.016958,0.389546,-0.931592
1629880744928,-0.018239,0.38887499999999997,-0.9311039999999999
1629880744938,-0.018727,0.389546,-0.930677
1629880744947,-0.018727,0.387838,-0.9311039999999999
1629880744957,-0.017568,0.388387,-0.9314089999999999
1629880744967,-0.017324,0.388997,-0.931592
1629880744976,-0.016714,0.388631,-0.931897
1629880744986,-0.01769,0.388631,-0.929945
1629880744995,-0.018117,0.388387,-0.930555
1629880745005,-0.019032,0.388204,-0.931348
1629880745015,-0.018971,0.38856999999999997,-0.931531
1629880745024,-0.019093,0.387777,-0.931836
1629880745034,-0.019947,0.387167,-0.932507
1629880745043,-0.02013,0.388204,-0.932568
1629880745053,-0.020007999999999998,0.38734999999999997,-0.9333
1629880745063,-0.019093,0.387289,-0.933666
1629880745072,-0.018056,0.385947,-0.934093
1629880745082,-0.01769,0.386374,-0.9344589999999999
1629880745091,-0.020007999999999998,0.383629,-0.9326289999999999
1629880745101,-0.019154,0.38265299999999997,-0.9329339999999999
1629880745111,-0.018849,0.384361,-0.933178
1629880745120,-0.019093,0.385642,-0.9333
1629880745130,-0.018239,0.386313,-0.933422
1629880745139,-0.018117,0.387777,-0.9311039999999999
1629880745149,-0.018727,0.387472,-0.930006
1629880745159,-0.018239,0.388021,-0.930555
1629880745168,-0.015799,0.38887499999999997,-0.933727
1629880745178,-0.015006,0.389668,-0.9365939999999999
1629880745187,-0.013847,0.389607,-0.93635
1629880745197,-0.013542,0.389607,-0.934703
1629880745207,-0.013847,0.389424,-0.934825
1629880745216,-0.014335,0.390156,-0.931653
1629880745226,-0.014945,0.389729,-0.929213
1629880745235,-0.015127999999999999,0.389424,-0.9295789999999999
1629880745245,-0.015127999999999999,0.389424,-0.929213
1629880745255,-0.014945,0.388143,-0.928786
1629880745264,-0.015311,0.387899,-0.928908
1629880745274,-0.014761999999999999,0.38734999999999997,-0.931287
1629880745283,-0.014579,0.386923,-0.9323239999999999
1629880745293,-0.014335,0.386252,-0.933788
1629880745303,-0.014395999999999999,0.38613,-0.9341539999999999
1629880745312,-0.015189,0.386618,-0.933666
1629880745322,-0.015433,0.385642,-0.933971
