timestamp,ax,ay,az
1629880896389,-0.32452,-0.778726,-0.531981
1629880896399,-0.325374,-0.7792749999999999,-0.530944
1629880896408,-0.325862,-0.7795799999999999,-0.530456
1629880896418,-0.325984,-0.7798849999999999,-0.531066
1629880896428,-0.324825,-0.779214,-0.532164
1629880896437,-0.325008,-0.779214,-0.533201
1629880896447,-0.324032,-0.7798849999999999,-0.532408
1629880896456,-0.323605,-0.779824,-0.532896
1629880896466,-0.324703,-0.779702,-0.532103
1629880896476,-0.323544,-0.778848,-0.532408
1629880896485,-0.324154,-0.781532,-0.532164
1629880896495,-0.324093,-0.783606,-0.533018
1629880896504,-0.3233,-0.785558,-0.532774
1629880896514,-0.322629,-0.783667,-0.530029
1629880896524,-0.324215,-0.780678,-0.526552
1629880896533,-0.324398,-0.7789699999999999,-0.524478
1629880896543,-0.324459,-0.779824,-0.524295
1629880896552,-0.325923,-0.782569,-0.526674
1629880896562,-0.325374,-0.783911,-0.528504
1629880896572,-0.325069,-0.786229,-0.530212
1629880896581,-0.324642,-0.787632,-0.532225
1629880896591,-0.325679,-0.786778,-0.533323
1629880896600,-0.326533,-0.787327,-0.533323
1629880896610,-0.326716,-0.786351,-0.530883
1629880896620,-0.327204,-0.785497,-0.52948
1629880896629,-0.326167,-0.784216,-0.52887
1629880896639,-0.325862,-0.783118,-0.527345
1629880896648,-0.325679,-0.782996,-0.52826
1629880896658,-0.325618,-0.782264,-0.529419
1629880896668,-0.324825,-0.781959,-0.53009
1629880896677,-0.325496,-0.780739,-0.530334
1629880896687,-0.325557,-0.777994,-0.531066
1629880721620,-0.326106,-0.683871,-0.678503
1629880721629,-0.329766,-0.683566,-0.675697
1629880721639,-0.331779,-0.679662,-0.67466
1629880721649,-0.336415,-0.672952,-0.673623
1629880721658,-0.34038,-0.667279,-0.674111
1629880721668,-0.341478,-0.664107,-0.675453
1629880721677,-0.343125,-0.659837,-0.674965
1629880721687,-0.34538199999999997,-0.659349,-0.676978
1629880721697,-0.34465,-0.659288,-0.678808
1629880721706,-0.345138,-0.659593,-0.680028
1629880721716,-0.34465,-0.658251,-0.681187
1629880721725,-0.345931,-0.6578849999999999,-0.680882
1629880721735,-0.34648,-0.656726,-0.6803939999999999
1629880721745,-0.349225,-0.655201,-0.679845
1629880721754,-0.349652,-0.656116,-0.679967
1629880721764,-0.350811,-0.655506,-0.678259
1629880721773,-0.350506,-0.65148,-0.672708
1629880721783,-0.351177,-0.64904,-0.671183
1629880721793,-0.349408,-0.651236,-0.670634
1629880721802,-0.347883,-0.6527,-0.674355
1629880721812,-0.346419,-0.654286,-0.679235
1629880721821,-0.345138,-0.657153,-0.683566
1629880721831,-0.343369,-0.656116,-0.6828339999999999
1629880721841,-0.342515,-0.651968,-0.678564
1629880721850,-0.343003,-0.649955,-0.675636
1629880721860,-0.339648,-0.649467,-0.676795
1629880721869,-0.338794,-0.649589,-0.681675
1629880721879,-0.337635,-0.649345,-0.6822239999999999
1629880721889,-0.338062,-0.652212,-0.683322
1629880721898,-0.336598,-0.655323,-0.6861889999999999
1629880721908,-0.336171,-0.6527,-0.6828339999999999
1629880721917,-0.334219,-0.652578,-0.681431
1629880721927,-0.330986,-0.6557499999999999,-0.6828339999999999
1629880721937,-0.328302,-0.6569699999999999,-0.67954
1629880721946,-0.324154,-0.660447,-0.676917
1629880721956,-0.32147,-0.661423,-0.674782
1629880721965,-0.317871,-0.660447,-0.671244
1629880721975,-0.313296,-0.656726,-0.67161
1629880721985,-0.307928,-0.651907,-0.67466
1629880721994,-0.303292,-0.647027,-0.670207
1629880722004,-0.301035,-0.6451359999999999,-0.667401
1629880722013,-0.301645,-0.649467,-0.661362
1629880722023,-0.302621,-0.652944,-0.653676
1629880722033,-0.302438,-0.660203,-0.648125
1629880722042,-0.302438,-0.665632,-0.64172
1629880722052,-0.302621,-0.668194,-0.637938
1629880722061,-0.302011,-0.6697799999999999,-0.637877
1629880722071,-0.303597,-0.667706,-0.640317
1629880722081,-0.305183,-0.660081,-0.651968
1629880722090,-0.303292,-0.651846,-0.666608
1629880722100,-0.306769,-0.64294,-0.677344
1629880722109,-0.312808,-0.635559,-0.684908
1629880722119,-0.314882,-0.634217,-0.689361
1629880722129,-0.320616,-0.6344,-0.6840539999999999
1629880722138,-0.325923,-0.6417809999999999,-0.679235
1629880722148,-0.325862,-0.6563599999999999,-0.667462
1629880722157,-0.326899,-0.667584,-0.657153
1629880722167,-0.330559,-0.683261,-0.654774
1629880722177,-0.330681,-0.696925,-0.656848
1629880722186,-0.332938,-0.701866,-0.662948
1629880722196,-0.337147,-0.701622,-0.668194
1629880722205,-0.34221,-0.700402,-0.675575
1629880722215,-0.348615,-0.695888,-0.678808
1629880722225,-0.353861,-0.6907639999999999,-0.683993
1629880722234,-0.35922899999999997,-0.688873,-0.686616
1629880722244,-0.360022,-0.685518,-0.685762
1629880722253,-0.363072,-0.68015,-0.683627
1629880722263,-0.36295,-0.676856,-0.680516
1629880722273,-0.358436,-0.670024,-0.678747
1629880722282,-0.356057,-0.664168,-0.67954
1629880722292,-0.35648399999999997,-0.659837,-0.676612
1629880722301,-0.357948,-0.652822,-0.67954
1629880722311,-0.35526399999999997,-0.652456,-0.6825289999999999
1629880722321,-0.353068,-0.649894,-0.684542
1629880722330,-0.352946,-0.646661,-0.682956
1629880722340,-0.351543,-0.643672,-0.678625
1629880722349,-0.35136,-0.638975,-0.675697
1629880722359,-0.348676,-0.6347659999999999,-0.672891
1629880722369,-0.34568699999999997,-0.62952,-0.670878
1629880722378,-0.344284,-0.626287,-0.67222
1629880722388,-0.34282,-0.622444,-0.671061
1629880722397,-0.34282,-0.62342,-0.675148
1629880722407,-0.341478,-0.62647,-0.676978
1629880722417,-0.34050199999999997,-0.629276,-0.6794789999999999
1629880722426,-0.338306,-0.63501,-0.6828339999999999
1629880722436,-0.335439,-0.638914,-0.682163
1629880722445,-0.332999,-0.6408659999999999,-0.6813089999999999
1629880722455,-0.332877,-0.640439,-0.677283
1629880722465,-0.333243,-0.6405609999999999,-0.672464
1629880722474,-0.333121,-0.642513,-0.671122
1629880722484,-0.334707,-0.646417,-0.67222
1629880722493,-0.335134,-0.648064,-0.672708
1629880722503,-0.334829,-0.651663,-0.672769
1629880722513,-0.334097,-0.655018,-0.673623
1629880722522,-0.333426,-0.658739,-0.673989
1629880722532,-0.33183999999999997,-0.657153,-0.672037
1629880722541,-0.333853,-0.653493,-0.671305
1629880722551,-0.335256,-0.651602,-0.671366
1629880722561,-0.335683,-0.647088,-0.671488
1629880722570,-0.338855,-0.6448309999999999,-0.674416
1629880722580,-0.339099,-0.645868,-0.67588
1629880722589,-0.343308,-0.647515,-0.677466
1629880722599,-0.343308,-0.654042,-0.6797839999999999
1629880722609,-0.344711,-0.659227,-0.678625
1629880722618,-0.343308,-0.662216,-0.677588
1629880722628,-0.341478,-0.662338,-0.678015
1629880722637,-0.341173,-0.662094,-0.678991
1629880722647,-0.342576,-0.659532,-0.678015
1629880722657,-0.345443,-0.658861,-0.67832
1629880722666,-0.34587,-0.656726,-0.678869
1629880722676,-0.34629699999999997,-0.656726,-0.679418
1629880722685,-0.34690699999999997,-0.656848,-0.679296
1629880722695,-0.345138,-0.656299,-0.678259
1629880722705,-0.343796,-0.654408,-0.67649
1629880722714,-0.34477199999999997,-0.649894,-0.674294
1629880722724,-0.344894,-0.650321,-0.676612
1629880722733,-0.345748,-0.650626,-0.675758
1629880722743,-0.347639,-0.651785,-0.676063
1629880722753,-0.347029,-0.653798,-0.674538
1629880722762,-0.34465,-0.652639,-0.670878
1629880722772,-0.34355199999999997,-0.650016,-0.668133
1629880722781,-0.343918,-0.650443,-0.667706
1629880722791,-0.342576,-0.649711,-0.67039
1629880722801,-0.341966,-0.651663,-0.673928
1629880722810,-0.343003,-0.650565,-0.674416
1629880722820,-0.343491,-0.650992,-0.673806
1629880722829,-0.342698,-0.652944,-0.674111
1629880722839,-0.34202699999999997,-0.654591,-0.673074
1629880722849,-0.342515,-0.653554,-0.669841
1629880722858,-0.341478,-0.651968,-0.6679499999999999
1629880722868,-0.340868,-0.653432,-0.6667299999999999
1629880722877,-0.342576,-0.650321,-0.665998
1629880722887,-0.341478,-0.65026,-0.669231
1629880722897,-0.341966,-0.650748,-0.67161
1629880722906,-0.34263699999999997,-0.651846,-0.673318
1629880722916,-0.342271,-0.652639,-0.672952
1629880722925,-0.341905,-0.653188,-0.670817
1629880722935,-0.340563,-0.654225,-0.672525
1629880722945,-0.341173,-0.654652,-0.670939
1629880722954,-0.342393,-0.655323,-0.672586
1629880722964,-0.342759,-0.657092,-0.671732
1629880722973,-0.343186,-0.6566649999999999,-0.6688649999999999
1629880722983,-0.34263699999999997,-0.657153,-0.667889
1629880722993,-0.34202699999999997,-0.655994,-0.668438
1629880723002,-0.339404,-0.658129,-0.669109
1629880723012,-0.339526,-0.659532,-0.670146
1629880723021,-0.337757,-0.658922,-0.668133
1629880723031,-0.338733,-0.658617,-0.667462
1629880723041,-0.338855,-0.657702,-0.667462
1629880723050,-0.338428,-0.656421,-0.668011
1629880723060,-0.338428,-0.657519,-0.668621
1629880723069,-0.340319,-0.657458,-0.670695
1629880723079,-0.341966,-0.656848,-0.670512
1629880723089,-0.3416,-0.658312,-0.669841
1629880723098,-0.341234,-0.659044,-0.668194
1629880723108,-0.340014,-0.660813,-0.669048
1629880723117,-0.340685,-0.661118,-0.6688649999999999
1629880723127,-0.341051,-0.659898,-0.669658
1629880723137,-0.340624,-0.6591049999999999,-0.669719
1629880723146,-0.34172199999999997,-0.6587999999999999,-0.668804
1629880723156,-0.341844,-0.657031,-0.6697799999999999
1629880723165,-0.343125,-0.656177,-0.6691699999999999
1629880723175,-0.343308,-0.6563599999999999,-0.6688649999999999
1629880723185,-0.343369,-0.656848,-0.668194
1629880723194,-0.343003,-0.6572749999999999,-0.668621
1629880723204,-0.341661,-0.655323,-0.668011
1629880723213,-0.343369,-0.655018,-0.667462
1629880723223,-0.342515,-0.655933,-0.6688649999999999
1629880723233,-0.342759,-0.6578849999999999,-0.669597
1629880723242,-0.34221,-0.6594099999999999,-0.669841
1629880723252,-0.3416,-0.658861,-0.667523
1629880723261,-0.34263699999999997,-0.657092,-0.665754
1629880723271,-0.342759,-0.6569699999999999,-0.665876
1629880723281,-0.343003,-0.652029,-0.662948
1629880723290,-0.34526,-0.650687,-0.664412
1629880723300,-0.345199,-0.653798,-0.6688649999999999
1629880723309,-0.343613,-0.6557499999999999,-0.671305
1629880723319,-0.342271,-0.657336,-0.673013
1629880723329,-0.339648,-0.6609349999999999,-0.675209
1629880723338,-0.340075,-0.662826,-0.672708
1629880723348,-0.34202699999999997,-0.6630699999999999,-0.667279
1629880723357,-0.342576,-0.6630699999999999,-0.664534
1629880723367,-0.34294199999999997,-0.664168,-0.662521
1629880723377,-0.340868,-0.662826,-0.662216
1629880723386,-0.341234,-0.662704,-0.662399
1629880723396,-0.340929,-0.664473,-0.662338
1629880723405,-0.340624,-0.662704,-0.662033
1629880723415,-0.340075,-0.6636799999999999,-0.6639849999999999
1629880723425,-0.339038,-0.6645949999999999,-0.666242
1629880723434,-0.339038,-0.663863,-0.665144
1629880723444,-0.340929,-0.663619,-0.663253
1629880723453,-0.34202699999999997,-0.662826,-0.663558
1629880723463,-0.34141699999999997,-0.662277,-0.6612399999999999
1629880723473,-0.340929,-0.660203,-0.660508
1629880723482,-0.341478,-0.6594099999999999,-0.661423
1629880723492,-0.341905,-0.658312,-0.6636799999999999
1629880723501,-0.34221,-0.656177,-0.6661199999999999
1629880723511,-0.343064,-0.655994,-0.667096
1629880723521,-0.343918,-0.656787,-0.667706
1629880723530,-0.34568699999999997,-0.657153,-0.668743
1629880723540,-0.345809,-0.659959,-0.670512
1629880723549,-0.34526,-0.662216,-0.670573
1629880723559,-0.34526,-0.661118,-0.6673399999999999
1629880723569,-0.34648,-0.6600199999999999,-0.664351
1629880723578,-0.347334,-0.6603249999999999,-0.665449
1629880723588,-0.34690699999999997,-0.658861,-0.6652049999999999
1629880723597,-0.347578,-0.657031,-0.666364
1629880723607,-0.346358,-0.6575799999999999,-0.669597
1629880723617,-0.34629699999999997,-0.658068,-0.670878
1629880723626,-0.346114,-0.656116,-0.669658
1629880723636,-0.34648,-0.655384,-0.6694749999999999
1629880723645,-0.346358,-0.655079,-0.670817
1629880723655,-0.345931,-0.654408,-0.668804
1629880723665,-0.34629699999999997,-0.65514,-0.669414
1629880723674,-0.34446699999999997,-0.658312,-0.670024
1629880723684,-0.34404,-0.6578849999999999,-0.669902
1629880723693,-0.343125,-0.655079,-0.669231
1629880723703,-0.341356,-0.653066,-0.669658
1629880723713,-0.340624,-0.652334,-0.671305
1629880723722,-0.3416,-0.6527,-0.671854
1629880723732,-0.342088,-0.654225,-0.669658
1629880723741,-0.34172199999999997,-0.656116,-0.6691699999999999
1629880723751,-0.340319,-0.6587999999999999,-0.668011
1629880723761,-0.338733,-0.660142,-0.666303
1629880723770,-0.336476,-0.6603249999999999,-0.665022
1629880723780,-0.337391,-0.659471,-0.664656
1629880723789,-0.338062,-0.6584949999999999,-0.664229
1629880723799,-0.339709,-0.6603249999999999,-0.665266
1629880723809,-0.339465,-0.6603249999999999,-0.666547
1629880723818,-0.339526,-0.661362,-0.668316
1629880723828,-0.339831,-0.663314,-0.667279
1629880723837,-0.33958699999999997,-0.663558,-0.666486
1629880723847,-0.339648,-0.662643,-0.665144
1629880723857,-0.34080699999999997,-0.660142,-0.666486
1629880723866,-0.340685,-0.659471,-0.668438
1629880723876,-0.340746,-0.6578849999999999,-0.669414
1629880723885,-0.341234,-0.656116,-0.669597
1629880723895,-0.342149,-0.654896,-0.670634
1629880723905,-0.34233199999999997,-0.655018,-0.672342
1629880723914,-0.343064,-0.655079,-0.671671
1629880723924,-0.34263699999999997,-0.654896,-0.670207
1629880723933,-0.343308,-0.656543,-0.668804
1629880723943,-0.34282,-0.658556,-0.669109
1629880723953,-0.34221,-0.659166,-0.670329
1629880723962,-0.34221,-0.658678,-0.671488
1629880723972,-0.342393,-0.6584949999999999,-0.672281
1629880723981,-0.342576,-0.657763,-0.672525
1629880723991,-0.343613,-0.657031,-0.672281
1629880724001,-0.343796,-0.656909,-0.671793
1629880724010,-0.342698,-0.65392,-0.673745
1629880724020,-0.343064,-0.653859,-0.672891
1629880724029,-0.341966,-0.652334,-0.672037
1629880724039,-0.341478,-0.651541,-0.672952
1629880724049,-0.341356,-0.651114,-0.674904
1629880724058,-0.342393,-0.651114,-0.676856
1629880724068,-0.340624,-0.652273,-0.677466
1629880724077,-0.340075,-0.651602,-0.67466
1629880724087,-0.34233199999999997,-0.650199,-0.673928
1629880724097,-0.342088,-0.650565,-0.671549
1629880724106,-0.342393,-0.649284,-0.673196
1629880724116,-0.342271,-0.649589,-0.676063
1629880724125,-0.341234,-0.649406,-0.675392
1629880724135,-0.338672,-0.646722,-0.670878
1629880724145,-0.33672,-0.643794,-0.668682
1629880724154,-0.33733,-0.646356,-0.671915
1629880724164,-0.337147,-0.649284,-0.673928
1629880724173,-0.339526,-0.653066,-0.673562
1629880724183,-0.34080699999999997,-0.6572749999999999,-0.671366
1629880724193,-0.341966,-0.660752,-0.669109
1629880724202,-0.341844,-0.662704,-0.666791
1629880724212,-0.341844,-0.662582,-0.667096
1629880724221,-0.34050199999999997,-0.661301,-0.667218
1629880724231,-0.340441,-0.658434,-0.667096
1629880724241,-0.341478,-0.654713,-0.668682
1629880724250,-0.34019699999999997,-0.654103,-0.671366
1629880724260,-0.341844,-0.652822,-0.671488
1629880724269,-0.342698,-0.652334,-0.671915
1629880724279,-0.344101,-0.65209,-0.671
1629880724289,-0.34446699999999997,-0.653127,-0.671244
1629880724298,-0.34587,-0.653737,-0.671732
1629880724308,-0.345321,-0.655811,-0.672037
1629880724317,-0.345626,-0.656848,-0.672708
1629880724327,-0.346785,-0.656604,-0.672464
1629880724337,-0.347151,-0.656421,-0.671976
1629880724346,-0.347517,-0.654225,-0.671732
1629880724356,-0.346724,-0.653737,-0.673074
1629880724365,-0.345748,-0.654347,-0.67649
1629880724375,-0.345016,-0.65392,-0.679418
1629880724385,-0.343613,-0.653432,-0.68015
1629880724394,-0.34355199999999997,-0.652029,-0.6791739999999999
1629880724404,-0.342881,-0.649955,-0.676368
1629880724413,-0.343674,-0.64782,-0.673196
1629880724423,-0.34324699999999997,-0.646844,-0.669597
1629880724433,-0.34263699999999997,-0.649589,-0.671427
1629880724442,-0.340258,-0.653798,-0.671305
1629880724452,-0.34172199999999997,-0.654164,-0.671854
1629880724461,-0.340929,-0.656238,-0.673684
1629880724471,-0.340929,-0.657458,-0.672586
1629880724481,-0.339831,-0.6581899999999999,-0.670695
1629880724490,-0.34111199999999997,-0.6572749999999999,-0.668316
1629880724500,-0.340868,-0.654469,-0.665327
1629880724509,-0.340685,-0.654835,-0.666974
1629880724519,-0.341173,-0.655567,-0.668926
1629880724529,-0.341661,-0.654896,-0.668743
1629880724538,-0.341356,-0.655262,-0.670573
1629880724548,-0.34099,-0.654225,-0.672891
1629880724557,-0.341295,-0.65392,-0.672769
1629880724567,-0.342576,-0.652822,-0.674416
1629880724577,-0.343308,-0.65148,-0.675697
1629880724586,-0.344223,-0.650138,-0.676978
1629880724596,-0.344894,-0.649772,-0.679052
1629880724605,-0.343918,-0.648552,-0.680028
1629880724615,-0.34221,-0.650016,-0.683627
1629880724625,-0.33958699999999997,-0.647088,-0.6834439999999999
1629880724634,-0.33855,-0.641964,-0.677283
1629880724644,-0.341356,-0.635437,-0.671244
1629880724653,-0.342271,-0.63745,-0.671854
1629880724663,-0.342271,-0.642452,-0.671854
1629880724673,-0.342881,-0.647393,-0.673196
1629880724682,-0.343979,-0.651236,-0.674538
1629880724692,-0.344406,-0.654896,-0.675331
1629880724701,-0.345016,-0.657214,-0.674904
1629880724711,-0.343369,-0.6578849999999999,-0.674782
1629880724721,-0.345748,-0.653615,-0.673257
1629880724730,-0.345138,-0.654042,-0.671976
1629880724740,-0.342698,-0.652822,-0.671
1629880724749,-0.34526,-0.651114,-0.669536
1629880724759,-0.346053,-0.650931,-0.666547
1629880724769,-0.347029,-0.652822,-0.668011
1629880724778,-0.346968,-0.655628,-0.669414
1629880724788,-0.347334,-0.656238,-0.670878
1629880724797,-0.34721199999999997,-0.656726,-0.670451
1629880724807,-0.347151,-0.656116,-0.671244
1629880724817,-0.346968,-0.654713,-0.670939
1629880724826,-0.347456,-0.652273,-0.671
1629880724836,-0.348066,-0.651358,-0.671122
1629880724845,-0.349042,-0.650443,-0.671854
1629880724855,-0.349286,-0.650016,-0.673196
1629880724865,-0.349286,-0.649894,-0.673135
1629880724874,-0.34831,-0.649894,-0.673501
1629880724884,-0.347517,-0.649711,-0.675148
1629880724893,-0.34709,-0.650748,-0.675575
1629880724903,-0.347517,-0.650992,-0.674172
1629880724913,-0.348554,-0.65087,-0.674294
1629880724922,-0.349713,-0.651785,-0.676795
1629880724932,-0.349774,-0.652273,-0.67954
1629880724941,-0.34721199999999997,-0.652761,-0.677161
1629880724951,-0.348981,-0.651785,-0.673623
1629880724961,-0.348493,-0.651053,-0.670939
1629880724970,-0.348127,-0.649528,-0.669353
1629880724980,-0.346846,-0.648003,-0.670024
1629880724989,-0.347639,-0.647088,-0.671122
1629880724999,-0.347761,-0.648064,-0.671366
1629880725009,-0.34660199999999997,-0.649223,-0.672525
1629880725018,-0.344589,-0.653493,-0.676795
1629880725028,-0.343674,-0.655323,-0.678991
1629880725037,-0.343979,-0.656604,-0.677405
1629880725047,-0.34538199999999997,-0.655994,-0.676185
1629880725057,-0.343735,-0.654591,-0.674538
1629880725066,-0.34355199999999997,-0.6527,-0.670573
1629880725076,-0.343613,-0.649772,-0.6679499999999999
1629880725085,-0.343186,-0.648979,-0.668194
1629880725095,-0.341234,-0.650565,-0.6688649999999999
1629880725105,-0.340075,-0.651419,-0.67222
1629880725114,-0.339221,-0.651724,-0.673379
1629880725124,-0.340014,-0.652822,-0.674477
1629880725133,-0.338733,-0.653615,-0.674843
1629880725143,-0.338916,-0.65392,-0.673379
1629880725153,-0.339038,-0.653798,-0.671305
1629880725162,-0.340136,-0.653188,-0.669353
1629880725172,-0.340319,-0.652334,-0.6697799999999999
1629880725181,-0.339831,-0.652578,-0.670878
1629880725191,-0.338794,-0.65148,-0.672708
1629880725201,-0.338733,-0.652761,-0.674111
1629880725210,-0.338428,-0.651297,-0.673196
1629880725220,-0.338916,-0.651907,-0.67405
1629880725229,-0.339221,-0.652822,-0.674721
1629880725239,-0.338428,-0.655384,-0.676612
1629880725249,-0.339526,-0.654347,-0.676429
1629880725258,-0.33916,-0.654774,-0.675758
1629880725268,-0.338672,-0.655384,-0.675453
1629880725277,-0.33855,-0.653127,-0.674477
1629880725287,-0.339648,-0.65148,-0.675514
1629880725297,-0.33855,-0.651297,-0.676368
1629880725306,-0.33855,-0.651297,-0.67832
1629880725316,-0.338428,-0.650016,-0.6771
1629880725325,-0.33855,-0.649101,-0.676795
1629880725335,-0.338794,-0.649894,-0.67893
1629880725345,-0.338916,-0.651724,-0.679296
1629880725354,-0.338184,-0.651724,-0.679357
1629880725364,-0.33855,-0.651297,-0.677832
1629880725373,-0.338794,-0.651663,-0.677344
1629880725383,-0.337452,-0.651785,-0.678686
1629880725393,-0.336537,-0.650992,-0.6800889999999999
1629880725402,-0.336659,-0.650809,-0.679723
1629880725412,-0.336171,-0.649589,-0.67832
1629880725421,-0.337147,-0.648552,-0.678259
1629880725431,-0.337208,-0.647759,-0.676856
1629880725441,-0.337086,-0.64782,-0.678442
1629880725450,-0.3355,-0.648552,-0.679723
1629880725460,-0.336415,-0.647698,-0.679906
1629880725469,-0.33611,-0.648186,-0.680638
1629880725479,-0.335683,-0.648735,-0.677039
1629880725489,-0.336232,-0.648125,-0.676429
1629880725498,-0.3355,-0.648918,-0.677771
1629880725508,-0.335866,-0.650016,-0.679723
1629880725517,-0.335744,-0.648308,-0.681065
1629880725527,-0.335317,-0.647759,-0.6822239999999999
1629880725537,-0.334341,-0.648186,-0.682712
1629880725546,-0.333548,-0.646722,-0.683322
1629880725556,-0.333731,-0.645868,-0.681492
1629880725565,-0.334768,-0.6457459999999999,-0.681248
1629880725575,-0.33336499999999997,-0.646417,-0.6800889999999999
1629880725585,-0.333182,-0.649955,-0.6800889999999999
1629880725594,-0.33244999999999997,-0.650992,-0.67954
1629880725604,-0.333304,-0.650199,-0.67893
1629880725613,-0.331352,-0.650748,-0.678686
1629880725623,-0.332267,-0.65087,-0.679113
1629880725633,-0.332206,-0.649467,-0.677222
1629880725642,-0.33122999999999997,-0.648613,-0.678991
1629880725652,-0.332328,-0.648796,-0.679723
1629880725661,-0.331718,-0.648979,-0.679296
1629880725671,-0.332572,-0.64843,-0.680516
1629880725681,-0.33153499999999997,-0.649284,-0.681736
1629880725690,-0.33275499999999997,-0.650016,-0.681248
1629880725700,-0.33244999999999997,-0.650626,-0.681492
1629880725709,-0.33336499999999997,-0.650687,-0.680028
1629880725719,-0.333182,-0.649345,-0.679723
1629880725729,-0.333304,-0.650626,-0.679296
1629880725738,-0.334402,-0.649223,-0.678137
1629880725748,-0.334158,-0.64843,-0.677832
1629880725757,-0.333426,-0.647698,-0.678442
1629880725767,-0.333731,-0.646417,-0.677222
1629880725777,-0.334463,-0.644343,-0.676551
1629880725786,-0.334646,-0.644465,-0.677771
1629880725796,-0.334829,-0.645868,-0.677527
1629880725805,-0.336171,-0.647576,-0.677649
1629880725815,-0.337208,-0.648735,-0.6771
1629880725825,-0.33794,-0.650565,-0.677893
1629880725834,-0.338367,-0.652151,-0.679967
1629880725844,-0.337208,-0.653737,-0.681126
1629880725853,-0.337391,-0.652944,-0.67893
1629880725863,-0.339953,-0.650992,-0.675819
1629880725873,-0.340746,-0.649711,-0.67405
1629880725882,-0.34202699999999997,-0.648918,-0.672342
1629880725892,-0.341905,-0.649528,-0.671671
1629880725901,-0.343186,-0.652212,-0.672342
1629880725911,-0.342881,-0.653493,-0.673013
1629880725921,-0.34099,-0.65514,-0.676429
1629880725930,-0.339526,-0.656543,-0.679052
1629880725940,-0.340929,-0.656238,-0.67893
1629880725949,-0.342454,-0.655079,-0.67771
1629880725959,-0.342759,-0.654774,-0.676002
1629880725969,-0.342576,-0.65087,-0.673318
1629880725978,-0.343613,-0.649955,-0.672159
1629880725988,-0.34343,-0.65087,-0.672159
1629880725997,-0.343064,-0.651297,-0.673074
1629880726007,-0.342698,-0.653066,-0.674233
1629880726017,-0.341173,-0.655628,-0.674172
1629880726026,-0.340685,-0.656238,-0.673562
1629880726036,-0.340685,-0.6575799999999999,-0.671183
1629880726045,-0.340258,-0.657153,-0.6697799999999999
1629880726055,-0.340746,-0.656299,-0.667828
1629880726065,-0.34050199999999997,-0.6554449999999999,-0.667462
1629880726074,-0.34050199999999997,-0.654469,-0.6673399999999999
1629880726084,-0.340136,-0.654652,-0.668133
1629880726093,-0.34172199999999997,-0.654957,-0.669536
1629880726103,-0.341966,-0.654286,-0.669658
1629880726113,-0.342759,-0.6554449999999999,-0.6691699999999999
1629880726122,-0.344894,-0.6566649999999999,-0.668499
1629880726132,-0.344955,-0.658068,-0.6679499999999999
1629880726141,-0.344589,-0.6591049999999999,-0.6667299999999999
1629880726151,-0.346114,-0.659959,-0.666608
1629880726161,-0.34660199999999997,-0.660874,-0.665632
1629880726170,-0.347029,-0.6609349999999999,-0.664656
1629880726180,-0.347578,-0.6603249999999999,-0.663131
1629880726189,-0.34721199999999997,-0.661179,-0.661484
1629880726199,-0.344589,-0.665388,-0.663314
1629880726209,-0.346175,-0.668377,-0.6652049999999999
1629880726218,-0.345016,-0.671244,-0.662704
1629880726228,-0.346114,-0.670878,-0.659227
1629880726237,-0.346724,-0.6700849999999999,-0.658434
1629880726247,-0.34568699999999997,-0.670024,-0.657519
1629880726257,-0.34660199999999997,-0.668682,-0.656604
1629880726266,-0.34709,-0.666181,-0.656116
1629880726276,-0.348005,-0.664778,-0.657946
1629880726285,-0.348127,-0.663497,-0.661362
1629880726295,-0.347456,-0.661118,-0.664473
1629880726305,-0.346541,-0.659349,-0.667096
1629880726314,-0.346358,-0.655872,-0.6700849999999999
1629880726324,-0.34648,-0.653737,-0.672403
1629880726333,-0.347334,-0.651541,-0.673135
1629880726343,-0.348371,-0.649467,-0.67344
1629880726353,-0.348615,-0.649223,-0.673135
1629880726362,-0.349103,-0.647088,-0.673013
1629880726372,-0.349042,-0.646356,-0.67222
1629880726381,-0.349957,-0.646112,-0.671671
1629880726391,-0.349652,-0.646966,-0.672159
1629880726401,-0.349774,-0.648247,-0.67283
1629880726410,-0.348737,-0.648369,-0.672647
1629880726420,-0.347639,-0.649101,-0.674294
1629880726429,-0.34648,-0.650199,-0.674233
1629880726439,-0.347883,-0.650138,-0.674538
1629880726449,-0.34709,-0.649528,-0.673196
1629880726458,-0.34629699999999997,-0.651358,-0.672952
1629880726468,-0.347029,-0.651419,-0.671915
1629880726477,-0.34629699999999997,-0.651968,-0.671061
1629880726487,-0.34660199999999997,-0.652517,-0.67039
1629880726497,-0.347273,-0.653798,-0.669719
1629880726506,-0.34538199999999997,-0.653676,-0.669292
1629880726516,-0.346358,-0.654164,-0.669963
1629880726525,-0.346236,-0.654652,-0.668377
1629880726535,-0.345931,-0.655384,-0.669536
1629880726545,-0.34587,-0.655323,-0.670024
1629880726554,-0.345443,-0.655384,-0.669536
1629880726564,-0.344589,-0.654713,-0.671061
1629880726573,-0.345565,-0.654835,-0.670695
1629880726583,-0.345321,-0.654103,-0.670939
1629880726593,-0.345626,-0.65392,-0.672098
1629880726602,-0.34507699999999997,-0.652456,-0.673013
1629880726612,-0.344894,-0.651785,-0.673257
1629880726621,-0.34526,-0.651297,-0.67405
1629880726631,-0.34568699999999997,-0.650687,-0.674355
1629880726641,-0.344406,-0.649894,-0.675636
1629880726650,-0.343918,-0.649833,-0.67527
1629880726660,-0.343979,-0.650748,-0.675026
1629880726669,-0.343613,-0.651236,-0.675514
1629880726679,-0.342576,-0.65209,-0.675941
1629880726689,-0.342759,-0.652578,-0.675636
1629880726698,-0.343003,-0.654103,-0.676795
1629880726708,-0.341051,-0.653066,-0.6771
1629880726717,-0.34172199999999997,-0.651419,-0.675453
1629880726727,-0.341844,-0.649955,-0.673806
1629880726737,-0.34263699999999997,-0.647332,-0.673257
1629880726746,-0.34172199999999997,-0.647088,-0.673379
1629880726756,-0.341844,-0.648735,-0.675392
1629880726765,-0.341478,-0.650992,-0.676429
1629880726775,-0.340563,-0.652944,-0.676551
1629880726785,-0.33958699999999997,-0.656238,-0.678198
1629880726794,-0.339038,-0.657153,-0.678442
1629880726804,-0.338855,-0.6587999999999999,-0.678442
1629880726813,-0.339282,-0.659288,-0.676307
1629880726823,-0.339221,-0.658129,-0.673745
1629880726833,-0.338611,-0.657031,-0.671671
1629880726842,-0.338733,-0.656909,-0.671183
1629880726852,-0.338184,-0.654408,-0.671
1629880726861,-0.337391,-0.653188,-0.672708
1629880726871,-0.334402,-0.65453,-0.673501
1629880726881,-0.335866,-0.653981,-0.672769
1629880726890,-0.334829,-0.653066,-0.673623
1629880726900,-0.33458499999999997,-0.652456,-0.674294
1629880726909,-0.33397499999999997,-0.651724,-0.673379
1629880726919,-0.333548,-0.651907,-0.672403
1629880726929,-0.33336499999999997,-0.651358,-0.670573
1629880726938,-0.333304,-0.650992,-0.671488
1629880726948,-0.33366999999999997,-0.652029,-0.671549
1629880726957,-0.333243,-0.653066,-0.671793
1629880726967,-0.333426,-0.655262,-0.673196
1629880726977,-0.333426,-0.656909,-0.674416
1629880726986,-0.332389,-0.658678,-0.674416
1629880726996,-0.331413,-0.657824,-0.674538
1629880727005,-0.33214499999999997,-0.657397,-0.675514
1629880727015,-0.332206,-0.657092,-0.676429
1629880727025,-0.333121,-0.656604,-0.676429
1629880727034,-0.332877,-0.653493,-0.674111
1629880727044,-0.333426,-0.650504,-0.67466
1629880727053,-0.331596,-0.651968,-0.677039
1629880727063,-0.331474,-0.651541,-0.6797839999999999
1629880727073,-0.332633,-0.652578,-0.680577
1629880727082,-0.330498,-0.653371,-0.6806989999999999
1629880727092,-0.33122999999999997,-0.653066,-0.678991
1629880727101,-0.33275499999999997,-0.652517,-0.677466
1629880727111,-0.332328,-0.651541,-0.67649
1629880727121,-0.333243,-0.651907,-0.676795
1629880727130,-0.332694,-0.651785,-0.676002
1629880727140,-0.333182,-0.65209,-0.676551
1629880727149,-0.331901,-0.653554,-0.67771
1629880727159,-0.331718,-0.654408,-0.678869
1629880727169,-0.330864,-0.65453,-0.6800889999999999
1629880727178,-0.330986,-0.653676,-0.6791739999999999
1629880727188,-0.330498,-0.65148,-0.678503
1629880727197,-0.331169,-0.650809,-0.6794789999999999
1629880727207,-0.330559,-0.651541,-0.681248
1629880727217,-0.330376,-0.649528,-0.6816139999999999
1629880727226,-0.331596,-0.649345,-0.682895
1629880727236,-0.330803,-0.650382,-0.681553
1629880727245,-0.33061999999999997,-0.647942,-0.682163
1629880727255,-0.331901,-0.648979,-0.680882
1629880727265,-0.33122999999999997,-0.647881,-0.6813089999999999
1629880727274,-0.331108,-0.647515,-0.681553
1629880727284,-0.33031499999999997,-0.647332,-0.6822239999999999
1629880727293,-0.330437,-0.647027,-0.6831389999999999
1629880727303,-0.329949,-0.646905,-0.683078
1629880727313,-0.330803,-0.6454409999999999,-0.682956
1629880727322,-0.329827,-0.644282,-0.683078
1629880727332,-0.329522,-0.643977,-0.684298
1629880727341,-0.330803,-0.6433059999999999,-0.683505
1629880727351,-0.33000999999999997,-0.6436109999999999,-0.682773
1629880727361,-0.33061999999999997,-0.642757,-0.6825289999999999
1629880727370,-0.331047,-0.644404,-0.682651
1629880727380,-0.330864,-0.644953,-0.68198
1629880727389,-0.331596,-0.645868,-0.6819189999999999
1629880727399,-0.330803,-0.646966,-0.681675
1629880727409,-0.330986,-0.646966,-0.6822239999999999
1629880727418,-0.332084,-0.646844,-0.683017
1629880727428,-0.330376,-0.648125,-0.682773
1629880727437,-0.331291,-0.647332,-0.683566
1629880727447,-0.332267,-0.648491,-0.683505
1629880727457,-0.332511,-0.649589,-0.682895
1629880727466,-0.333609,-0.650321,-0.68137
1629880727476,-0.333548,-0.650992,-0.681065
1629880727485,-0.33366999999999997,-0.650504,-0.681797
1629880727495,-0.334463,-0.650321,-0.682468
1629880727505,-0.335805,-0.647576,-0.6840539999999999
1629880727514,-0.335866,-0.647515,-0.686006
1629880727524,-0.33733,-0.646234,-0.688202
1629880727533,-0.338245,-0.646112,-0.689056
1629880727543,-0.337879,-0.645258,-0.6895439999999999
1629880727553,-0.338489,-0.641964,-0.687653
1629880727562,-0.339831,-0.6387309999999999,-0.686677
1629880727572,-0.340075,-0.636169,-0.685518
1629880727581,-0.340868,-0.633973,-0.687165
1629880727591,-0.341539,-0.635193,-0.68869
1629880727601,-0.341356,-0.6353759999999999,-0.690215
1629880727610,-0.34141699999999997,-0.63684,-0.69113
1629880727620,-0.34111199999999997,-0.638304,-0.692716
1629880727629,-0.34141699999999997,-0.638548,-0.694058
1629880727639,-0.341356,-0.640012,-0.695339
1629880727649,-0.34233199999999997,-0.638914,-0.694851
1629880727658,-0.34282,-0.637755,-0.692777
1629880727668,-0.34233199999999997,-0.635742,-0.69174
1629880727677,-0.34233199999999997,-0.634339,-0.690276
1629880727687,-0.34233199999999997,-0.633424,-0.688995
1629880727697,-0.340685,-0.633119,-0.688202
1629880727706,-0.33916,-0.632997,-0.688446
1629880727716,-0.338062,-0.632814,-0.6895439999999999
1629880727725,-0.337696,-0.6329359999999999,-0.690581
1629880727735,-0.337513,-0.633607,-0.690886
1629880727745,-0.338062,-0.6329359999999999,-0.6898489999999999
1629880727754,-0.337696,-0.6323259999999999,-0.689361
1629880727764,-0.338489,-0.632204,-0.689422
1629880727773,-0.338428,-0.630984,-0.688751
1629880727783,-0.339404,-0.631167,-0.688812
1629880727793,-0.338855,-0.63196,-0.6901539999999999
1629880727802,-0.339465,-0.633363,-0.690093
1629880727812,-0.339831,-0.634034,-0.691435
1629880727821,-0.33916,-0.635254,-0.692228
1629880727831,-0.338672,-0.634827,-0.693387
1629880727841,-0.338184,-0.633729,-0.693997
1629880727850,-0.33855,-0.6329359999999999,-0.694546
1629880727860,-0.339953,-0.633363,-0.695217
1629880727869,-0.34050199999999997,-0.62952,-0.693936
1629880727879,-0.33989199999999997,-0.627019,-0.694546
1629880727889,-0.338855,-0.626531,-0.697047
1629880727898,-0.339526,-0.626592,-0.70089
1629880727908,-0.339343,-0.626165,-0.70394
1629880727917,-0.339038,-0.62586,-0.703452
1629880727927,-0.340685,-0.624884,-0.70089
1629880727937,-0.34019699999999997,-0.624457,-0.699914
1629880727946,-0.34038,-0.624762,-0.698572
1629880727956,-0.339831,-0.624762,-0.69906
1629880727965,-0.340075,-0.624701,-0.698877
1629880727975,-0.33989199999999997,-0.624091,-0.700097
1629880727985,-0.339831,-0.624884,-0.700646
1629880727994,-0.339282,-0.625738,-0.700951
1629880728004,-0.338123,-0.627568,-0.701866
1629880728013,-0.338184,-0.627873,-0.7015
1629880728023,-0.337879,-0.628178,-0.700646
1629880728033,-0.337086,-0.62891,-0.699182
1629880728042,-0.337635,-0.628544,-0.698999
1629880728052,-0.336842,-0.627507,-0.698816
1629880728061,-0.338245,-0.626958,-0.69906
1629880728071,-0.337757,-0.627385,-0.698511
1629880728081,-0.336537,-0.626714,-0.696742
1629880728090,-0.336049,-0.625311,-0.697657
1629880728100,-0.335561,-0.625433,-0.698694
1629880728109,-0.334524,-0.624701,-0.699975
1629880728119,-0.333182,-0.625311,-0.700768
1629880728129,-0.334036,-0.623603,-0.701866
1629880728138,-0.33305999999999997,-0.623786,-0.701988
1629880728148,-0.332328,-0.622078,-0.701622
1629880728157,-0.332938,-0.6207969999999999,-0.701317
1629880728167,-0.332694,-0.620309,-0.701988
1629880728177,-0.332694,-0.619638,-0.701378
1629880728186,-0.332816,-0.618906,-0.701073
1629880728196,-0.333243,-0.619455,-0.701317
1629880728205,-0.332877,-0.619821,-0.702476
1629880728215,-0.333853,-0.621041,-0.701988
1629880728225,-0.33366999999999997,-0.621773,-0.703269
1629880728234,-0.333853,-0.622566,-0.703025
1629880728244,-0.334951,-0.623786,-0.703391
1629880728253,-0.335622,-0.623603,-0.702964
1629880728263,-0.336354,-0.623664,-0.702049
1629880728273,-0.337452,-0.623908,-0.701256
1629880728282,-0.338794,-0.622444,-0.701195
1629880728292,-0.338489,-0.624396,-0.701866
1629880728301,-0.337269,-0.624213,-0.701317
1629880728311,-0.338306,-0.624762,-0.70089
1629880728321,-0.339282,-0.625982,-0.700829
1629880728330,-0.339648,-0.626409,-0.701988
1629880728340,-0.34099,-0.626348,-0.702842
1629880728349,-0.341966,-0.627507,-0.702659
1629880728359,-0.342149,-0.628971,-0.701073
1629880728369,-0.342454,-0.627324,-0.69906
1629880728378,-0.34294199999999997,-0.625738,-0.696803
1629880728388,-0.343491,-0.623054,-0.694241
1629880728397,-0.34446699999999997,-0.622627,-0.694607
1629880728407,-0.344955,-0.62403,-0.696986
1629880728417,-0.344955,-0.62586,-0.700036
1629880728426,-0.344955,-0.626775,-0.700463
1629880728436,-0.344528,-0.627446,-0.702293
1629880728445,-0.344589,-0.628422,-0.702659
1629880728455,-0.345626,-0.628117,-0.702964
1629880728465,-0.34629699999999997,-0.628056,-0.701134
1629880728474,-0.34599199999999997,-0.627202,-0.698206
1629880728484,-0.34648,-0.625128,-0.696559
1629880728493,-0.346846,-0.623542,-0.695827
1629880728503,-0.346053,-0.622993,-0.694363
1629880728513,-0.34568699999999997,-0.622871,-0.694668
1629880728522,-0.345199,-0.622993,-0.694912
1629880728532,-0.344101,-0.624152,-0.695583
1629880728541,-0.343979,-0.625494,-0.696376
1629880728551,-0.342759,-0.62708,-0.695461
1629880728561,-0.343613,-0.627568,-0.694241
1629880728570,-0.34446699999999997,-0.627751,-0.6916789999999999
1629880728580,-0.345504,-0.627629,-0.68991
1629880728589,-0.345321,-0.627751,-0.6895439999999999
1629880728599,-0.346236,-0.627751,-0.690337
1629880728609,-0.34648,-0.629032,-0.690825
1629880728618,-0.347151,-0.628849,-0.692838
1629880728628,-0.3477,-0.63013,-0.694302
1629880728637,-0.346846,-0.630679,-0.695644
1629880728647,-0.346663,-0.630496,-0.695095
1629880728657,-0.347395,-0.629215,-0.694241
1629880728666,-0.348371,-0.629215,-0.694546
1629880728676,-0.348005,-0.628056,-0.694912
1629880728685,-0.349042,-0.624884,-0.692838
1629880728695,-0.348249,-0.622688,-0.693448
1629880728705,-0.347822,-0.625433,-0.696376
1629880728714,-0.345504,-0.626897,-0.698938
1629880728724,-0.347029,-0.628361,-0.699853
1629880728733,-0.34660199999999997,-0.629215,-0.699548
1629880728743,-0.347761,-0.628788,-0.695888
1629880728753,-0.347334,-0.629215,-0.694058
1629880728762,-0.347456,-0.629337,-0.692472
1629880728772,-0.347029,-0.628605,-0.69174
1629880728781,-0.347822,-0.629337,-0.691252
1629880728791,-0.34690699999999997,-0.629947,-0.69174
1629880728801,-0.345748,-0.63074,-0.6935089999999999
1629880728810,-0.34477199999999997,-0.632448,-0.694851
1629880728820,-0.343491,-0.63318,-0.695888
1629880728829,-0.34294199999999997,-0.631838,-0.695156
1629880728839,-0.34282,-0.631472,-0.692777
1629880728849,-0.34343,-0.631045,-0.69174
1629880728858,-0.34404,-0.630496,-0.690825
1629880728868,-0.34324699999999997,-0.630435,-0.691008
1629880728877,-0.34172199999999997,-0.630984,-0.691618
1629880728887,-0.34221,-0.630679,-0.692167
1629880728897,-0.340868,-0.630008,-0.6925939999999999
1629880728906,-0.340624,-0.630069,-0.693326
1629880728916,-0.340624,-0.629764,-0.694851
1629880728925,-0.341844,-0.628727,-0.6944239999999999
1629880728935,-0.341478,-0.6283,-0.694363
1629880728945,-0.340258,-0.627507,-0.69479
1629880728954,-0.340868,-0.627507,-0.695522
1629880728964,-0.340746,-0.62586,-0.694851
1629880728973,-0.340746,-0.626043,-0.695644
1629880728983,-0.340563,-0.625982,-0.695827
1629880728993,-0.340868,-0.626409,-0.695339
1629880729002,-0.341234,-0.626104,-0.695095
1629880729012,-0.341844,-0.627446,-0.694363
1629880729021,-0.34141699999999997,-0.627507,-0.694058
1629880729031,-0.342149,-0.629215,-0.694729
1629880729041,-0.341356,-0.62952,-0.695522
1629880729050,-0.341844,-0.63013,-0.694851
1629880729060,-0.342271,-0.631167,-0.694973
1629880729069,-0.34294199999999997,-0.631167,-0.6941189999999999
1629880729079,-0.342881,-0.630618,-0.694363
1629880729089,-0.342149,-0.629825,-0.695156
1629880729098,-0.343003,-0.629337,-0.695461
1629880729108,-0.343003,-0.62952,-0.695156
1629880729117,-0.342393,-0.629459,-0.695888
1629880729127,-0.341478,-0.62952,-0.695888
1629880729137,-0.341478,-0.629825,-0.697047
1629880729146,-0.341539,-0.631106,-0.697535
1629880729156,-0.341539,-0.630374,-0.697169
1629880729165,-0.342881,-0.629581,-0.693692
1629880729175,-0.342088,-0.627629,-0.692716
1629880729185,-0.341661,-0.625982,-0.690032
1629880729194,-0.341173,-0.62586,-0.690886
1629880729204,-0.34080699999999997,-0.628971,-0.693875
1629880729213,-0.340868,-0.6329359999999999,-0.694241
1629880729223,-0.341234,-0.6350709999999999,-0.694241
1629880729233,-0.340136,-0.6356809999999999,-0.69479
1629880729242,-0.339648,-0.638182,-0.695644
1629880729252,-0.33977,-0.63745,-0.6944239999999999
1629880729261,-0.341539,-0.637389,-0.692106
1629880729271,-0.341783,-0.6359859999999999,-0.690398
1629880729281,-0.341539,-0.6338509999999999,-0.688385
1629880729290,-0.3416,-0.632997,-0.6880189999999999
1629880729300,-0.340685,-0.6320209999999999,-0.6895439999999999
1629880729309,-0.34038,-0.632875,-0.690337
1629880729319,-0.340136,-0.630984,-0.691008
1629880729329,-0.340319,-0.63135,-0.69113
1629880729338,-0.339343,-0.631533,-0.691618
1629880729348,-0.33977,-0.632387,-0.691923
1629880729357,-0.34050199999999997,-0.630862,-0.689666
1629880729367,-0.341539,-0.630069,-0.687592
1629880729377,-0.342393,-0.630008,-0.688263
1629880729386,-0.343308,-0.62952,-0.687958
1629880729396,-0.342576,-0.631167,-0.688507
1629880729405,-0.34385699999999997,-0.632753,-0.6895439999999999
1629880729415,-0.344955,-0.6344609999999999,-0.690276
1629880729425,-0.344345,-0.6362909999999999,-0.690642
1629880729434,-0.34416199999999997,-0.637938,-0.691923
1629880729444,-0.343064,-0.63745,-0.691923
1629880729453,-0.343674,-0.6359859999999999,-0.68991
1629880729463,-0.344955,-0.635315,-0.688812
1629880729473,-0.344589,-0.6353759999999999,-0.689056
1629880729482,-0.345565,-0.633668,-0.687836
1629880729492,-0.345626,-0.631228,-0.686006
1629880729501,-0.344528,-0.63196,-0.686433
1629880729511,-0.343613,-0.633607,-0.6907639999999999
1629880729521,-0.343735,-0.635559,-0.693326
1629880729530,-0.343308,-0.63623,-0.692533
1629880729540,-0.34404,-0.636535,-0.689605
1629880729549,-0.344101,-0.636779,-0.687531
1629880729559,-0.345016,-0.636535,-0.6855789999999999
1629880729569,-0.345199,-0.636108,-0.68503
1629880729578,-0.345809,-0.636352,-0.686006
1629880729588,-0.345321,-0.636108,-0.68808
1629880729597,-0.345321,-0.636535,-0.689727
1629880729607,-0.346053,-0.6362909999999999,-0.690337
1629880729617,-0.344955,-0.636718,-0.691435
1629880729626,-0.345016,-0.636718,-0.68991
1629880729636,-0.34587,-0.635193,-0.689483
1629880729645,-0.346785,-0.63562,-0.689483
1629880729655,-0.347334,-0.634278,-0.689117
1629880729665,-0.347273,-0.634522,-0.687348
1629880729674,-0.348127,-0.634949,-0.686738
1629880729684,-0.347578,-0.635193,-0.687226
1629880729693,-0.34690699999999997,-0.63501,-0.687226
1629880729703,-0.34721199999999997,-0.634827,-0.687531
1629880729713,-0.346968,-0.634339,-0.68686
1629880729722,-0.346236,-0.634705,-0.686982
1629880729732,-0.34690699999999997,-0.6350709999999999,-0.687043
1629880729741,-0.346114,-0.636047,-0.6871039999999999
1629880729751,-0.34629699999999997,-0.6362909999999999,-0.686921
1629880729761,-0.3477,-0.6362909999999999,-0.685457
1629880729770,-0.34721199999999997,-0.6359859999999999,-0.685335
1629880729780,-0.347456,-0.636535,-0.685091
1629880729789,-0.346724,-0.636474,-0.685152
1629880729799,-0.347029,-0.636108,-0.684237
1629880729809,-0.348005,-0.6365959999999999,-0.684542
1629880729818,-0.3477,-0.636474,-0.68381
1629880729828,-0.346053,-0.635498,-0.684786
1629880729837,-0.34690699999999997,-0.635742,-0.685945
1629880729847,-0.346175,-0.636962,-0.685701
1629880729857,-0.346724,-0.636413,-0.686311
1629880729866,-0.347578,-0.6359859999999999,-0.68625
1629880729876,-0.34343,-0.6372059999999999,-0.687897
1629880729885,-0.341173,-0.639585,-0.6893
1629880729895,-0.34099,-0.6411709999999999,-0.688263
1629880729905,-0.341173,-0.641293,-0.685762
1629880729914,-0.34385699999999997,-0.640195,-0.681187
1629880729924,-0.345199,-0.639219,-0.679052
1629880729933,-0.34599199999999997,-0.63928,-0.675697
1629880729943,-0.346358,-0.638243,-0.675941
1629880729953,-0.346968,-0.640744,-0.6800889999999999
1629880729962,-0.347029,-0.6426959999999999,-0.68198
1629880729972,-0.348554,-0.642757,-0.682407
1629880729981,-0.348432,-0.6414759999999999,-0.682712
1629880729991,-0.348798,-0.6405609999999999,-0.681492
1629880730001,-0.349347,-0.640012,-0.681736
1629880730010,-0.349713,-0.64111,-0.6803939999999999
1629880730020,-0.34892,-0.6411709999999999,-0.681858
1629880730029,-0.349225,-0.6408659999999999,-0.683078
1629880730039,-0.349286,-0.642147,-0.684237
1629880730049,-0.34831,-0.642513,-0.6858839999999999
1629880730058,-0.349652,-0.641232,-0.6855789999999999
1629880730068,-0.35014,-0.63928,-0.6832
1629880730077,-0.34953,-0.637084,-0.680516
1629880730087,-0.349713,-0.637572,-0.6813089999999999
1629880730097,-0.349103,-0.6372059999999999,-0.680821
1629880730106,-0.349042,-0.6396459999999999,-0.680516
1629880730116,-0.349286,-0.641232,-0.6803939999999999
1629880730125,-0.349408,-0.64355,-0.678198
1629880730135,-0.34831,-0.646478,-0.676246
1629880730145,-0.348554,-0.648003,-0.673074
1629880730154,-0.348188,-0.649284,-0.671244
1629880730164,-0.347761,-0.649833,-0.671732
1629880730173,-0.348066,-0.647942,-0.670268
1629880730183,-0.349347,-0.647027,-0.672586
1629880730193,-0.34953,-0.646966,-0.673501
1629880730202,-0.350079,-0.646844,-0.674355
1629880730212,-0.35197,-0.647332,-0.675514
1629880730221,-0.35312899999999997,-0.648674,-0.674782
1629880730231,-0.352702,-0.649101,-0.675148
1629880730241,-0.352336,-0.650016,-0.675392
1629880730250,-0.35136,-0.649894,-0.675941
1629880730260,-0.35221399999999997,-0.647942,-0.673806
1629880730269,-0.352946,-0.6448309999999999,-0.673257
1629880730279,-0.352702,-0.644709,-0.673684
1629880730289,-0.355203,-0.642818,-0.671
1629880730298,-0.35526399999999997,-0.641354,-0.67283
1629880730308,-0.352458,-0.644282,-0.674416
1629880730317,-0.351848,-0.646905,-0.677039
1629880730327,-0.350872,-0.649406,-0.677954
1629880730337,-0.351421,-0.64965,-0.676368
1629880730346,-0.35160399999999997,-0.649528,-0.673501
1629880730356,-0.35251899999999997,-0.649833,-0.670756
1629880730365,-0.35258,-0.650138,-0.670695
1629880730375,-0.35282399999999997,-0.649223,-0.670146
1629880730385,-0.352946,-0.649345,-0.668926
1629880730394,-0.35197,-0.650321,-0.669841
1629880730404,-0.351787,-0.652517,-0.669902
1629880730413,-0.350933,-0.654042,-0.670024
1629880730423,-0.349896,-0.655262,-0.668804
1629880730433,-0.350018,-0.654591,-0.6694749999999999
1629880730442,-0.350628,-0.653493,-0.668621
1629880730452,-0.351848,-0.652334,-0.668926
1629880730461,-0.351116,-0.652456,-0.668804
1629880730471,-0.35136,-0.651663,-0.669902
1629880730481,-0.352153,-0.650748,-0.670207
1629880730490,-0.35282399999999997,-0.649345,-0.670512
1629880730500,-0.352336,-0.648735,-0.671427
1629880730509,-0.352153,-0.649284,-0.671915
1629880730519,-0.351543,-0.647942,-0.673074
1629880730529,-0.35258,-0.648064,-0.672769
1629880730538,-0.35312899999999997,-0.647088,-0.674843
1629880730548,-0.35343399999999997,-0.648552,-0.674965
1629880730557,-0.35319,-0.648674,-0.673867
1629880730567,-0.353922,-0.646722,-0.674233
1629880730577,-0.354227,-0.646539,-0.67283
1629880730586,-0.35343399999999997,-0.646112,-0.672037
1629880730596,-0.353068,-0.645075,-0.673989
1629880730605,-0.353068,-0.645014,-0.673074
1629880730615,-0.353007,-0.645563,-0.673745
1629880730625,-0.352946,-0.64599,-0.674355
1629880730634,-0.353556,-0.6457459999999999,-0.674843
1629880730644,-0.353007,-0.6457459999999999,-0.674599
1629880730653,-0.35258,-0.645685,-0.675514
1629880730663,-0.352336,-0.645014,-0.672952
1629880730673,-0.353922,-0.645319,-0.673074
1629880730682,-0.35319,-0.647149,-0.67344
1629880730692,-0.352885,-0.648003,-0.674416
1629880730701,-0.352336,-0.646966,-0.673928
1629880730711,-0.352397,-0.646722,-0.675453
1629880730721,-0.350506,-0.647515,-0.677344
1629880730730,-0.350689,-0.647393,-0.676063
1629880730740,-0.350506,-0.646356,-0.676002
1629880730749,-0.351787,-0.643672,-0.674416
1629880730759,-0.352092,-0.640988,-0.670878
1629880730769,-0.351543,-0.640683,-0.671854
1629880730778,-0.349774,-0.641842,-0.672403
1629880730788,-0.350079,-0.6426959999999999,-0.673989
1629880730797,-0.349896,-0.646356,-0.676734
1629880730807,-0.350079,-0.648918,-0.67832
1629880730817,-0.350079,-0.649162,-0.67832
1629880730826,-0.349408,-0.651968,-0.679357
1629880730836,-0.348737,-0.651358,-0.677649
1629880730845,-0.350262,-0.650565,-0.675087
1629880730855,-0.350201,-0.65026,-0.673501
1629880730865,-0.350628,-0.649894,-0.672586
1629880730874,-0.349164,-0.64843,-0.672098
1629880730884,-0.3477,-0.648735,-0.67344
1629880730893,-0.34690699999999997,-0.648491,-0.673806
1629880730903,-0.346541,-0.648674,-0.672952
1629880730913,-0.346114,-0.648064,-0.673989
1629880730922,-0.345809,-0.648613,-0.672586
1629880730932,-0.346175,-0.648735,-0.672769
1629880730941,-0.34648,-0.648064,-0.670817
1629880730951,-0.346663,-0.647637,-0.671
1629880730961,-0.347517,-0.648247,-0.672647
1629880730970,-0.348066,-0.648796,-0.671793
1629880730980,-0.346724,-0.64965,-0.672586
1629880730989,-0.347517,-0.649833,-0.67405
1629880730999,-0.347822,-0.649711,-0.675148
1629880731009,-0.346358,-0.651053,-0.675148
1629880731018,-0.347883,-0.650809,-0.674599
1629880731028,-0.34690699999999997,-0.65148,-0.674904
1629880731037,-0.34721199999999997,-0.649711,-0.672647
1629880731047,-0.347883,-0.649772,-0.671549
1629880731057,-0.347944,-0.649589,-0.671061
1629880731066,-0.349286,-0.64782,-0.670817
1629880731076,-0.348554,-0.649467,-0.671671
1629880731085,-0.346114,-0.651663,-0.674843
1629880731095,-0.344894,-0.651785,-0.677283
1629880731105,-0.345138,-0.651175,-0.677161
1629880731114,-0.344833,-0.650504,-0.676185
1629880731124,-0.34660199999999997,-0.650748,-0.673745
1629880731133,-0.348554,-0.648735,-0.670512
1629880731143,-0.348432,-0.649589,-0.668377
1629880731153,-0.348188,-0.650199,-0.6670349999999999
1629880731162,-0.347517,-0.651541,-0.669658
1629880731172,-0.346663,-0.652578,-0.670451
1629880731181,-0.345504,-0.652334,-0.672586
1629880731191,-0.34538199999999997,-0.653615,-0.672403
1629880731201,-0.346236,-0.651907,-0.672464
1629880731210,-0.346846,-0.650443,-0.672464
1629880731220,-0.346419,-0.650382,-0.67405
1629880731229,-0.347151,-0.652334,-0.671793
1629880731239,-0.347395,-0.653005,-0.669597
1629880731249,-0.348127,-0.65331,-0.6688649999999999
1629880731258,-0.347822,-0.653432,-0.670634
1629880731268,-0.3477,-0.654347,-0.6694749999999999
1629880731277,-0.347883,-0.65392,-0.669109
1629880731287,-0.34709,-0.655323,-0.670512
1629880731297,-0.346419,-0.654286,-0.670207
1629880731306,-0.346541,-0.65453,-0.669963
1629880731316,-0.346724,-0.654713,-0.6694749999999999
1629880731325,-0.347761,-0.653981,-0.668194
1629880731335,-0.347578,-0.653676,-0.667828
1629880731345,-0.347639,-0.655201,-0.667828
1629880731354,-0.347517,-0.65453,-0.670268
1629880731364,-0.348066,-0.654896,-0.670939
1629880731373,-0.346663,-0.655018,-0.670268
1629880731383,-0.347273,-0.654408,-0.668987
1629880731393,-0.34709,-0.654042,-0.668682
1629880731402,-0.347944,-0.654408,-0.668011
1629880731412,-0.347761,-0.654774,-0.667279
1629880731421,-0.346846,-0.65514,-0.666974
1629880731431,-0.347395,-0.656482,-0.667401
1629880731441,-0.34660199999999997,-0.655384,-0.668926
1629880731450,-0.347273,-0.655384,-0.668133
1629880731460,-0.348005,-0.655384,-0.669292
1629880731469,-0.347944,-0.655079,-0.670024
1629880731479,-0.348005,-0.654896,-0.670146
1629880731489,-0.347456,-0.6569699999999999,-0.670207
1629880731498,-0.3477,-0.658434,-0.670268
1629880731508,-0.348188,-0.6572749999999999,-0.668316
1629880731517,-0.347395,-0.655384,-0.665144
1629880731527,-0.348066,-0.653188,-0.663802
1629880731537,-0.348554,-0.653127,-0.665327
1629880731546,-0.347578,-0.652456,-0.6673399999999999
1629880731556,-0.347944,-0.654164,-0.668316
1629880731565,-0.348188,-0.6563599999999999,-0.668804
1629880731575,-0.349286,-0.657763,-0.670817
1629880731585,-0.347944,-0.6581899999999999,-0.669292
1629880731594,-0.347151,-0.659288,-0.6688649999999999
1629880731604,-0.347395,-0.660142,-0.668438
1629880731613,-0.347761,-0.6603249999999999,-0.668316
1629880731623,-0.348249,-0.6606299999999999,-0.665937
1629880731633,-0.347395,-0.658434,-0.6648999999999999
1629880731642,-0.347334,-0.655933,-0.665449
1629880731652,-0.346541,-0.6554449999999999,-0.664717
1629880731661,-0.346663,-0.65514,-0.665144
1629880731671,-0.345016,-0.656604,-0.666181
1629880731681,-0.34465,-0.657214,-0.666486
1629880731690,-0.344528,-0.6581899999999999,-0.665571
1629880731700,-0.344406,-0.657763,-0.6652049999999999
1629880731709,-0.343979,-0.657763,-0.6636799999999999
1629880731719,-0.344406,-0.657397,-0.6633749999999999
1629880731729,-0.34404,-0.6575799999999999,-0.6642899999999999
1629880731738,-0.344223,-0.658556,-0.6648999999999999
1629880731748,-0.345199,-0.6594099999999999,-0.665632
1629880731757,-0.34404,-0.6594099999999999,-0.666486
1629880731767,-0.34446699999999997,-0.659959,-0.666974
1629880731777,-0.344284,-0.660691,-0.666486
1629880731786,-0.344589,-0.660142,-0.665998
1629880731796,-0.343735,-0.660386,-0.667523
1629880731805,-0.34385699999999997,-0.661606,-0.668011
1629880731815,-0.34385699999999997,-0.660142,-0.665266
1629880731825,-0.344833,-0.658068,-0.662704
1629880731834,-0.34568699999999997,-0.658434,-0.663924
1629880731844,-0.34629699999999997,-0.657397,-0.664839
1629880731853,-0.344528,-0.6587999999999999,-0.666669
1629880731863,-0.342759,-0.659898,-0.668987
1629880731873,-0.34355199999999997,-0.659227,-0.670756
1629880731882,-0.34343,-0.658617,-0.6691699999999999
1629880731892,-0.344833,-0.658739,-0.6673399999999999
1629880731901,-0.345321,-0.658556,-0.665449
1629880731911,-0.345443,-0.657763,-0.663924
1629880731921,-0.34526,-0.656421,-0.664107
1629880731930,-0.344406,-0.6566649999999999,-0.665876
1629880731940,-0.34465,-0.656238,-0.6661199999999999
1629880731949,-0.344223,-0.656909,-0.668499
1629880731959,-0.34446699999999997,-0.658129,-0.669048
1629880731969,-0.34477199999999997,-0.658312,-0.668194
1629880731978,-0.34538199999999997,-0.658129,-0.668438
1629880731988,-0.344589,-0.658312,-0.668438
1629880731997,-0.34538199999999997,-0.658129,-0.668072
1629880732007,-0.344101,-0.6591049999999999,-0.667096
1629880732017,-0.344284,-0.6578849999999999,-0.666547
1629880732026,-0.344711,-0.656177,-0.667462
1629880732036,-0.34477199999999997,-0.654408,-0.6676449999999999
1629880732045,-0.344589,-0.654469,-0.668987
1629880732055,-0.345443,-0.654835,-0.668377
1629880732065,-0.34385699999999997,-0.656177,-0.668377
1629880732074,-0.343674,-0.654713,-0.668011
1629880732084,-0.34404,-0.65453,-0.669048
1629880732093,-0.344894,-0.654713,-0.669841
1629880732103,-0.34404,-0.654957,-0.669353
1629880732113,-0.344284,-0.655018,-0.669841
1629880732122,-0.345626,-0.653981,-0.668499
1629880732132,-0.345748,-0.654408,-0.669902
1629880732141,-0.346236,-0.654896,-0.669109
1629880732151,-0.345504,-0.654652,-0.6685599999999999
1629880732161,-0.345809,-0.655628,-0.667462
1629880732170,-0.346419,-0.655994,-0.666913
1629880732180,-0.345565,-0.6572749999999999,-0.668072
1629880732189,-0.346114,-0.657153,-0.668072
1629880732199,-0.345565,-0.656848,-0.667584
1629880732209,-0.345016,-0.655689,-0.668072
1629880732218,-0.345565,-0.655933,-0.6688649999999999
1629880732228,-0.346541,-0.654713,-0.6688649999999999
1629880732237,-0.34660199999999997,-0.654042,-0.668621
1629880732247,-0.34629699999999997,-0.652944,-0.669048
1629880732257,-0.346419,-0.653798,-0.67161
1629880732266,-0.34599199999999997,-0.655689,-0.672464
1629880732276,-0.344894,-0.655262,-0.6691699999999999
1629880732285,-0.34599199999999997,-0.654835,-0.667218
1629880732295,-0.346236,-0.654774,-0.665388
1629880732305,-0.345931,-0.653615,-0.665632
1629880732314,-0.34648,-0.65392,-0.6664249999999999
1629880732324,-0.34568699999999997,-0.653798,-0.667828
1629880732333,-0.34648,-0.6581899999999999,-0.669597
1629880732343,-0.34892,-0.658922,-0.668804
1629880732353,-0.349103,-0.658678,-0.669231
1629880732362,-0.347456,-0.659898,-0.669597
1629880732372,-0.34721199999999997,-0.658678,-0.668438
1629880732381,-0.348615,-0.6575799999999999,-0.667706
1629880732391,-0.348859,-0.6587999999999999,-0.666974
1629880732401,-0.349286,-0.658922,-0.6673399999999999
1629880732410,-0.347822,-0.657397,-0.665754
1629880732420,-0.347273,-0.655262,-0.666608
1629880732429,-0.348371,-0.654164,-0.666242
1629880732439,-0.348188,-0.652944,-0.666608
1629880732449,-0.347944,-0.652578,-0.666791
1629880732458,-0.347883,-0.652822,-0.666547
1629880732468,-0.348676,-0.653676,-0.665754
1629880732477,-0.350079,-0.653493,-0.664229
1629880732487,-0.351482,-0.653859,-0.663497
1629880732497,-0.351238,-0.654286,-0.665022
1629880732506,-0.351116,-0.654896,-0.666547
1629880732516,-0.35190899999999997,-0.654652,-0.667157
1629880732525,-0.35258,-0.655689,-0.667157
1629880732535,-0.35197,-0.656604,-0.667767
1629880732545,-0.35258,-0.657092,-0.668194
1629880732554,-0.352031,-0.656909,-0.668133
1629880732564,-0.353251,-0.6563599999999999,-0.668011
1629880732573,-0.353007,-0.656543,-0.667706
1629880732583,-0.35319,-0.6560549999999999,-0.667828
1629880732593,-0.351848,-0.653798,-0.668072
1629880732602,-0.35343399999999997,-0.652273,-0.665388
1629880732612,-0.35319,-0.652578,-0.666303
1629880732621,-0.3538,-0.652883,-0.665083
1629880732631,-0.355203,-0.651175,-0.664839
1629880732641,-0.35343399999999997,-0.651846,-0.666608
1629880732650,-0.352458,-0.654225,-0.669048
1629880732660,-0.352885,-0.654652,-0.671122
1629880732669,-0.352946,-0.655506,-0.670451
1629880732679,-0.3538,-0.656177,-0.668438
1629880732689,-0.355996,-0.655628,-0.6655099999999999
1629880732698,-0.354837,-0.654347,-0.664168
1629880732708,-0.354105,-0.653615,-0.6642899999999999
1629880732717,-0.354837,-0.651663,-0.664656
1629880732727,-0.354288,-0.652639,-0.665632
1629880732737,-0.353251,-0.654896,-0.6673399999999999
1629880732746,-0.353068,-0.655628,-0.668804
1629880732756,-0.353373,-0.655079,-0.666974
1629880732765,-0.352702,-0.654591,-0.667218
1629880732775,-0.352702,-0.652822,-0.665876
1629880732785,-0.35312899999999997,-0.652151,-0.6661199999999999
1629880732794,-0.35404399999999997,-0.652395,-0.664778
1629880732804,-0.354166,-0.652212,-0.664717
1629880732813,-0.354898,-0.652212,-0.6636799999999999
1629880732823,-0.355081,-0.652822,-0.665022
1629880732833,-0.353251,-0.654164,-0.665876
1629880732842,-0.353495,-0.653493,-0.667889
1629880732852,-0.353983,-0.653798,-0.668133
1629880732861,-0.353617,-0.652334,-0.667523
1629880732871,-0.354715,-0.65331,-0.668133
1629880732881,-0.354532,-0.652578,-0.666852
1629880732890,-0.355081,-0.651907,-0.666059
1629880732900,-0.35563,-0.651602,-0.665388
1629880732909,-0.354532,-0.652517,-0.6658149999999999
1629880732919,-0.35526399999999997,-0.653188,-0.667279
1629880732929,-0.35404399999999997,-0.653737,-0.666669
1629880732938,-0.353983,-0.65331,-0.667218
1629880732948,-0.35441,-0.651602,-0.6673399999999999
1629880732957,-0.35404399999999997,-0.652456,-0.666852
1629880732967,-0.35556899999999997,-0.651785,-0.6673399999999999
1629880732977,-0.355691,-0.653066,-0.6667299999999999
1629880732986,-0.35526399999999997,-0.654286,-0.666547
1629880732996,-0.35648399999999997,-0.654286,-0.6664249999999999
1629880733005,-0.355325,-0.653615,-0.666181
1629880733015,-0.35770399999999997,-0.652578,-0.6655099999999999
1629880733025,-0.35587399999999997,-0.653432,-0.666303
1629880733034,-0.35502,-0.65331,-0.667218
1629880733044,-0.35587399999999997,-0.652944,-0.667889
1629880733053,-0.355752,-0.653249,-0.668499
1629880733063,-0.354837,-0.653554,-0.669597
1629880733073,-0.355325,-0.652822,-0.668316
1629880733082,-0.354776,-0.651968,-0.667767
1629880733092,-0.355447,-0.651236,-0.667767
1629880733101,-0.355935,-0.653432,-0.669414
1629880733111,-0.354288,-0.654408,-0.668621
1629880733121,-0.353861,-0.653554,-0.666303
1629880733130,-0.35434899999999997,-0.653249,-0.664534
1629880733140,-0.355386,-0.653066,-0.663497
1629880733149,-0.355813,-0.650565,-0.662582
1629880733159,-0.356972,-0.651541,-0.662399
1629880733169,-0.35587399999999997,-0.653066,-0.6636799999999999
1629880733178,-0.35563,-0.655872,-0.664412
1629880733188,-0.35526399999999997,-0.657519,-0.6655099999999999
1629880733197,-0.353556,-0.6587999999999999,-0.667767
1629880733207,-0.35282399999999997,-0.659654,-0.667218
1629880733217,-0.353495,-0.659166,-0.6652049999999999
1629880733226,-0.35441,-0.6569699999999999,-0.661301
1629880733236,-0.35556899999999997,-0.654835,-0.6618499999999999
1629880733245,-0.354898,-0.65514,-0.662704
1629880733255,-0.3538,-0.654835,-0.663436
1629880733265,-0.353861,-0.654835,-0.664534
1629880733274,-0.353373,-0.654286,-0.664107
1629880733284,-0.35319,-0.654957,-0.665449
1629880733293,-0.352641,-0.656421,-0.666486
1629880733303,-0.353495,-0.656482,-0.6652049999999999
1629880733313,-0.35343399999999997,-0.655323,-0.664229
1629880733322,-0.353068,-0.655018,-0.662216
1629880733332,-0.353556,-0.653798,-0.6609349999999999
1629880733341,-0.353007,-0.655323,-0.659959
1629880733351,-0.35373899999999997,-0.65514,-0.660386
1629880733361,-0.353312,-0.656848,-0.662033
1629880733370,-0.3538,-0.658373,-0.662521
1629880733380,-0.353922,-0.658739,-0.663497
1629880733389,-0.354532,-0.659166,-0.663741
1629880733399,-0.354105,-0.658556,-0.664839
1629880733409,-0.354898,-0.658617,-0.663802
1629880733418,-0.356362,-0.658983,-0.665327
1629880733428,-0.35465399999999997,-0.658373,-0.664839
1629880733437,-0.355447,-0.656543,-0.664107
1629880733447,-0.355142,-0.653981,-0.663558
1629880733457,-0.356057,-0.653859,-0.664534
1629880733466,-0.355691,-0.65392,-0.665266
1629880733476,-0.35709399999999997,-0.650504,-0.664412
1629880733485,-0.355142,-0.651602,-0.6682549999999999
1629880733495,-0.353251,-0.653493,-0.669658
1629880733505,-0.354471,-0.652334,-0.666486
1629880733514,-0.355508,-0.651846,-0.664656
1629880733524,-0.354776,-0.65331,-0.6648999999999999
1629880733533,-0.355447,-0.653554,-0.664839
1629880733543,-0.354898,-0.655018,-0.664961
1629880733553,-0.35563,-0.654469,-0.664107
1629880733562,-0.355325,-0.65453,-0.665144
1629880733572,-0.35556899999999997,-0.655201,-0.666303
1629880733581,-0.355508,-0.655628,-0.667584
1629880733591,-0.355935,-0.654103,-0.667523
1629880733601,-0.356118,-0.652944,-0.666852
1629880733610,-0.35648399999999997,-0.652578,-0.667584
1629880733620,-0.355691,-0.651907,-0.6676449999999999
1629880733629,-0.35465399999999997,-0.650504,-0.667401
1629880733639,-0.35404399999999997,-0.650321,-0.668926
1629880733649,-0.353922,-0.65026,-0.668743
1629880733658,-0.35465399999999997,-0.649833,-0.667523
1629880733668,-0.354898,-0.64965,-0.6670349999999999
1629880733677,-0.355691,-0.64965,-0.667218
1629880733687,-0.354776,-0.651602,-0.6676449999999999
1629880733697,-0.35526399999999997,-0.652639,-0.667462
1629880733706,-0.35502,-0.653493,-0.667096
1629880733716,-0.355203,-0.653188,-0.6682549999999999
1629880733725,-0.355203,-0.65331,-0.666974
1629880733735,-0.354837,-0.65209,-0.668194
1629880733745,-0.354227,-0.651724,-0.6685599999999999
1629880733754,-0.354776,-0.650565,-0.667706
1629880733764,-0.355081,-0.650138,-0.668072
1629880733773,-0.35465399999999997,-0.649955,-0.667279
1629880733783,-0.35563,-0.650382,-0.666852
1629880733793,-0.355508,-0.65209,-0.666974
1629880733802,-0.356057,-0.652822,-0.666669
1629880733812,-0.356301,-0.653188,-0.666608
1629880733821,-0.355447,-0.653493,-0.667096
1629880733831,-0.355203,-0.652578,-0.6667299999999999
1629880733841,-0.35502,-0.652334,-0.667889
1629880733850,-0.35502,-0.652883,-0.668072
1629880733860,-0.356545,-0.652761,-0.668987
1629880733869,-0.356301,-0.651663,-0.668438
1629880733879,-0.355996,-0.651358,-0.6679499999999999
1629880733889,-0.356118,-0.650138,-0.6682549999999999
1629880733898,-0.356301,-0.65026,-0.668316
1629880733908,-0.356118,-0.649894,-0.670512
1629880733917,-0.356301,-0.649711,-0.67039
1629880733927,-0.35587399999999997,-0.650687,-0.670024
1629880733937,-0.355813,-0.650931,-0.669597
1629880733946,-0.355508,-0.651053,-0.668682
1629880733956,-0.355447,-0.650809,-0.667767
1629880733965,-0.35587399999999997,-0.650321,-0.6679499999999999
1629880733975,-0.355996,-0.65087,-0.667279
1629880733985,-0.355935,-0.651175,-0.666669
1629880733994,-0.355752,-0.651053,-0.667523
1629880734004,-0.354471,-0.650748,-0.668072
1629880734013,-0.355203,-0.650992,-0.667523
1629880734023,-0.35441,-0.651419,-0.6673399999999999
1629880734033,-0.353922,-0.651968,-0.6667299999999999
1629880734042,-0.353678,-0.651602,-0.667523
1629880734052,-0.35495899999999997,-0.652273,-0.666608
1629880734061,-0.354593,-0.6527,-0.665876
1629880734071,-0.354227,-0.65209,-0.6658149999999999
1629880734081,-0.354471,-0.652761,-0.666486
1629880734090,-0.3538,-0.651968,-0.667401
1629880734100,-0.354471,-0.6527,-0.6667299999999999
1629880734109,-0.352946,-0.651114,-0.6679499999999999
1629880734119,-0.353068,-0.651053,-0.666364
1629880734129,-0.354776,-0.650321,-0.666242
1629880734138,-0.354776,-0.650504,-0.667523
1629880734148,-0.354715,-0.65087,-0.667462
1629880734157,-0.35526399999999997,-0.651236,-0.668133
1629880734167,-0.35617899999999997,-0.650809,-0.6676449999999999
1629880734177,-0.35526399999999997,-0.652944,-0.668743
1629880734186,-0.355325,-0.652395,-0.6691699999999999
1629880734196,-0.355386,-0.652517,-0.669658
1629880734205,-0.35563,-0.65209,-0.6685599999999999
1629880734215,-0.355386,-0.651846,-0.6691699999999999
1629880734225,-0.355386,-0.651114,-0.668377
1629880734234,-0.355996,-0.651053,-0.6673399999999999
1629880734244,-0.356301,-0.650138,-0.667462
1629880734253,-0.355325,-0.651297,-0.667401
1629880734263,-0.35563,-0.651236,-0.667584
1629880734273,-0.355508,-0.651968,-0.667828
1629880734282,-0.355813,-0.652578,-0.668133
1629880734292,-0.35495899999999997,-0.653554,-0.669658
1629880734301,-0.355203,-0.652334,-0.671183
1629880734311,-0.354715,-0.651724,-0.671305
1629880734321,-0.353495,-0.650748,-0.672037
1629880734330,-0.354105,-0.65026,-0.671671
1629880734340,-0.352763,-0.647942,-0.672037
1629880734349,-0.352336,-0.646051,-0.670146
1629880734359,-0.35197,-0.6433059999999999,-0.667096
1629880734369,-0.35197,-0.644953,-0.668194
1629880734378,-0.352275,-0.646661,-0.667279
1629880734388,-0.352336,-0.648308,-0.6670349999999999
1629880734397,-0.352702,-0.649406,-0.6691699999999999
1629880734407,-0.35441,-0.651114,-0.670512
1629880734417,-0.35404399999999997,-0.653493,-0.671549
1629880734426,-0.353678,-0.653981,-0.669597
1629880734436,-0.354898,-0.653737,-0.6667299999999999
1629880734445,-0.35648399999999997,-0.652517,-0.6658149999999999
1629880734455,-0.355996,-0.65148,-0.664412
1629880734465,-0.356667,-0.651419,-0.663802
1629880734474,-0.35685,-0.651968,-0.664351
1629880734484,-0.357033,-0.651358,-0.664168
1629880734493,-0.35563,-0.652822,-0.668499
1629880734503,-0.354471,-0.655628,-0.672098
1629880734513,-0.356118,-0.655323,-0.674172
1629880734522,-0.35587399999999997,-0.655567,-0.672525
1629880734532,-0.357338,-0.654347,-0.6697799999999999
1629880734541,-0.357338,-0.652029,-0.6688649999999999
1629880734551,-0.358192,-0.649467,-0.668499
1629880734561,-0.357826,-0.648857,-0.668499
1629880734570,-0.35678899999999997,-0.648247,-0.668316
1629880734580,-0.356118,-0.647515,-0.6685599999999999
1629880734589,-0.35563,-0.647637,-0.668987
1629880734599,-0.35526399999999997,-0.647576,-0.669841
1629880734609,-0.355691,-0.64843,-0.670146
1629880734618,-0.354776,-0.649284,-0.6697799999999999
1629880734628,-0.35404399999999997,-0.649406,-0.669048
1629880734637,-0.354532,-0.650992,-0.6673399999999999
1629880734647,-0.354532,-0.651907,-0.664656
1629880734657,-0.35441,-0.651724,-0.6645949999999999
1629880734666,-0.354776,-0.651663,-0.6636799999999999
1629880734676,-0.35495899999999997,-0.652395,-0.664107
1629880734685,-0.354105,-0.65514,-0.663863
1629880734695,-0.355996,-0.655567,-0.663558
1629880734705,-0.35685,-0.6566649999999999,-0.664046
1629880734714,-0.35685,-0.657946,-0.664229
1629880734724,-0.355691,-0.6584949999999999,-0.664351
1629880734733,-0.356972,-0.6591049999999999,-0.662826
1629880734743,-0.356301,-0.658434,-0.663009
1629880734753,-0.356301,-0.657702,-0.663497
1629880734762,-0.35617899999999997,-0.655628,-0.663558
1629880734772,-0.356972,-0.653676,-0.6627649999999999
1629880734781,-0.35648399999999997,-0.651663,-0.662643
1629880734791,-0.35831399999999997,-0.649528,-0.6627649999999999
1629880734801,-0.356667,-0.649772,-0.664534
1629880734810,-0.355752,-0.651724,-0.664778
1629880734820,-0.357338,-0.652822,-0.664229
1629880734829,-0.357155,-0.652273,-0.663924
1629880734839,-0.357643,-0.65331,-0.6655099999999999
1629880734849,-0.357338,-0.653737,-0.665693
1629880734858,-0.357277,-0.652639,-0.6658149999999999
1629880734868,-0.357338,-0.653249,-0.665388
1629880734877,-0.35868,-0.653554,-0.6655099999999999
1629880734887,-0.358985,-0.653798,-0.666547
1629880734897,-0.358558,-0.654469,-0.666242
1629880734906,-0.35922899999999997,-0.655018,-0.666608
1629880734916,-0.359778,-0.655323,-0.666181
1629880734925,-0.359473,-0.655262,-0.666242
1629880734935,-0.359595,-0.6554449999999999,-0.665754
1629880734945,-0.359046,-0.654896,-0.665937
1629880734954,-0.35868,-0.654225,-0.664229
1629880734964,-0.358558,-0.653493,-0.6655099999999999
1629880734973,-0.357582,-0.6527,-0.665266
1629880734983,-0.35770399999999997,-0.651785,-0.665083
1629880734993,-0.357948,-0.650504,-0.6642899999999999
1629880735002,-0.35770399999999997,-0.650077,-0.665449
1629880735012,-0.357948,-0.649528,-0.665754
1629880735021,-0.357826,-0.649467,-0.6658149999999999
1629880735031,-0.35746,-0.650199,-0.667096
1629880735041,-0.356911,-0.649467,-0.667767
1629880735050,-0.35685,-0.650199,-0.668377
1629880735060,-0.356301,-0.650809,-0.669292
1629880735069,-0.35624,-0.650443,-0.668438
1629880735079,-0.356301,-0.649833,-0.6688649999999999
1629880735089,-0.356362,-0.649528,-0.6694749999999999
1629880735098,-0.35617899999999997,-0.649955,-0.668499
1629880735108,-0.355386,-0.649101,-0.6691699999999999
1629880735117,-0.354471,-0.648796,-0.669414
1629880735127,-0.354288,-0.647637,-0.6682549999999999
1629880735137,-0.355996,-0.647271,-0.666486
1629880735146,-0.35624,-0.644892,-0.6645949999999999
1629880735156,-0.357277,-0.645624,-0.663619
1629880735165,-0.357338,-0.648247,-0.664473
1629880735175,-0.35739899999999997,-0.650382,-0.6670349999999999
1629880735185,-0.358558,-0.651785,-0.668682
1629880735194,-0.358436,-0.652822,-0.670146
1629880735204,-0.359473,-0.653798,-0.669658
1629880735213,-0.360388,-0.65453,-0.670024
1629880735223,-0.3599,-0.653981,-0.670756
1629880735233,-0.361486,-0.651175,-0.6697799999999999
1629880735242,-0.361181,-0.649833,-0.6700849999999999
1629880735252,-0.360693,-0.64721,-0.669231
1629880735261,-0.361303,-0.646356,-0.669048
1629880735271,-0.360022,-0.647332,-0.669902
1629880735281,-0.359717,-0.647576,-0.671122
1629880735290,-0.358863,-0.64843,-0.67039
1629880735300,-0.358192,-0.649284,-0.670756
1629880735309,-0.357582,-0.648308,-0.670939
1629880735319,-0.357033,-0.649223,-0.6694749999999999
1629880735329,-0.35556899999999997,-0.649406,-0.669902
1629880735338,-0.356057,-0.649284,-0.6700849999999999
1629880735348,-0.356301,-0.648552,-0.669292
1629880735357,-0.355203,-0.64843,-0.668926
1629880735367,-0.354715,-0.648735,-0.6685599999999999
1629880735377,-0.354898,-0.64782,-0.6682549999999999
1629880735386,-0.35434899999999997,-0.648674,-0.668194
1629880735396,-0.3538,-0.648247,-0.667706
1629880735405,-0.355203,-0.64904,-0.667096
1629880735415,-0.354837,-0.649101,-0.666791
1629880735425,-0.355081,-0.649894,-0.666669
1629880735434,-0.355203,-0.650748,-0.668621
1629880735444,-0.355508,-0.651602,-0.668743
1629880735453,-0.355996,-0.650687,-0.669292
1629880735463,-0.355325,-0.651175,-0.668621
1629880735473,-0.35648399999999997,-0.65026,-0.668072
1629880735482,-0.356667,-0.650626,-0.668133
1629880735492,-0.357582,-0.649162,-0.667462
1629880735501,-0.358131,-0.647698,-0.6691699999999999
1629880735511,-0.356972,-0.646356,-0.6700849999999999
1629880735521,-0.357582,-0.646295,-0.670268
1629880735530,-0.357643,-0.646112,-0.670329
1629880735540,-0.35800899999999997,-0.646356,-0.671366
1629880735549,-0.35685,-0.64599,-0.671549
1629880735559,-0.357033,-0.645807,-0.671183
1629880735569,-0.357155,-0.646234,-0.670878
1629880735578,-0.35563,-0.648064,-0.670817
1629880735588,-0.355325,-0.648003,-0.670329
1629880735597,-0.35563,-0.648064,-0.669353
1629880735607,-0.355081,-0.646417,-0.669292
1629880735617,-0.356667,-0.647698,-0.669597
1629880735626,-0.356362,-0.649162,-0.6691699999999999
1629880735636,-0.355447,-0.649284,-0.668316
1629880735645,-0.356362,-0.649223,-0.664961
1629880735655,-0.35739899999999997,-0.649894,-0.6655099999999999
1629880735665,-0.358436,-0.648247,-0.665022
1629880735674,-0.35861899999999997,-0.647515,-0.666364
1629880735684,-0.359595,-0.649833,-0.667279
1629880735693,-0.358985,-0.65026,-0.667462
1629880735703,-0.358558,-0.650321,-0.6697799999999999
1629880735713,-0.358558,-0.651419,-0.671854
1629880735722,-0.358741,-0.651541,-0.672708
1629880735732,-0.360327,-0.651785,-0.671427
1629880735741,-0.361242,-0.651236,-0.671
1629880735751,-0.362096,-0.649894,-0.669414
1629880735761,-0.361852,-0.647149,-0.6691699999999999
1629880735770,-0.362401,-0.645868,-0.669048
1629880735780,-0.361852,-0.6442209999999999,-0.669292
1629880735789,-0.360815,-0.643672,-0.670939
1629880735799,-0.35922899999999997,-0.644038,-0.672586
1629880735809,-0.359717,-0.64416,-0.673074
1629880735818,-0.358802,-0.6436109999999999,-0.672952
1629880735828,-0.357582,-0.642879,-0.67222
1629880735837,-0.35861899999999997,-0.642208,-0.670634
1629880735847,-0.359046,-0.642452,-0.6685599999999999
1629880735857,-0.359595,-0.6439159999999999,-0.666913
1629880735866,-0.359961,-0.644892,-0.666059
1629880735876,-0.360815,-0.646539,-0.6661199999999999
1629880735885,-0.360632,-0.648125,-0.6661199999999999
1629880735895,-0.360388,-0.650016,-0.666608
1629880735905,-0.360876,-0.651175,-0.6676449999999999
1629880735914,-0.360754,-0.651968,-0.668316
1629880735924,-0.36173,-0.651419,-0.6682549999999999
1629880735933,-0.362828,-0.649711,-0.668621
1629880735943,-0.362157,-0.649162,-0.669353
1629880735953,-0.362645,-0.647881,-0.6691699999999999
1629880735962,-0.362645,-0.645807,-0.670573
1629880735972,-0.36356,-0.643672,-0.669231
1629880735981,-0.364109,-0.64355,-0.67039
1629880735991,-0.363438,-0.643062,-0.670512
1629880736001,-0.364353,-0.642025,-0.668926
1629880736010,-0.365024,-0.6411709999999999,-0.669292
1629880736020,-0.36392599999999997,-0.643672,-0.67222
1629880736029,-0.363499,-0.6454409999999999,-0.674416
1629880736039,-0.364048,-0.644465,-0.67283
1629880736049,-0.363255,-0.6457459999999999,-0.672342
1629880736058,-0.363499,-0.646966,-0.67161
1629880736068,-0.363438,-0.646844,-0.671
1629880736077,-0.363072,-0.646417,-0.671061
1629880736087,-0.362157,-0.646539,-0.669414
1629880736097,-0.36173,-0.646722,-0.668438
1629880736106,-0.361425,-0.647149,-0.6682549999999999
1629880736116,-0.361974,-0.647637,-0.669231
1629880736125,-0.361364,-0.647271,-0.668682
1629880736135,-0.361242,-0.647576,-0.668133
1629880736145,-0.360388,-0.646661,-0.668194
1629880736154,-0.360266,-0.646661,-0.667828
1629880736164,-0.360815,-0.64721,-0.668438
1629880736173,-0.360571,-0.646417,-0.6691699999999999
1629880736183,-0.360754,-0.646539,-0.668743
1629880736193,-0.361059,-0.645502,-0.669414
1629880736202,-0.361547,-0.645319,-0.6691699999999999
1629880736212,-0.361486,-0.645075,-0.669231
1629880736221,-0.362279,-0.64355,-0.670146
1629880736231,-0.361852,-0.643733,-0.670451
1629880736241,-0.362157,-0.643489,-0.67161
1629880736250,-0.361669,-0.643062,-0.672708
1629880736260,-0.361059,-0.64294,-0.672525
1629880736269,-0.361303,-0.6433059999999999,-0.673989
1629880736279,-0.361974,-0.642635,-0.672708
1629880736289,-0.362096,-0.642818,-0.673013
1629880736298,-0.36173,-0.642818,-0.672708
1629880736308,-0.360388,-0.643062,-0.672769
1629880736317,-0.36112,-0.64355,-0.67161
1629880736327,-0.360266,-0.643428,-0.671366
1629880736337,-0.360876,-0.643367,-0.670329
1629880736346,-0.360205,-0.644038,-0.670512
1629880736356,-0.359839,-0.6436109999999999,-0.670512
1629880736365,-0.361059,-0.64416,-0.670573
1629880736375,-0.360388,-0.644709,-0.671244
1629880736385,-0.360937,-0.644892,-0.670268
1629880736394,-0.361364,-0.645624,-0.670512
1629880736404,-0.361242,-0.6448309999999999,-0.670573
1629880736413,-0.361547,-0.64477,-0.671488
1629880736423,-0.361852,-0.644343,-0.671488
1629880736433,-0.361486,-0.644587,-0.672342
1629880736442,-0.362523,-0.6439159999999999,-0.673257
1629880736452,-0.362157,-0.6439159999999999,-0.673806
1629880736461,-0.36295,-0.643733,-0.674111
1629880736471,-0.363133,-0.644038,-0.673013
1629880736481,-0.362889,-0.643489,-0.673989
1629880736490,-0.362889,-0.643367,-0.673867
1629880736500,-0.362645,-0.64294,-0.673562
1629880736509,-0.36234,-0.642269,-0.67405
1629880736519,-0.361669,-0.641842,-0.673928
1629880736529,-0.362401,-0.642513,-0.673928
1629880736538,-0.361791,-0.642757,-0.674416
1629880736548,-0.361669,-0.641415,-0.673684
1629880736557,-0.361852,-0.641598,-0.672403
1629880736567,-0.361852,-0.641842,-0.672647
1629880736577,-0.36173,-0.6426959999999999,-0.671366
1629880736586,-0.361486,-0.642574,-0.671488
1629880736596,-0.36173,-0.64233,-0.670939
1629880736605,-0.359656,-0.642513,-0.671122
1629880736615,-0.360388,-0.643245,-0.670573
1629880736625,-0.361059,-0.643855,-0.671183
1629880736634,-0.360266,-0.644404,-0.669597
1629880736644,-0.36051,-0.644587,-0.67039
1629880736653,-0.359778,-0.644282,-0.6691699999999999
1629880736663,-0.359778,-0.644587,-0.670329
1629880736673,-0.360632,-0.64416,-0.671183
1629880736682,-0.360632,-0.644465,-0.671366
1629880736692,-0.360754,-0.644404,-0.671915
1629880736701,-0.361242,-0.643855,-0.67283
1629880736711,-0.361608,-0.643489,-0.673257
1629880736721,-0.361242,-0.6445259999999999,-0.673196
1629880736730,-0.361059,-0.64294,-0.670573
1629880736740,-0.361242,-0.641964,-0.669902
1629880736749,-0.362279,-0.641354,-0.669597
1629880736759,-0.361669,-0.639158,-0.668621
1629880736769,-0.362157,-0.640195,-0.670512
1629880736778,-0.361974,-0.64355,-0.671732
1629880736788,-0.36234,-0.646722,-0.672281
1629880736797,-0.363072,-0.647393,-0.673074
1629880736807,-0.362096,-0.649894,-0.673562
1629880736817,-0.362401,-0.650565,-0.674721
1629880736826,-0.36423099999999997,-0.651968,-0.673074
1629880736836,-0.363743,-0.649223,-0.671122
1629880736845,-0.364048,-0.648003,-0.670573
1629880736855,-0.363377,-0.645624,-0.6694749999999999
1629880736865,-0.363011,-0.645014,-0.668438
1629880736874,-0.361974,-0.64477,-0.669414
1629880736884,-0.361913,-0.643855,-0.670634
1629880736893,-0.36051,-0.644038,-0.671
1629880736903,-0.359839,-0.6445259999999999,-0.671122
1629880736913,-0.35868,-0.645685,-0.6700849999999999
1629880736922,-0.359412,-0.645319,-0.669353
1629880736932,-0.360266,-0.644404,-0.6676449999999999
1629880736941,-0.360327,-0.645014,-0.6667299999999999
1629880736951,-0.360998,-0.645624,-0.665998
1629880736961,-0.36051,-0.646905,-0.666547
1629880736970,-0.360266,-0.646905,-0.6673399999999999
1629880736980,-0.360205,-0.647759,-0.668621
1629880736989,-0.360144,-0.648857,-0.670146
1629880736999,-0.359717,-0.648491,-0.670512
1629880737009,-0.3599,-0.647271,-0.671793
1629880737018,-0.360876,-0.646234,-0.671122
1629880737028,-0.360449,-0.645502,-0.672403
1629880737037,-0.36051,-0.645258,-0.672037
1629880737047,-0.35953399999999996,-0.643733,-0.672037
1629880737057,-0.359656,-0.64172,-0.673074
1629880737066,-0.360388,-0.64111,-0.673196
1629880737076,-0.360754,-0.641903,-0.672647
1629880737085,-0.361181,-0.641964,-0.671305
1629880737095,-0.361852,-0.638365,-0.669292
1629880737105,-0.360388,-0.6399509999999999,-0.672281
1629880737114,-0.359839,-0.642818,-0.674599
1629880737124,-0.360266,-0.64477,-0.675514
1629880737133,-0.36051,-0.646356,-0.675148
1629880737143,-0.36112,-0.646051,-0.674721
1629880737153,-0.362218,-0.642879,-0.672891
1629880737162,-0.36539,-0.638365,-0.673562
1629880737172,-0.363804,-0.64111,-0.673501
1629880737181,-0.360937,-0.644038,-0.673867
1629880737191,-0.360815,-0.64355,-0.674904
1629880737201,-0.36173,-0.6417809999999999,-0.675087
1629880737210,-0.360022,-0.644099,-0.674904
1629880737220,-0.359473,-0.644953,-0.674416
1629880737229,-0.360815,-0.64416,-0.67405
1629880737239,-0.361364,-0.6439159999999999,-0.672464
1629880737249,-0.360083,-0.644648,-0.671366
1629880737258,-0.359656,-0.6442209999999999,-0.670329
1629880737268,-0.3599,-0.643977,-0.670512
1629880737277,-0.360327,-0.644099,-0.671366
1629880737287,-0.3599,-0.644099,-0.672159
1629880737297,-0.3599,-0.643855,-0.671915
1629880737306,-0.359351,-0.6439159999999999,-0.673135
1629880737316,-0.359412,-0.643184,-0.672464
1629880737325,-0.359046,-0.6430009999999999,-0.672952
1629880737335,-0.35868,-0.643245,-0.67405
1629880737345,-0.358497,-0.641354,-0.674172
1629880737354,-0.35929,-0.6414759999999999,-0.674782
1629880737364,-0.35868,-0.641537,-0.673928
1629880737373,-0.35868,-0.6414759999999999,-0.673806
1629880737383,-0.358863,-0.640927,-0.673318
1629880737393,-0.35861899999999997,-0.641415,-0.673806
1629880737402,-0.358741,-0.64172,-0.673684
1629880737412,-0.358985,-0.64172,-0.673928
1629880737421,-0.358558,-0.6417809999999999,-0.673318
1629880737431,-0.358497,-0.64172,-0.673379
1629880737441,-0.359168,-0.641842,-0.673562
1629880737450,-0.35953399999999996,-0.642208,-0.673623
1629880737460,-0.35929,-0.6436109999999999,-0.67405
1629880737469,-0.359961,-0.643245,-0.674294
1629880737479,-0.360205,-0.642879,-0.673501
1629880737489,-0.36112,-0.642208,-0.674111
1629880737498,-0.360449,-0.642513,-0.673806
1629880737508,-0.360266,-0.642757,-0.674538
1629880737517,-0.360754,-0.642147,-0.674782
1629880737527,-0.360693,-0.642269,-0.674599
1629880737537,-0.361364,-0.6430009999999999,-0.674599
1629880737546,-0.360205,-0.642818,-0.67588
1629880737556,-0.360998,-0.6436109999999999,-0.675209
1629880737565,-0.361913,-0.6442209999999999,-0.673928
1629880737575,-0.362035,-0.643123,-0.674965
1629880737585,-0.362157,-0.642635,-0.674843
1629880737594,-0.36173,-0.6420859999999999,-0.676124
1629880737604,-0.36173,-0.641415,-0.676246
1629880737613,-0.361669,-0.640988,-0.67588
1629880737623,-0.361486,-0.641354,-0.67588
1629880737633,-0.361364,-0.641293,-0.674782
1629880737642,-0.360327,-0.641232,-0.673928
1629880737652,-0.360571,-0.6405,-0.673074
1629880737661,-0.359412,-0.64111,-0.673806
1629880737671,-0.357948,-0.641354,-0.673684
1629880737681,-0.358131,-0.641964,-0.674477
1629880737690,-0.358131,-0.6417809999999999,-0.67527
1629880737700,-0.35800899999999997,-0.641659,-0.674721
1629880737709,-0.357216,-0.642818,-0.674294
1629880737719,-0.35770399999999997,-0.643489,-0.675087
1629880737729,-0.35685,-0.644282,-0.673989
1629880737738,-0.357338,-0.6436109999999999,-0.671
1629880737748,-0.357338,-0.643794,-0.669658
1629880737757,-0.357216,-0.6423909999999999,-0.669292
1629880737767,-0.357826,-0.640805,-0.668377
1629880737777,-0.357338,-0.642269,-0.670695
1629880737786,-0.35678899999999997,-0.6448309999999999,-0.673684
1629880737796,-0.357216,-0.647088,-0.675392
1629880737805,-0.357216,-0.646051,-0.675758
1629880737815,-0.357521,-0.645807,-0.677222
1629880737825,-0.357338,-0.647088,-0.678503
1629880737834,-0.358802,-0.6445259999999999,-0.677222
1629880737844,-0.35922899999999997,-0.643367,-0.676429
1629880737853,-0.359656,-0.642635,-0.675209
1629880737863,-0.35929,-0.640622,-0.674721
1629880737873,-0.359046,-0.6402559999999999,-0.674782
1629880737882,-0.358192,-0.640012,-0.674904
1629880737892,-0.35807,-0.6408659999999999,-0.675819
1629880737901,-0.356301,-0.641842,-0.675819
1629880737911,-0.355508,-0.6423909999999999,-0.675514
1629880737921,-0.354532,-0.643062,-0.675087
1629880737930,-0.354837,-0.64416,-0.673501
1629880737940,-0.354227,-0.644953,-0.67222
1629880737949,-0.355081,-0.64477,-0.670451
1629880737959,-0.355325,-0.644282,-0.669841
1629880737969,-0.356606,-0.64294,-0.670634
1629880737978,-0.35709399999999997,-0.644282,-0.673562
1629880737988,-0.354532,-0.648552,-0.672647
1629880737997,-0.353556,-0.648857,-0.673623
1629880738007,-0.354532,-0.647027,-0.675209
1629880738017,-0.35404399999999997,-0.647759,-0.675758
1629880738026,-0.353007,-0.649223,-0.675087
1629880738036,-0.35282399999999997,-0.650016,-0.674904
1629880738045,-0.353251,-0.64904,-0.674843
1629880738055,-0.35373899999999997,-0.645258,-0.674538
1629880738065,-0.35221399999999997,-0.644953,-0.674111
1629880738074,-0.352702,-0.646112,-0.673074
1629880738084,-0.35282399999999997,-0.6436109999999999,-0.673745
1629880738093,-0.354715,-0.64172,-0.671305
1629880738103,-0.35197,-0.642452,-0.672342
1629880738113,-0.350933,-0.642879,-0.675819
1629880738122,-0.35197,-0.643672,-0.677527
1629880738132,-0.350933,-0.646966,-0.678076
1629880738141,-0.352275,-0.645075,-0.677954
1629880738151,-0.352763,-0.6442209999999999,-0.675636
1629880738161,-0.352092,-0.64538,-0.674416
1629880738170,-0.35319,-0.645075,-0.67405
1629880738180,-0.352885,-0.645197,-0.67405
1629880738189,-0.352397,-0.645319,-0.672769
1629880738199,-0.352092,-0.64538,-0.674782
1629880738209,-0.350994,-0.648064,-0.675209
1629880738218,-0.349896,-0.647454,-0.676063
1629880738228,-0.350201,-0.647454,-0.67466
1629880738237,-0.34953,-0.647637,-0.672586
1629880738247,-0.349286,-0.646905,-0.671427
1629880738257,-0.349713,-0.64782,-0.671
1629880738266,-0.349042,-0.648552,-0.671915
1629880738276,-0.349896,-0.649833,-0.670756
1629880738285,-0.349164,-0.649528,-0.671122
1629880738295,-0.350201,-0.650199,-0.671122
1629880738305,-0.34892,-0.651297,-0.671854
1629880738314,-0.348798,-0.651602,-0.671366
1629880738324,-0.349103,-0.648491,-0.67161
1629880738333,-0.348615,-0.650809,-0.671671
1629880738343,-0.349835,-0.650504,-0.67283
1629880738353,-0.351726,-0.649589,-0.67527
1629880738362,-0.351848,-0.652212,-0.674355
1629880738372,-0.351726,-0.653066,-0.67466
1629880738381,-0.351543,-0.652761,-0.674965
1629880738391,-0.351482,-0.652456,-0.67588
1629880738401,-0.350689,-0.651236,-0.676002
1629880738410,-0.349591,-0.649223,-0.675148
1629880738420,-0.347822,-0.647088,-0.675026
1629880738429,-0.34892,-0.645319,-0.675026
1629880738439,-0.347944,-0.644465,-0.676002
1629880738449,-0.348127,-0.643977,-0.67527
1629880738458,-0.348066,-0.643977,-0.675209
1629880738468,-0.347883,-0.643977,-0.674965
1629880738477,-0.346968,-0.645624,-0.674782
1629880738487,-0.34587,-0.647942,-0.674477
1629880738497,-0.344406,-0.649284,-0.675026
1629880738506,-0.343613,-0.650382,-0.674355
1629880738516,-0.344528,-0.651602,-0.673806
1629880738525,-0.34446699999999997,-0.652273,-0.67405
1629880738535,-0.344345,-0.652334,-0.674538
1629880738545,-0.34465,-0.651358,-0.675514
1629880738554,-0.343491,-0.651663,-0.676063
1629880738564,-0.343186,-0.651541,-0.675819
1629880738573,-0.343003,-0.65026,-0.677344
1629880738583,-0.343003,-0.649894,-0.676917
1629880738593,-0.343369,-0.648979,-0.676246
1629880738602,-0.341844,-0.648613,-0.675514
1629880738612,-0.341356,-0.648125,-0.676429
1629880738621,-0.339953,-0.648186,-0.676063
1629880738631,-0.340441,-0.647515,-0.675575
1629880738641,-0.340563,-0.647454,-0.675575
1629880738650,-0.340685,-0.64782,-0.675575
1629880738660,-0.340319,-0.647027,-0.675087
1629880738669,-0.339465,-0.647698,-0.676185
1629880738679,-0.340563,-0.649833,-0.677344
1629880738689,-0.339404,-0.649467,-0.675514
1629880738698,-0.339953,-0.649528,-0.672769
1629880738708,-0.33958699999999997,-0.648796,-0.671549
1629880738717,-0.339648,-0.647088,-0.672342
1629880738727,-0.338855,-0.646783,-0.673257
1629880738737,-0.34099,-0.645807,-0.673745
1629880738746,-0.33989199999999997,-0.649772,-0.675758
1629880738756,-0.338916,-0.652883,-0.676429
1629880738765,-0.340136,-0.652151,-0.677954
1629880738775,-0.338428,-0.652761,-0.679052
1629880738785,-0.340075,-0.653066,-0.680211
1629880738794,-0.340563,-0.65209,-0.678015
1629880738804,-0.34050199999999997,-0.653432,-0.67405
1629880738813,-0.340868,-0.651968,-0.673806
1629880738823,-0.341844,-0.650504,-0.673928
1629880738833,-0.34038,-0.65148,-0.673318
1629880738842,-0.340258,-0.651419,-0.674172
1629880738852,-0.339709,-0.651053,-0.674965
1629880738861,-0.339831,-0.650321,-0.674416
1629880738871,-0.338794,-0.650809,-0.676734
1629880738881,-0.339648,-0.650748,-0.676673
1629880738890,-0.341173,-0.649589,-0.676307
1629880738900,-0.342271,-0.64843,-0.67588
1629880738909,-0.341966,-0.64843,-0.675819
1629880738919,-0.343674,-0.648125,-0.675758
1629880738929,-0.342881,-0.649162,-0.676734
1629880738938,-0.34404,-0.649284,-0.67771
1629880738948,-0.344894,-0.648857,-0.678991
1629880738957,-0.343308,-0.649467,-0.678564
1629880738967,-0.34404,-0.650016,-0.676734
1629880738977,-0.34477199999999997,-0.649284,-0.676978
1629880738986,-0.34446699999999997,-0.650321,-0.675819
1629880738996,-0.343796,-0.651053,-0.67649
1629880739005,-0.34233199999999997,-0.652151,-0.675514
1629880739015,-0.34416199999999997,-0.649894,-0.673135
1629880739025,-0.345138,-0.649772,-0.671427
1629880739034,-0.343796,-0.651297,-0.670939
1629880739044,-0.34648,-0.648552,-0.6685599999999999
1629880739053,-0.344528,-0.648857,-0.67039
1629880739063,-0.343369,-0.651358,-0.673196
1629880739073,-0.344101,-0.650687,-0.676795
1629880739082,-0.343186,-0.65331,-0.677405
1629880739092,-0.34343,-0.653127,-0.675148
1629880739101,-0.34538199999999997,-0.651358,-0.673562
1629880739111,-0.346541,-0.651053,-0.671305
1629880739121,-0.347578,-0.650992,-0.670268
1629880739130,-0.348066,-0.65026,-0.671305
1629880739140,-0.347944,-0.650992,-0.671732
1629880739149,-0.347944,-0.651236,-0.672952
1629880739159,-0.347334,-0.651907,-0.673928
1629880739169,-0.34660199999999997,-0.652212,-0.675087
1629880739178,-0.346724,-0.650748,-0.674233
1629880739188,-0.346724,-0.649955,-0.673684
1629880739197,-0.347456,-0.649284,-0.67222
1629880739207,-0.348432,-0.648674,-0.67161
1629880739217,-0.349652,-0.648613,-0.672708
1629880739226,-0.348676,-0.649223,-0.672281
1629880739236,-0.349286,-0.649101,-0.673013
1629880739245,-0.349286,-0.648369,-0.673928
1629880739255,-0.349713,-0.648918,-0.674965
1629880739265,-0.350384,-0.649345,-0.675514
1629880739274,-0.350445,-0.649284,-0.676734
1629880739284,-0.350323,-0.648247,-0.67649
1629880739293,-0.350811,-0.648125,-0.675758
1629880739303,-0.350872,-0.648552,-0.676551
1629880739313,-0.351848,-0.64782,-0.675148
1629880739322,-0.352031,-0.64843,-0.673135
1629880739332,-0.351055,-0.64904,-0.672586
1629880739341,-0.35075,-0.649162,-0.67283
1629880739351,-0.350079,-0.649223,-0.671488
1629880739361,-0.350384,-0.649955,-0.67161
1629880739370,-0.350506,-0.649772,-0.670268
1629880739380,-0.350018,-0.649772,-0.671732
1629880739389,-0.349835,-0.648247,-0.672464
1629880739399,-0.349408,-0.648369,-0.672342
1629880739409,-0.349347,-0.64904,-0.671122
1629880739418,-0.348554,-0.65026,-0.670878
1629880739428,-0.34892,-0.647698,-0.671793
1629880739437,-0.349469,-0.648003,-0.670878
1629880739447,-0.349408,-0.650138,-0.671183
1629880739457,-0.349042,-0.651175,-0.671244
1629880739466,-0.349957,-0.650382,-0.671183
1629880739476,-0.349225,-0.651602,-0.671244
1629880739485,-0.347944,-0.651663,-0.670817
1629880739495,-0.349957,-0.65026,-0.6700849999999999
1629880739505,-0.349652,-0.651114,-0.671
1629880739514,-0.349591,-0.650809,-0.671
1629880739524,-0.349286,-0.650992,-0.672708
1629880739533,-0.350567,-0.650809,-0.672525
1629880739543,-0.350384,-0.650748,-0.671061
1629880739553,-0.350811,-0.650626,-0.669963
1629880739562,-0.352397,-0.647759,-0.668499
1629880739572,-0.35319,-0.646905,-0.669414
1629880739581,-0.35190899999999997,-0.647393,-0.672342
1629880739591,-0.352702,-0.647271,-0.671854
1629880739601,-0.353678,-0.650809,-0.67283
1629880739610,-0.354288,-0.651541,-0.674233
1629880739620,-0.353983,-0.651968,-0.67344
1629880739629,-0.35312899999999997,-0.652273,-0.673257
1629880739639,-0.352763,-0.652212,-0.673074
1629880739649,-0.353312,-0.651419,-0.670939
1629880739658,-0.352458,-0.650626,-0.670329
1629880739668,-0.35312899999999997,-0.651236,-0.669658
1629880739677,-0.352702,-0.65026,-0.669597
1629880739687,-0.353068,-0.649772,-0.670146
1629880739697,-0.352397,-0.64904,-0.669902
1629880739706,-0.351421,-0.649406,-0.669841
1629880739716,-0.351299,-0.649711,-0.669902
1629880739725,-0.352458,-0.649955,-0.669231
1629880739735,-0.35258,-0.649406,-0.669841
1629880739745,-0.351787,-0.650016,-0.670451
1629880739754,-0.35190899999999997,-0.649772,-0.669658
1629880739764,-0.352275,-0.650321,-0.670817
1629880739773,-0.354166,-0.649894,-0.67039
1629880739783,-0.353861,-0.650077,-0.670573
1629880739793,-0.35404399999999997,-0.650687,-0.671183
1629880739802,-0.3538,-0.650687,-0.671488
1629880739812,-0.353983,-0.650138,-0.67161
1629880739821,-0.353983,-0.650992,-0.672342
1629880739831,-0.353373,-0.651175,-0.672159
1629880739841,-0.35319,-0.650809,-0.67283
1629880739850,-0.35258,-0.650809,-0.67405
1629880739860,-0.35258,-0.648674,-0.670878
1629880739869,-0.35404399999999997,-0.64721,-0.669902
1629880739879,-0.35434899999999997,-0.648003,-0.6700849999999999
1629880739889,-0.355447,-0.6466,-0.668194
1629880739898,-0.35404399999999997,-0.646173,-0.668621
1629880739908,-0.351543,-0.649955,-0.671854
1629880739917,-0.351055,-0.651175,-0.673379
1629880739927,-0.352458,-0.65026,-0.67222
1629880739937,-0.352397,-0.650443,-0.671915
1629880739946,-0.352092,-0.650504,-0.670817
1629880739956,-0.354227,-0.650138,-0.668316
1629880739965,-0.35465399999999997,-0.648918,-0.666303
1629880739975,-0.354227,-0.649711,-0.667096
1629880739985,-0.353922,-0.650565,-0.668194
1629880739994,-0.353495,-0.652212,-0.669414
1629880740004,-0.353495,-0.653249,-0.669963
1629880740013,-0.353678,-0.653249,-0.669719
1629880740023,-0.35373899999999997,-0.654164,-0.6700849999999999
1629880740033,-0.352763,-0.652273,-0.669292
1629880740042,-0.35373899999999997,-0.651663,-0.669048
1629880740052,-0.353312,-0.651419,-0.668377
1629880740061,-0.353617,-0.651114,-0.6691699999999999
1629880740071,-0.3538,-0.650504,-0.669597
1629880740081,-0.354227,-0.650504,-0.669658
1629880740090,-0.3538,-0.649955,-0.670268
1629880740100,-0.354105,-0.65026,-0.671
1629880740109,-0.353678,-0.650077,-0.671122
1629880740119,-0.35312899999999997,-0.649833,-0.670817
1629880740129,-0.353861,-0.649955,-0.670268
1629880740138,-0.353373,-0.650321,-0.670268
1629880740148,-0.354715,-0.650199,-0.670024
1629880740157,-0.352702,-0.650443,-0.668682
1629880740167,-0.35343399999999997,-0.650748,-0.668377
1629880740177,-0.353251,-0.652151,-0.669414
1629880740186,-0.35404399999999997,-0.652395,-0.667218
1629880740196,-0.353617,-0.653249,-0.667218
1629880740205,-0.353556,-0.65331,-0.667279
1629880740215,-0.35404399999999997,-0.653554,-0.667462
1629880740225,-0.35465399999999997,-0.652761,-0.6667299999999999
1629880740234,-0.3538,-0.652517,-0.666608
1629880740244,-0.35404399999999997,-0.651724,-0.667218
1629880740253,-0.354593,-0.65209,-0.6688649999999999
1629880740263,-0.353251,-0.65148,-0.669048
1629880740273,-0.353617,-0.650077,-0.670024
1629880740282,-0.354166,-0.650687,-0.669414
1629880740292,-0.354166,-0.649528,-0.6682549999999999
1629880740301,-0.353983,-0.650748,-0.668316
1629880740311,-0.35495899999999997,-0.650138,-0.668743
1629880740321,-0.354105,-0.650138,-0.669109
1629880740330,-0.35343399999999997,-0.649711,-0.669597
1629880740340,-0.353617,-0.649833,-0.671244
1629880740349,-0.35312899999999997,-0.649894,-0.672525
1629880740359,-0.3538,-0.650016,-0.671
1629880740369,-0.35319,-0.650931,-0.671976
1629880740378,-0.35221399999999997,-0.651968,-0.672037
1629880740388,-0.35282399999999997,-0.651114,-0.667828
1629880740397,-0.35343399999999997,-0.648796,-0.665876
1629880740407,-0.352702,-0.648613,-0.6658149999999999
1629880740417,-0.352153,-0.648247,-0.6661199999999999
1629880740426,-0.352946,-0.64843,-0.666974
1629880740436,-0.352397,-0.651358,-0.6694749999999999
1629880740445,-0.352702,-0.652883,-0.670207
1629880740455,-0.353617,-0.65392,-0.671671
1629880740465,-0.351482,-0.655994,-0.671427
1629880740474,-0.351116,-0.655994,-0.670512
1629880740484,-0.353495,-0.655323,-0.668926
1629880740493,-0.35343399999999997,-0.654774,-0.666852
1629880740503,-0.35343399999999997,-0.653371,-0.666791
1629880740513,-0.353312,-0.652761,-0.667279
1629880740522,-0.352275,-0.652334,-0.6679499999999999
1629880740532,-0.352031,-0.650992,-0.6682549999999999
1629880740541,-0.351177,-0.65026,-0.668987
1629880740551,-0.351665,-0.650382,-0.668682
1629880740561,-0.351543,-0.650443,-0.670329
1629880740570,-0.351482,-0.650321,-0.670451
1629880740580,-0.351787,-0.649284,-0.668987
1629880740589,-0.35282399999999997,-0.648918,-0.668804
1629880740599,-0.352153,-0.649528,-0.668377
1629880740609,-0.353678,-0.649406,-0.667462
1629880740618,-0.354593,-0.651053,-0.667218
1629880740628,-0.35343399999999997,-0.651602,-0.668072
1629880740637,-0.352275,-0.65209,-0.668682
1629880740647,-0.35312899999999997,-0.653188,-0.6691699999999999
1629880740657,-0.352092,-0.653615,-0.67039
1629880740666,-0.35221399999999997,-0.65331,-0.668926
1629880740676,-0.353983,-0.652578,-0.669048
1629880740685,-0.353312,-0.651968,-0.668926
1629880740695,-0.35373899999999997,-0.651968,-0.669719
1629880740705,-0.353068,-0.651358,-0.670024
1629880740714,-0.353495,-0.651053,-0.669231
1629880740724,-0.353861,-0.651358,-0.6700849999999999
1629880740733,-0.354715,-0.649467,-0.668926
1629880740743,-0.355508,-0.647027,-0.6670349999999999
1629880740753,-0.354471,-0.646783,-0.670207
1629880740762,-0.35190899999999997,-0.649711,-0.672098
1629880740772,-0.351543,-0.649711,-0.674294
1629880740781,-0.35197,-0.650809,-0.673257
1629880740791,-0.353312,-0.650748,-0.672281
1629880740801,-0.354227,-0.64843,-0.6682549999999999
1629880740810,-0.353556,-0.649284,-0.668499
1629880740820,-0.354227,-0.649162,-0.6676449999999999
1629880740829,-0.354227,-0.649101,-0.666547
1629880740839,-0.352946,-0.648857,-0.666303
1629880740849,-0.353495,-0.649833,-0.668133
1629880740858,-0.35312899999999997,-0.651358,-0.6688649999999999
1629880740868,-0.35404399999999997,-0.651968,-0.668804
1629880740877,-0.353007,-0.652883,-0.669353
1629880740887,-0.354288,-0.652395,-0.668011
1629880740897,-0.35441,-0.652334,-0.667767
1629880740906,-0.354898,-0.652944,-0.668011
1629880740916,-0.355447,-0.652822,-0.667828
1629880740925,-0.355752,-0.652273,-0.666791
1629880740935,-0.35685,-0.651907,-0.667706
1629880740945,-0.355386,-0.651785,-0.667706
1629880740954,-0.355996,-0.650504,-0.6679499999999999
1629880740964,-0.355996,-0.65026,-0.667523
1629880740973,-0.355996,-0.649772,-0.667218
1629880740983,-0.355935,-0.649833,-0.668377
1629880740993,-0.355813,-0.650138,-0.6682549999999999
1629880741002,-0.356606,-0.650687,-0.668072
1629880741012,-0.357338,-0.650077,-0.667706
1629880741021,-0.356972,-0.650992,-0.6673399999999999
1629880741031,-0.35709399999999997,-0.651175,-0.668011
1629880741041,-0.356423,-0.652212,-0.666852
1629880741050,-0.357521,-0.651968,-0.667096
1629880741060,-0.357826,-0.652273,-0.665693
1629880741069,-0.357948,-0.652639,-0.665632
1629880741079,-0.357765,-0.651663,-0.665876
1629880741089,-0.358192,-0.652456,-0.6658149999999999
1629880741098,-0.35746,-0.652639,-0.665998
1629880741108,-0.35807,-0.651358,-0.666608
1629880741117,-0.35892399999999997,-0.650626,-0.665937
1629880741127,-0.358253,-0.652212,-0.667096
1629880741137,-0.35831399999999997,-0.652334,-0.6661199999999999
1629880741146,-0.357277,-0.65148,-0.666547
1629880741156,-0.35746,-0.651846,-0.666669
1629880741165,-0.357948,-0.651968,-0.666364
1629880741175,-0.35868,-0.651114,-0.667218
1629880741185,-0.356728,-0.650199,-0.668072
1629880741194,-0.357765,-0.649772,-0.6679499999999999
1629880741204,-0.357826,-0.650504,-0.667584
1629880741213,-0.35685,-0.651663,-0.668438
1629880741223,-0.355935,-0.651602,-0.666791
1629880741233,-0.357277,-0.651358,-0.6645949999999999
1629880741242,-0.35807,-0.651602,-0.663924
1629880741252,-0.357948,-0.650443,-0.663619
1629880741261,-0.358192,-0.648918,-0.663131
1629880741271,-0.35746,-0.650443,-0.6648999999999999
1629880741281,-0.35831399999999997,-0.652151,-0.6661199999999999
1629880741290,-0.358375,-0.652334,-0.665937
1629880741300,-0.35746,-0.653493,-0.667157
1629880741309,-0.356911,-0.654713,-0.668377
1629880741319,-0.358253,-0.655506,-0.668499
1629880741329,-0.359046,-0.655384,-0.667218
1629880741338,-0.359717,-0.653371,-0.664534
1629880741348,-0.359717,-0.652944,-0.6642899999999999
1629880741357,-0.359046,-0.65209,-0.664046
1629880741367,-0.35892399999999997,-0.651968,-0.664778
1629880741377,-0.35800899999999997,-0.652151,-0.666669
1629880741386,-0.357216,-0.650565,-0.666486
1629880741396,-0.356606,-0.65148,-0.666791
1629880741405,-0.356301,-0.650748,-0.667706
1629880741415,-0.357155,-0.649955,-0.667096
1629880741425,-0.357338,-0.649406,-0.665937
1629880741434,-0.357582,-0.648918,-0.664168
1629880741444,-0.35770399999999997,-0.649284,-0.663741
1629880741453,-0.35868,-0.649528,-0.663558
1629880741463,-0.359046,-0.65026,-0.663192
1629880741473,-0.358985,-0.651297,-0.664473
1629880741482,-0.359412,-0.652944,-0.665449
1629880741492,-0.358863,-0.654957,-0.667218
1629880741501,-0.359473,-0.655689,-0.6679499999999999
1629880741511,-0.359656,-0.6563599999999999,-0.665937
1629880741521,-0.360449,-0.655384,-0.665998
1629880741530,-0.360022,-0.655262,-0.665937
1629880741540,-0.359168,-0.654713,-0.6655099999999999
1629880741549,-0.35929,-0.6527,-0.665327
1629880741559,-0.358802,-0.65209,-0.665876
1629880741569,-0.359839,-0.651175,-0.665266
1629880741578,-0.36051,-0.647942,-0.6636799999999999
1629880741588,-0.359168,-0.647149,-0.665266
1629880741597,-0.358436,-0.649345,-0.667157
1629880741607,-0.358131,-0.649711,-0.667889
1629880741617,-0.35861899999999997,-0.649528,-0.666242
1629880741626,-0.359717,-0.650626,-0.665754
1629880741636,-0.359778,-0.651663,-0.6652049999999999
1629880741645,-0.359961,-0.652273,-0.665388
1629880741655,-0.35929,-0.652944,-0.665876
1629880741665,-0.359046,-0.651968,-0.665449
1629880741674,-0.359656,-0.6527,-0.664534
1629880741684,-0.35953399999999996,-0.652822,-0.664839
1629880741693,-0.359107,-0.6527,-0.664961
1629880741703,-0.359168,-0.652334,-0.665022
1629880741713,-0.358558,-0.651724,-0.665449
1629880741722,-0.358863,-0.650931,-0.665266
1629880741732,-0.358802,-0.651846,-0.665571
1629880741741,-0.358497,-0.651419,-0.665327
1629880741751,-0.359656,-0.651053,-0.665693
1629880741761,-0.359168,-0.650199,-0.664534
1629880741770,-0.360083,-0.649833,-0.665083
1629880741780,-0.359839,-0.65087,-0.665144
1629880741789,-0.360266,-0.651358,-0.665632
1629880741799,-0.360876,-0.650931,-0.665022
1629880741809,-0.361425,-0.650138,-0.665998
1629880741818,-0.361425,-0.651175,-0.666669
1629880741828,-0.360632,-0.649406,-0.667706
1629880741837,-0.360815,-0.649284,-0.666547
1629880741847,-0.361303,-0.648674,-0.668011
1629880741857,-0.361547,-0.648552,-0.666547
1629880741866,-0.360937,-0.647759,-0.667096
1629880741876,-0.361547,-0.648979,-0.667279
1629880741885,-0.36173,-0.648125,-0.6664249999999999
1629880741895,-0.360937,-0.647332,-0.666242
1629880741905,-0.361303,-0.648552,-0.6658149999999999
1629880741914,-0.360754,-0.649467,-0.666669
1629880741924,-0.36173,-0.649955,-0.6673399999999999
1629880741933,-0.361547,-0.648918,-0.667218
1629880741943,-0.362157,-0.648613,-0.666974
1629880741953,-0.361425,-0.648735,-0.667828
1629880741962,-0.36112,-0.648979,-0.6676449999999999
1629880741972,-0.361486,-0.648918,-0.668072
1629880741981,-0.360998,-0.647881,-0.668499
1629880741991,-0.360693,-0.648552,-0.669048
1629880742001,-0.361364,-0.648003,-0.6688649999999999
1629880742010,-0.361181,-0.647271,-0.669109
1629880742020,-0.360998,-0.64721,-0.6685599999999999
1629880742029,-0.360327,-0.64782,-0.668804
1629880742039,-0.360327,-0.648064,-0.667828
1629880742049,-0.360022,-0.648003,-0.666608
1629880742058,-0.359839,-0.648308,-0.6670349999999999
1629880742068,-0.359778,-0.649467,-0.667706
1629880742077,-0.359046,-0.649406,-0.6682549999999999
1629880742087,-0.360388,-0.649711,-0.668072
1629880742097,-0.360327,-0.64843,-0.668133
1629880742106,-0.360693,-0.64904,-0.668438
1629880742116,-0.359961,-0.650138,-0.668682
1629880742125,-0.35929,-0.650687,-0.666913
1629880742135,-0.360266,-0.648674,-0.6636799999999999
1629880742145,-0.360998,-0.648552,-0.663863
1629880742154,-0.360205,-0.646356,-0.663802
1629880742164,-0.360144,-0.6454409999999999,-0.663619
1629880742173,-0.359778,-0.6466,-0.666242
1629880742183,-0.360266,-0.649833,-0.667218
1629880742193,-0.360998,-0.649406,-0.668194
1629880742202,-0.360266,-0.650138,-0.6697799999999999
1629880742212,-0.360083,-0.651846,-0.669902
1629880742221,-0.360266,-0.652639,-0.670268
1629880742231,-0.36173,-0.652029,-0.668926
1629880742241,-0.363316,-0.651053,-0.666242
1629880742250,-0.362706,-0.649894,-0.665937
1629880742260,-0.362096,-0.650016,-0.6652049999999999
1629880742269,-0.361486,-0.648613,-0.665388
1629880742279,-0.360998,-0.649528,-0.6661199999999999
1629880742289,-0.360205,-0.649528,-0.667462
1629880742298,-0.360693,-0.648674,-0.668072
1629880742308,-0.36051,-0.649162,-0.668438
1629880742317,-0.360449,-0.648308,-0.666852
1629880742327,-0.360937,-0.64721,-0.665144
1629880742337,-0.361425,-0.647759,-0.663924
1629880742346,-0.362584,-0.647576,-0.663131
1629880742356,-0.362889,-0.648796,-0.663802
1629880742365,-0.362828,-0.651114,-0.6636799999999999
1629880742375,-0.363011,-0.652578,-0.664046
1629880742385,-0.362157,-0.652456,-0.665144
1629880742394,-0.362889,-0.652944,-0.665144
1629880742404,-0.36295,-0.652944,-0.6658149999999999
1629880742413,-0.364048,-0.653188,-0.666791
1629880742423,-0.363743,-0.652761,-0.6658149999999999
1629880742433,-0.363804,-0.6527,-0.665632
1629880742442,-0.363377,-0.650443,-0.665754
1629880742452,-0.363377,-0.648735,-0.664412
1629880742461,-0.364292,-0.647149,-0.665388
1629880742471,-0.36478,-0.6466,-0.665449
1629880742481,-0.364597,-0.643977,-0.663192
1629880742490,-0.363194,-0.643672,-0.665998
1629880742500,-0.363194,-0.646112,-0.667828
1629880742509,-0.362584,-0.646539,-0.6679499999999999
1629880742519,-0.363804,-0.646966,-0.6661199999999999
1629880742529,-0.36417,-0.646844,-0.6648999999999999
1629880742538,-0.36478,-0.648491,-0.665937
1629880742548,-0.36453599999999997,-0.650077,-0.6664249999999999
1629880742557,-0.36423099999999997,-0.650199,-0.667767
1629880742567,-0.365634,-0.650443,-0.667767
1629880742577,-0.365817,-0.650504,-0.666852
1629880742586,-0.365512,-0.650016,-0.668072
1629880742596,-0.365268,-0.649284,-0.667889
1629880742605,-0.365634,-0.648369,-0.668011
1629880742615,-0.36514599999999997,-0.646661,-0.666547
1629880742625,-0.364719,-0.645319,-0.666852
1629880742634,-0.365512,-0.644648,-0.667401
1629880742644,-0.364902,-0.645868,-0.6676449999999999
1629880742653,-0.36478,-0.645807,-0.6679499999999999
1629880742663,-0.365329,-0.645502,-0.667218
1629880742673,-0.36453599999999997,-0.645624,-0.668377
1629880742682,-0.364353,-0.646783,-0.667401
1629880742692,-0.365085,-0.647027,-0.6673399999999999
1629880742701,-0.363987,-0.647881,-0.667401
1629880742711,-0.36423099999999997,-0.648247,-0.667218
1629880742721,-0.364048,-0.648735,-0.665876
1629880742730,-0.36362099999999997,-0.650138,-0.665754
1629880742740,-0.36234,-0.649894,-0.666242
1629880742749,-0.36295,-0.649711,-0.665937
1629880742759,-0.363743,-0.648979,-0.6661199999999999
1629880742769,-0.363377,-0.648308,-0.666059
1629880742778,-0.363438,-0.646661,-0.665998
1629880742788,-0.363438,-0.647515,-0.666242
1629880742797,-0.363133,-0.647027,-0.6664249999999999
1629880742807,-0.363438,-0.64782,-0.665754
1629880742817,-0.363194,-0.648308,-0.665754
1629880742826,-0.36295,-0.648613,-0.666181
1629880742836,-0.362584,-0.649284,-0.6652049999999999
1629880742845,-0.36295,-0.648613,-0.6645949999999999
1629880742855,-0.363072,-0.649162,-0.664778
1629880742865,-0.36295,-0.648857,-0.665449
1629880742874,-0.363682,-0.648552,-0.666364
1629880742884,-0.36478,-0.649528,-0.666547
1629880742893,-0.363804,-0.65026,-0.667828
1629880742903,-0.363133,-0.650199,-0.666913
1629880742913,-0.364292,-0.650077,-0.667157
1629880742922,-0.364048,-0.647698,-0.665876
1629880742932,-0.364292,-0.646234,-0.666669
1629880742941,-0.363194,-0.646478,-0.666486
1629880742951,-0.364414,-0.646478,-0.667706
1629880742961,-0.362523,-0.648857,-0.6682549999999999
1629880742970,-0.361242,-0.649284,-0.668011
1629880742980,-0.363804,-0.644282,-0.667889
1629880742989,-0.365085,-0.642574,-0.669292
1629880742999,-0.361974,-0.643672,-0.6691699999999999
1629880743009,-0.362218,-0.643672,-0.669902
1629880743018,-0.36295,-0.641842,-0.670695
1629880743028,-0.362218,-0.6433059999999999,-0.670024
1629880743037,-0.363011,-0.6430009999999999,-0.6694749999999999
1629880743047,-0.363316,-0.643733,-0.669963
1629880743057,-0.362767,-0.644282,-0.669536
1629880743066,-0.362889,-0.6454409999999999,-0.669719
1629880743076,-0.362096,-0.647637,-0.669841
1629880743085,-0.362401,-0.648064,-0.668743
1629880743095,-0.362218,-0.648003,-0.668377
1629880743105,-0.362096,-0.648064,-0.668072
1629880743114,-0.362401,-0.648857,-0.668682
1629880743124,-0.362401,-0.650504,-0.669414
1629880743133,-0.360876,-0.650992,-0.667523
1629880743143,-0.362279,-0.649101,-0.665083
1629880743153,-0.362401,-0.648186,-0.663802
1629880743162,-0.361242,-0.646844,-0.6633749999999999
1629880743172,-0.362523,-0.645868,-0.663741
1629880743181,-0.36362099999999997,-0.646966,-0.666242
1629880743191,-0.362767,-0.649345,-0.6667299999999999
1629880743201,-0.362035,-0.649711,-0.6685599999999999
1629880743210,-0.362401,-0.65026,-0.669231
1629880743220,-0.362218,-0.651602,-0.671061
1629880743229,-0.362706,-0.650687,-0.670451
1629880743239,-0.362828,-0.64965,-0.668316
1629880743249,-0.364597,-0.647393,-0.6670349999999999
1629880743258,-0.363743,-0.645624,-0.666059
1629880743268,-0.36453599999999997,-0.64477,-0.665754
1629880743277,-0.363804,-0.644038,-0.666059
1629880743287,-0.364109,-0.644343,-0.666913
1629880743297,-0.362157,-0.645258,-0.668316
1629880743306,-0.362218,-0.646112,-0.668682
1629880743316,-0.362035,-0.645868,-0.668133
1629880743325,-0.362218,-0.645075,-0.667706
1629880743335,-0.362462,-0.643672,-0.666852
1629880743345,-0.363377,-0.642574,-0.6655099999999999
1629880743354,-0.365085,-0.642818,-0.6642899999999999
1629880743364,-0.36478,-0.6448309999999999,-0.665083
1629880743373,-0.365268,-0.645929,-0.6652049999999999
1629880743383,-0.365634,-0.647759,-0.666303
1629880743393,-0.36545099999999997,-0.649284,-0.6667299999999999
1629880743402,-0.364597,-0.650138,-0.667157
1629880743412,-0.365939,-0.650382,-0.667828
1629880743421,-0.365512,-0.649772,-0.668926
1629880743431,-0.366427,-0.649528,-0.668377
1629880743441,-0.366793,-0.64843,-0.669353
1629880743450,-0.366244,-0.647515,-0.669414
1629880743460,-0.365085,-0.64599,-0.668133
1629880743469,-0.36539,-0.645319,-0.668011
1629880743479,-0.366,-0.645868,-0.668438
1629880743489,-0.365878,-0.6451359999999999,-0.666547
1629880743498,-0.365634,-0.643062,-0.665571
1629880743508,-0.36417,-0.6454409999999999,-0.6682549999999999
1629880743517,-0.363194,-0.646173,-0.669902
1629880743527,-0.364109,-0.64721,-0.669536
1629880743537,-0.36484099999999997,-0.64721,-0.669353
1629880743546,-0.364597,-0.648186,-0.668499
1629880743556,-0.363865,-0.649406,-0.6685599999999999
1629880743565,-0.364414,-0.648003,-0.668499
1629880743575,-0.36417,-0.647576,-0.667584
1629880743585,-0.363377,-0.647088,-0.666974
1629880743594,-0.363133,-0.648064,-0.667096
1629880743604,-0.36295,-0.647942,-0.668011
1629880743613,-0.361242,-0.648552,-0.669048
1629880743623,-0.36234,-0.648308,-0.668682
1629880743633,-0.363011,-0.647027,-0.667279
1629880743642,-0.363377,-0.646234,-0.6661199999999999
1629880743652,-0.362584,-0.645685,-0.666913
1629880743661,-0.362828,-0.646051,-0.6670349999999999
1629880743671,-0.362645,-0.64538,-0.6673399999999999
1629880743681,-0.362584,-0.644282,-0.667401
1629880743690,-0.362523,-0.645075,-0.668194
1629880743700,-0.363072,-0.6445259999999999,-0.667584
1629880743709,-0.362462,-0.645502,-0.668316
1629880743719,-0.362279,-0.644709,-0.668194
1629880743729,-0.36295,-0.644709,-0.668316
1629880743738,-0.362706,-0.645075,-0.6694749999999999
1629880743748,-0.363072,-0.644648,-0.668682
1629880743757,-0.362584,-0.645075,-0.669048
1629880743767,-0.363438,-0.644038,-0.6700849999999999
1629880743777,-0.363804,-0.6442209999999999,-0.6697799999999999
1629880743786,-0.363255,-0.643733,-0.669719
1629880743796,-0.363499,-0.64416,-0.668804
1629880743805,-0.362584,-0.6445259999999999,-0.669353
1629880743815,-0.363194,-0.645685,-0.6685599999999999
1629880743825,-0.363377,-0.646051,-0.668621
1629880743834,-0.363011,-0.647027,-0.667706
1629880743844,-0.363072,-0.647393,-0.667279
1629880743853,-0.364109,-0.647942,-0.667706
1629880743863,-0.364414,-0.648369,-0.666852
1629880743873,-0.36453599999999997,-0.648186,-0.667584
1629880743882,-0.36417,-0.648308,-0.667767
1629880743892,-0.364109,-0.64721,-0.668072
1629880743901,-0.365512,-0.647393,-0.668926
1629880743911,-0.365695,-0.647332,-0.669414
1629880743921,-0.366,-0.646661,-0.669414
1629880743930,-0.366244,-0.644648,-0.670268
1629880743940,-0.366244,-0.644282,-0.669963
1629880743949,-0.367342,-0.6433059999999999,-0.670817
1629880743959,-0.366915,-0.643733,-0.6691699999999999
1629880743969,-0.36697599999999997,-0.6439159999999999,-0.6697799999999999
1629880743978,-0.367708,-0.643367,-0.670146
1629880743988,-0.367464,-0.642025,-0.671732
1629880743997,-0.365634,-0.6414759999999999,-0.671305
1629880744007,-0.367525,-0.64111,-0.671427
1629880744017,-0.366793,-0.641842,-0.671244
1629880744026,-0.36697599999999997,-0.6408659999999999,-0.67039
1629880744036,-0.36758599999999997,-0.640744,-0.669048
1629880744045,-0.367159,-0.6411709999999999,-0.668316
1629880744055,-0.367098,-0.641964,-0.668621
1629880744065,-0.366488,-0.643062,-0.669963
1629880744074,-0.366549,-0.642208,-0.669231
1629880744084,-0.365024,-0.641964,-0.669048
1629880744093,-0.365634,-0.6414759999999999,-0.669414
1629880744103,-0.365878,-0.642147,-0.670329
1629880744113,-0.365817,-0.64172,-0.670268
1629880744122,-0.36545099999999997,-0.643428,-0.670329
1629880744132,-0.365085,-0.6420859999999999,-0.667096
1629880744141,-0.366732,-0.64172,-0.665754
1629880744151,-0.36575599999999997,-0.640317,-0.664961
1629880744161,-0.365817,-0.63989,-0.664961
1629880744170,-0.36606099999999997,-0.6405609999999999,-0.666852
1629880744180,-0.365939,-0.6448309999999999,-0.669292
1629880744189,-0.366793,-0.647088,-0.669841
1629880744199,-0.36697599999999997,-0.647698,-0.67039
1629880744209,-0.365329,-0.649345,-0.672159
1629880744218,-0.366244,-0.649955,-0.672403
1629880744228,-0.36697599999999997,-0.649223,-0.670756
1629880744237,-0.367708,-0.647576,-0.668804
1629880744247,-0.367159,-0.646295,-0.667889
1629880744257,-0.367037,-0.644953,-0.668133
1629880744266,-0.366244,-0.645014,-0.667828
1629880744276,-0.366122,-0.644404,-0.669353
1629880744285,-0.364353,-0.644099,-0.670878
1629880744295,-0.364414,-0.643672,-0.670024
1629880744305,-0.363133,-0.643855,-0.670817
1629880744314,-0.36362099999999997,-0.64355,-0.670756
1629880744324,-0.363865,-0.643123,-0.668926
1629880744333,-0.364353,-0.64233,-0.666974
1629880744343,-0.364963,-0.642635,-0.665998
1629880744353,-0.36478,-0.643794,-0.666303
1629880744362,-0.365085,-0.645929,-0.665937
1629880744372,-0.364658,-0.647515,-0.666242
1629880744381,-0.36392599999999997,-0.648308,-0.667584
1629880744391,-0.36417,-0.649284,-0.6685599999999999
1629880744401,-0.36392599999999997,-0.648125,-0.668621
1629880744410,-0.36356,-0.648491,-0.668926
1629880744420,-0.365207,-0.647637,-0.6700849999999999
1629880744429,-0.36392599999999997,-0.64599,-0.668133
1629880744439,-0.365268,-0.645319,-0.669963
1629880744449,-0.36453599999999997,-0.643367,-0.669292
1629880744458,-0.364963,-0.642147,-0.668316
1629880744468,-0.364902,-0.642574,-0.669658
1629880744477,-0.365817,-0.641842,-0.6685599999999999
1629880744487,-0.36636599999999997,-0.638487,-0.667279
1629880744497,-0.364109,-0.640744,-0.668377
1629880744506,-0.36417,-0.643733,-0.670939
1629880744516,-0.364658,-0.6451359999999999,-0.672525
1629880744525,-0.364719,-0.647088,-0.67222
1629880744535,-0.36514599999999997,-0.646112,-0.669597
1629880744545,-0.365512,-0.646234,-0.667706
1629880744554,-0.365817,-0.6457459999999999,-0.667584
1629880744564,-0.367159,-0.645258,-0.6676449999999999
1629880744573,-0.366244,-0.645075,-0.6673399999999999
1629880744583,-0.365634,-0.644953,-0.668194
1629880744593,-0.365207,-0.64538,-0.67039
1629880744602,-0.365207,-0.644953,-0.670695
1629880744612,-0.365207,-0.644404,-0.671244
1629880744621,-0.36514599999999997,-0.644465,-0.670634
1629880744631,-0.36606099999999997,-0.643794,-0.668316
1629880744641,-0.36636599999999997,-0.64355,-0.6685599999999999
1629880744650,-0.36667099999999997,-0.643672,-0.668682
1629880744660,-0.366488,-0.643733,-0.668011
1629880744669,-0.366427,-0.644282,-0.668621
1629880744679,-0.365939,-0.644892,-0.669048
1629880744689,-0.365512,-0.64538,-0.668804
1629880744698,-0.365695,-0.6445259999999999,-0.669658
1629880744708,-0.366305,-0.645258,-0.668072
1629880744717,-0.366122,-0.644038,-0.668621
1629880744727,-0.365329,-0.644343,-0.669963
1629880744737,-0.36484099999999997,-0.643794,-0.671
1629880744746,-0.36661,-0.641964,-0.668926
1629880744756,-0.367098,-0.642818,-0.671244
1629880744765,-0.366488,-0.642757,-0.671183
1629880744775,-0.366305,-0.641659,-0.671366
1629880744785,-0.364963,-0.6414759999999999,-0.670939
1629880744794,-0.365085,-0.64172,-0.670268
1629880744804,-0.364414,-0.640805,-0.669292
1629880744813,-0.364658,-0.641598,-0.669353
1629880744823,-0.36417,-0.641232,-0.669109
1629880744833,-0.364658,-0.641964,-0.6679499999999999
1629880744842,-0.36453599999999997,-0.642818,-0.668194
1629880744852,-0.36478,-0.6420859999999999,-0.668377
1629880744861,-0.365329,-0.643184,-0.6697799999999999
1629880744871,-0.364658,-0.642879,-0.669963
1629880744881,-0.365512,-0.643428,-0.670634
1629880744890,-0.36606099999999997,-0.642879,-0.670878
1629880744900,-0.367464,-0.6420859999999999,-0.671122
1629880744909,-0.367098,-0.6436109999999999,-0.672159
1629880744919,-0.36667099999999997,-0.642513,-0.671061
1629880744929,-0.36728099999999997,-0.6408659999999999,-0.672159
1629880744938,-0.367403,-0.642635,-0.673318
1629880744948,-0.367403,-0.641537,-0.672525
1629880744957,-0.366427,-0.640317,-0.67222
1629880744967,-0.36661,-0.6405,-0.673196
1629880744977,-0.366732,-0.641415,-0.673318
1629880744986,-0.368013,-0.6417809999999999,-0.672769
1629880744996,-0.36844,-0.640317,-0.672891
1629880745005,-0.367403,-0.64111,-0.671183
1629880745015,-0.367037,-0.640683,-0.669414
1629880745025,-0.36722,-0.64172,-0.670878
1629880745034,-0.365695,-0.642147,-0.672037
1629880745044,-0.36667099999999997,-0.641842,-0.671427
1629880745053,-0.36661,-0.6405,-0.670512
1629880745063,-0.365512,-0.640988,-0.672525
1629880745073,-0.366,-0.640988,-0.672525
1629880745082,-0.365878,-0.641049,-0.672525
1629880745092,-0.365634,-0.6411709999999999,-0.671549
1629880745101,-0.365634,-0.640439,-0.667401
1629880745111,-0.366854,-0.6393409999999999,-0.666852
1629880745121,-0.365878,-0.637633,-0.668682
1629880745130,-0.366122,-0.637633,-0.669536
1629880745140,-0.366244,-0.637694,-0.6676449999999999
1629880745149,-0.367037,-0.641293,-0.670329
1629880745159,-0.367342,-0.645685,-0.672769
1629880745169,-0.367769,-0.646356,-0.67283
1629880745178,-0.367647,-0.647088,-0.673928
1629880745188,-0.365939,-0.646478,-0.673379
1629880745197,-0.367769,-0.644099,-0.671549
1629880745207,-0.369233,-0.643062,-0.670329
1629880745217,-0.36966,-0.641354,-0.669414
1629880745226,-0.36972099999999997,-0.640622,-0.668499
1629880745236,-0.368989,-0.639829,-0.668316
1629880745245,-0.368074,-0.638914,-0.668682
1629880745255,-0.36728099999999997,-0.639829,-0.668682
1629880745265,-0.368135,-0.640317,-0.669597
1629880745274,-0.36722,-0.641293,-0.670817
1629880745284,-0.368562,-0.641903,-0.670207
1629880745293,-0.368257,-0.642574,-0.6691699999999999
1629880745303,-0.368562,-0.6423909999999999,-0.669109
1629880745313,-0.368318,-0.643367,-0.667462
1629880745322,-0.369294,-0.642025,-0.666486
1629880745332,-0.36966,-0.6426959999999999,-0.666059
1629880745341,-0.369355,-0.643184,-0.6664249999999999
1629880745351,-0.37027,-0.644648,-0.668133
1629880745361,-0.369904,-0.643794,-0.668499
1629880745370,-0.368257,-0.6442209999999999,-0.669292
1629880745380,-0.369233,-0.643428,-0.6691699999999999
1629880745389,-0.369843,-0.645319,-0.668987
1629880745399,-0.370697,-0.6448309999999999,-0.668987
1629880745409,-0.370087,-0.644282,-0.668316
1629880745418,-0.36905,-0.641964,-0.667584
1629880745428,-0.369782,-0.641537,-0.665327
1629880745437,-0.370087,-0.6414759999999999,-0.665632
1629880745447,-0.371734,-0.640927,-0.664839
1629880745457,-0.37155099999999996,-0.640805,-0.667279
1629880745466,-0.369477,-0.642452,-0.670878
1629880745476,-0.36911099999999997,-0.642269,-0.672525
1629880745485,-0.370575,-0.641049,-0.671732
1629880745495,-0.37149,-0.641842,-0.671854
1629880745505,-0.372588,-0.641537,-0.669109
1629880745514,-0.372954,-0.640439,-0.667157
1629880745524,-0.374418,-0.63989,-0.666608
1629880745533,-0.374052,-0.640073,-0.666181
1629880745543,-0.372283,-0.640439,-0.667462
1629880745553,-0.372161,-0.641964,-0.669414
1629880745562,-0.371978,-0.642452,-0.669414
1629880745572,-0.372222,-0.642879,-0.670451
1629880745581,-0.371429,-0.643184,-0.6700849999999999
1629880745591,-0.372039,-0.643245,-0.668621
1629880745601,-0.372893,-0.6430009999999999,-0.667462
1629880745610,-0.37271,-0.643428,-0.666791
1629880745620,-0.372405,-0.642452,-0.666791
1629880745629,-0.371307,-0.6423909999999999,-0.666242
1629880745639,-0.372039,-0.6433059999999999,-0.667462
1629880745649,-0.372283,-0.642635,-0.668377
1629880745658,-0.3721,-0.6426959999999999,-0.668194
1629880745668,-0.372039,-0.641598,-0.669292
1629880745677,-0.37271,-0.64111,-0.670451
1629880745687,-0.371856,-0.640805,-0.669963
1629880745697,-0.371856,-0.640622,-0.6697799999999999
1629880745706,-0.371795,-0.640988,-0.6688649999999999
1629880745716,-0.371734,-0.640012,-0.668621
1629880745725,-0.372344,-0.6402559999999999,-0.668194
1629880745735,-0.371368,-0.63867,-0.668621
1629880745745,-0.371917,-0.6390359999999999,-0.6688649999999999
1629880745754,-0.373503,-0.63989,-0.668438
1629880745764,-0.372832,-0.640195,-0.6688649999999999
1629880745773,-0.372039,-0.641903,-0.668377
