timestamp,ax,ay,az
1630416484037,-0.019642,-0.7573759999999999,-0.658312
1630416484047,-0.020984,-0.756888,-0.657031
1630416484057,-0.021716,-0.7564609999999999,-0.657641
1630416484066,-0.024156,-0.75518,-0.657214
1630416484076,-0.02623,-0.7537159999999999,-0.658068
1630416484085,-0.02867,-0.75091,-0.656543
1630416484095,-0.030378,-0.74847,-0.656726
1630416484105,-0.033062,-0.744688,-0.656604
1630416484114,-0.035929,-0.740479,-0.656848
1630416484124,-0.03904,-0.736453,-0.657763
1630416484133,-0.041479999999999996,-0.732488,-0.6591049999999999
1630416484143,-0.043554,-0.7299869999999999,-0.661179
1630416484153,-0.044835,-0.72956,-0.664412
1630416484162,-0.046726,-0.728096,-0.664107
1630416484172,-0.049593,-0.726327,-0.664839
1630416484181,-0.049654,-0.7269369999999999,-0.6658149999999999
1630416484191,-0.047885,-0.730719,-0.6670349999999999
1630416484201,-0.044712999999999996,-0.734135,-0.667584
1630416484210,-0.041479999999999996,-0.736026,-0.667279
1630416484220,-0.040626,-0.734745,-0.667523
1630416484229,-0.039345,-0.736026,-0.669048
1630416484239,-0.036966,-0.737734,-0.670207
1630416484249,-0.034953,-0.738161,-0.6694749999999999
1630416484258,-0.033245,-0.737368,-0.667767
1630416484268,-0.030195,-0.7381,-0.667401
1630416484277,-0.023729,-0.740235,-0.668743
1630416484287,-0.019581,-0.744566,-0.669353
1630416484297,-0.015189,-0.747677,-0.6688649999999999
1630416484306,-0.010187,-0.748592,-0.668987
1630416484316,-0.005856,-0.748348,-0.669231
1630416484325,-0.0008539999999999999,-0.748043,-0.671366
1630416484335,0.003294,-0.748897,-0.673074
1630415911994,-0.055998,-0.678076,-0.729499
1630415912003,-0.055876,-0.680333,-0.7281569999999999
1630415912013,-0.054168,-0.682346,-0.725717
1630415912023,-0.053496999999999996,-0.682773,-0.723033
1630415912032,-0.052643,-0.683566,-0.723704
1630415912042,-0.051301,-0.682956,-0.723826
1630415912051,-0.050873999999999996,-0.681858,-0.724924
1630415912061,-0.051545,-0.681126,-0.723338
1630415912071,-0.052765,-0.681065,-0.722972
1630415912080,-0.052948,-0.684298,-0.723826
1630415912090,-0.051911,-0.6846639999999999,-0.722606
1630415912099,-0.051667,-0.68503,-0.722972
1630415912109,-0.053375,-0.684542,-0.723216
1630415912119,-0.052704,-0.6846639999999999,-0.723277
1630415912128,-0.053558,-0.684542,-0.723338
1630415912138,-0.0549,-0.683566,-0.721203
1630415912147,-0.054473,-0.6832,-0.720959
1630415912157,-0.054655999999999996,-0.6832,-0.719556
1630415912167,-0.055998,-0.6831389999999999,-0.718275
1630415912176,-0.056424999999999996,-0.683566,-0.719495
1630415912186,-0.056608,-0.685396,-0.722728
1630415912195,-0.056608,-0.685518,-0.72407
1630415912205,-0.057828,-0.6852739999999999,-0.725229
1630415912215,-0.057523,-0.684847,-0.725168
1630415912224,-0.057034999999999995,-0.682407,-0.725351
1630415912234,-0.056974,-0.682102,-0.725107
1630415912243,-0.05734,-0.681553,-0.723338
1630415912253,-0.057157,-0.679723,-0.722789
1630415912263,-0.057401,-0.67954,-0.723399
1630415912272,-0.056486,-0.678686,-0.723338
1630415912282,-0.057462,-0.677832,-0.722606
1630415912291,-0.057583999999999996,-0.676124,-0.721569
1630415912301,-0.056303,-0.676063,-0.721874
1630415912311,-0.055388,-0.67771,-0.721996
1630415912320,-0.055998,-0.67893,-0.722118
1630415912330,-0.056486,-0.679052,-0.722606
1630415912339,-0.056791,-0.681736,-0.723643
1630415912349,-0.056059,-0.6831389999999999,-0.724375
1630415912359,-0.055998,-0.6840539999999999,-0.72407
1630415912368,-0.056364,-0.682712,-0.72285
1630415912378,-0.055998,-0.683566,-0.722545
1630415912387,-0.056547,-0.683078,-0.720776
1630415912397,-0.056119999999999996,-0.683017,-0.720898
1630415912407,-0.055876,-0.684115,-0.721264
1630415912416,-0.055265999999999996,-0.684908,-0.72224
1630415912426,-0.054595,-0.683932,-0.723033
1630415912435,-0.055327,-0.684176,-0.723521
1630415912445,-0.055754,-0.6846639999999999,-0.724985
1630415912455,-0.056059,-0.68381,-0.724253
1630415912464,-0.056242,-0.6828339999999999,-0.723033
1630415912474,-0.055876,-0.681492,-0.722179
1630415912483,-0.055937,-0.680882,-0.720288
1630415912493,-0.057218,-0.6810039999999999,-0.72102
1630415912503,-0.056729999999999996,-0.681431,-0.722423
1630415912512,-0.056791,-0.681065,-0.723155
1630415912522,-0.057523,-0.680455,-0.723155
1630415912531,-0.058743,-0.6806989999999999,-0.723033
1630415912541,-0.059719,-0.680882,-0.721508
1630415912551,-0.061305,-0.681492,-0.720898
1630415912560,-0.061793,-0.681736,-0.720837
1630415912570,-0.062403,-0.6834439999999999,-0.720654
1630415912579,-0.06222,-0.684603,-0.721508
1630415912589,-0.06344,-0.685152,-0.72285
1630415912599,-0.063379,-0.686006,-0.723765
1630415912608,-0.063379,-0.6874089999999999,-0.720471
1630415912618,-0.064355,-0.687531,-0.719922
1630415912627,-0.06466,-0.686616,-0.723582
1630415912637,-0.065148,-0.68625,-0.723338
1630415912647,-0.066917,-0.68503,-0.719434
1630415912656,-0.067954,-0.6834439999999999,-0.719434
1630415912666,-0.068198,-0.682468,-0.722179
1630415912675,-0.067161,-0.682102,-0.726449
1630415912685,-0.06709999999999999,-0.680333,-0.72712
1630415912695,-0.067039,-0.6803939999999999,-0.7259
1630415912704,-0.067588,-0.681675,-0.725351
1630415912714,-0.067283,-0.6816139999999999,-0.722484
1630415912723,-0.06770999999999999,-0.681797,-0.720715
1630415912733,-0.067161,-0.682895,-0.719556
1630415912743,-0.067161,-0.683322,-0.720715
1630415912752,-0.064965,-0.682346,-0.723033
1630415912762,-0.06405,-0.682407,-0.72346
1630415912771,-0.062952,-0.680882,-0.721935
1630415912781,-0.064111,-0.6819189999999999,-0.720959
1630415912791,-0.064416,-0.6816139999999999,-0.719556
1630415912800,-0.063928,-0.6828339999999999,-0.719495
1630415912810,-0.064111,-0.68259,-0.720715
1630415912819,-0.064599,-0.682285,-0.721142
1630415912829,-0.065026,-0.682956,-0.720593
1630415912839,-0.06527,-0.682041,-0.72163
1630415912848,-0.065575,-0.6822239999999999,-0.721691
1630415912858,-0.065453,-0.681492,-0.722484
1630415912867,-0.065453,-0.682895,-0.722118
1630415912877,-0.066795,-0.682163,-0.720959
1630415912887,-0.06709999999999999,-0.680516,-0.721508
1630415912896,-0.06709999999999999,-0.68015,-0.722667
1630415912906,-0.066551,-0.6806989999999999,-0.722545
1630415912915,-0.066917,-0.679906,-0.721508
1630415912925,-0.067222,-0.679418,-0.720288
1630415912935,-0.06649,-0.678198,-0.721996
1630415912944,-0.066856,-0.678198,-0.721996
1630415912954,-0.068198,-0.676734,-0.721203
1630415912963,-0.068381,-0.675331,-0.720166
1630415912973,-0.069479,-0.674477,-0.720166
1630415912983,-0.068808,-0.673501,-0.719556
1630415912992,-0.070577,-0.674965,-0.720471
1630415913002,-0.070455,-0.677222,-0.72102
1630415913011,-0.068198,-0.679662,-0.720654
1630415913021,-0.06770999999999999,-0.68259,-0.720288
1630415913031,-0.067466,-0.684542,-0.7198
1630415913040,-0.066917,-0.687043,-0.720105
1630415913050,-0.067161,-0.68869,-0.720837
1630415913059,-0.067771,-0.6893,-0.719251
1630415913069,-0.068625,-0.690398,-0.718031
1630415913079,-0.068381,-0.69235,-0.7166279999999999
1630415913088,-0.06954,-0.692655,-0.7166279999999999
1630415913098,-0.068747,-0.69296,-0.716384
1630415913107,-0.070455,-0.6944239999999999,-0.715042
1630415913117,-0.069784,-0.696742,-0.716201
1630415913127,-0.069296,-0.698267,-0.717909
1630415913136,-0.070577,-0.698511,-0.718275
1630415913146,-0.071004,-0.69723,-0.71858
1630415913155,-0.070272,-0.696742,-0.71858
1630415913165,-0.070882,-0.6954,-0.718336
1630415913175,-0.071187,-0.693448,-0.716567
1630415913184,-0.07155299999999999,-0.691008,-0.716994
1630415913194,-0.071858,-0.6886289999999999,-0.717726
1630415913203,-0.071492,-0.688507,-0.717787
1630415913213,-0.072102,-0.686433,-0.7169329999999999
1630415913223,-0.071797,-0.685518,-0.717055
1630415913232,-0.072224,-0.685457,-0.7184579999999999
1630415913242,-0.071736,-0.685335,-0.719312
1630415913251,-0.070882,-0.6843589999999999,-0.720288
1630415913261,-0.07155299999999999,-0.68442,-0.720837
1630415913271,-0.070821,-0.683322,-0.72163
1630415913280,-0.069174,-0.682102,-0.721813
1630415913290,-0.069967,-0.6810039999999999,-0.720898
1630415913299,-0.070455,-0.680943,-0.720044
1630415913309,-0.070211,-0.679845,-0.720227
1630415913319,-0.069235,-0.6791739999999999,-0.720532
1630415913328,-0.069967,-0.678625,-0.71858
1630415913338,-0.07063799999999999,-0.678808,-0.7178479999999999
1630415913347,-0.07137,-0.67893,-0.720654
1630415913357,-0.071065,-0.67954,-0.720349
1630415913367,-0.072834,-0.678869,-0.7190679999999999
1630415913376,-0.074542,-0.678503,-0.722667
1630415913386,-0.072834,-0.67893,-0.725351
1630415913395,-0.072651,-0.678259,-0.728523
1630415913405,-0.072346,-0.677893,-0.7287669999999999
1630415913415,-0.073322,-0.678137,-0.72834
1630415913424,-0.073627,-0.67771,-0.726754
1630415913434,-0.073932,-0.678076,-0.72529
1630415913443,-0.07387099999999999,-0.677466,-0.724009
1630415913453,-0.071919,-0.677344,-0.722484
1630415913463,-0.07076,-0.6771,-0.722911
1630415913472,-0.069662,-0.676856,-0.723338
1630415913482,-0.069174,-0.67588,-0.724192
1630415913491,-0.068625,-0.67527,-0.72529
1630415913501,-0.068137,-0.67527,-0.723765
1630415913511,-0.068442,-0.675941,-0.723582
1630415913520,-0.067832,-0.678076,-0.723887
1630415913530,-0.06709999999999999,-0.680211,-0.725412
1630415913539,-0.067954,-0.683017,-0.725778
1630415913549,-0.066856,-0.684298,-0.7259
1630415913559,-0.067649,-0.685518,-0.725351
1630415913568,-0.067588,-0.68625,-0.725229
1630415913578,-0.066978,-0.686006,-0.726144
1630415913587,-0.066307,-0.684847,-0.726693
1630415913597,-0.066734,-0.683932,-0.723948
1630415913607,-0.068076,-0.681431,-0.72407
1630415913616,-0.068076,-0.679418,-0.724985
1630415913626,-0.06770999999999999,-0.6800889999999999,-0.725168
1630415913635,-0.067588,-0.678991,-0.724802
1630415913645,-0.069418,-0.677832,-0.723948
1630415913655,-0.069235,-0.676795,-0.725168
1630415913664,-0.068381,-0.675819,-0.726632
1630415913674,-0.06893,-0.674538,-0.725839
1630415913683,-0.069479,-0.673867,-0.726205
1630415913693,-0.070882,-0.673196,-0.727059
1630415913703,-0.069723,-0.67344,-0.728096
1630415913712,-0.070211,-0.673196,-0.728218
1630415913722,-0.069845,-0.672037,-0.730048
1630415913731,-0.069601,-0.672098,-0.7290719999999999
1630415913741,-0.069784,-0.671671,-0.72834
1630415913751,-0.069784,-0.6700849999999999,-0.727669
1630415913760,-0.07015,-0.669963,-0.727303
1630415913770,-0.069601,-0.670695,-0.727486
1630415913779,-0.069906,-0.671488,-0.727669
1630415913789,-0.069967,-0.671915,-0.72773
1630415913799,-0.070089,-0.673074,-0.72773
1630415913808,-0.069296,-0.674965,-0.726998
1630415913818,-0.069662,-0.676673,-0.726876
1630415913827,-0.06954,-0.678076,-0.726815
1630415913837,-0.069235,-0.679296,-0.725839
1630415913847,-0.068747,-0.68015,-0.725656
1630415913856,-0.069174,-0.67954,-0.7272419999999999
1630415913866,-0.069723,-0.679601,-0.727669
1630415913875,-0.07015,-0.678747,-0.727059
1630415913885,-0.069723,-0.677588,-0.728706
1630415913895,-0.07015,-0.676856,-0.7290719999999999
1630415913904,-0.070272,-0.675514,-0.7287669999999999
1630415913914,-0.071187,-0.67466,-0.7287669999999999
1630415913923,-0.070211,-0.673135,-0.7278519999999999
1630415913933,-0.071065,-0.672586,-0.728523
1630415913943,-0.071614,-0.671427,-0.728401
1630415913952,-0.07015,-0.671549,-0.728218
1630415913962,-0.069906,-0.671488,-0.729926
1630415913971,-0.068991,-0.67161,-0.729743
1630415913981,-0.069357,-0.671732,-0.729438
1630415913991,-0.068991,-0.672769,-0.729194
1630415914000,-0.068869,-0.672708,-0.728645
1630415914010,-0.068381,-0.672525,-0.727974
1630415914019,-0.068442,-0.672281,-0.726754
1630415914029,-0.069052,-0.671366,-0.726815
1630415914039,-0.069174,-0.672769,-0.72712
1630415914048,-0.068381,-0.671854,-0.72651
1630415914058,-0.068503,-0.673989,-0.726876
1630415914067,-0.068808,-0.674477,-0.727364
1630415914077,-0.069357,-0.675636,-0.727364
1630415914087,-0.06954,-0.675331,-0.725656
1630415914096,-0.070272,-0.67527,-0.725595
1630415914106,-0.07076,-0.675392,-0.727486
1630415914115,-0.069784,-0.677161,-0.730658
1630415914125,-0.068625,-0.679235,-0.731085
1630415914135,-0.069235,-0.679967,-0.730536
1630415914144,-0.069723,-0.677771,-0.730231
1630415914154,-0.070516,-0.676917,-0.728706
1630415914163,-0.070577,-0.67588,-0.729438
1630415914173,-0.069174,-0.676368,-0.727669
1630415914183,-0.067954,-0.675514,-0.727913
1630415914192,-0.067649,-0.675026,-0.7278519999999999
1630415914202,-0.066551,-0.675148,-0.728584
1630415914211,-0.065331,-0.675575,-0.728218
1630415914221,-0.065148,-0.675209,-0.727608
1630415914231,-0.06478199999999999,-0.674538,-0.724436
1630415914240,-0.064721,-0.676246,-0.72285
1630415914250,-0.063562,-0.677588,-0.723033
1630415914259,-0.06417199999999999,-0.679418,-0.724741
1630415914269,-0.062647,-0.6813089999999999,-0.724131
1630415914279,-0.063196,-0.682468,-0.724802
1630415914288,-0.063928,-0.683017,-0.723216
1630415914298,-0.063562,-0.682651,-0.723216
1630415914307,-0.064294,-0.683627,-0.723765
1630415914317,-0.064294,-0.684298,-0.723826
1630415914327,-0.064416,-0.683566,-0.72285
1630415914336,-0.065636,-0.680821,-0.722972
1630415914346,-0.064965,-0.678564,-0.724009
1630415914355,-0.066429,-0.676795,-0.724131
1630415914365,-0.067466,-0.675819,-0.723094
1630415914375,-0.067222,-0.673745,-0.724192
1630415914384,-0.068076,-0.674538,-0.727791
1630415914394,-0.067466,-0.676612,-0.729743
1630415914403,-0.067283,-0.676246,-0.730475
1630415914413,-0.066978,-0.676307,-0.728401
1630415914423,-0.067832,-0.675636,-0.727303
1630415914432,-0.067771,-0.675026,-0.726144
1630415914442,-0.067222,-0.676185,-0.725656
1630415914451,-0.066246,-0.675453,-0.724314
1630415914461,-0.065453,-0.674904,-0.723887
1630415914471,-0.065819,-0.675087,-0.723399
1630415914480,-0.066002,-0.675209,-0.725107
1630415914490,-0.065636,-0.676368,-0.7259
1630415914499,-0.066734,-0.677893,-0.726083
1630415914509,-0.067588,-0.678564,-0.7269369999999999
1630415914519,-0.066673,-0.679601,-0.726266
1630415914528,-0.06740499999999999,-0.6803939999999999,-0.725534
1630415914538,-0.06770999999999999,-0.682102,-0.724436
1630415914547,-0.067283,-0.68198,-0.724253
1630415914557,-0.067161,-0.681248,-0.725656
1630415914567,-0.068198,-0.680272,-0.726327
1630415914576,-0.068991,-0.679052,-0.72468
1630415914586,-0.069906,-0.677344,-0.726022
1630415914595,-0.071187,-0.675758,-0.725778
1630415914605,-0.07137,-0.676612,-0.725656
1630415914615,-0.07124799999999999,-0.676429,-0.7272419999999999
1630415914624,-0.071126,-0.675758,-0.72834
1630415914634,-0.071919,-0.67649,-0.728706
1630415914643,-0.072224,-0.676612,-0.7284619999999999
1630415914653,-0.071492,-0.676002,-0.7272419999999999
1630415914663,-0.071492,-0.675148,-0.72773
1630415914672,-0.072285,-0.675148,-0.726632
1630415914682,-0.07076,-0.675026,-0.725778
1630415914691,-0.07137,-0.67405,-0.726205
1630415914701,-0.071919,-0.674111,-0.7281569999999999
1630415914711,-0.070821,-0.673989,-0.7275469999999999
1630415914720,-0.071065,-0.674599,-0.72895
1630415914730,-0.071004,-0.675575,-0.72773
1630415914739,-0.070699,-0.676185,-0.727608
1630415914749,-0.06954,-0.676978,-0.725778
1630415914759,-0.069418,-0.678625,-0.723521
1630415914768,-0.068686,-0.678808,-0.723887
1630415914778,-0.068442,-0.6800889999999999,-0.7259
1630415914787,-0.067161,-0.6810039999999999,-0.726449
1630415914797,-0.067466,-0.6813089999999999,-0.724009
1630415914807,-0.068076,-0.6810039999999999,-0.725473
1630415914816,-0.068198,-0.680272,-0.7278519999999999
1630415914826,-0.06801499999999999,-0.680943,-0.728706
1630415914835,-0.066978,-0.679235,-0.726022
1630415914845,-0.068198,-0.678076,-0.728279
1630415914855,-0.066368,-0.677039,-0.73261
1630415914864,-0.064111,-0.677466,-0.735416
1630415914874,-0.062037,-0.677405,-0.734745
1630415914883,-0.060756,-0.675148,-0.730719
1630415914893,-0.060878,-0.67344,-0.728889
1630415914903,-0.062708,-0.673318,-0.726632
1630415914912,-0.063074,-0.671427,-0.726083
1630415914922,-0.062280999999999996,-0.668499,-0.7287669999999999
1630415914931,-0.061121999999999996,-0.666974,-0.7333419999999999
1630415914941,-0.060451,-0.667157,-0.73505
1630415914951,-0.06039,-0.668743,-0.7357819999999999
1630415914960,-0.06161,-0.668621,-0.734806
1630415914970,-0.063196,-0.666913,-0.732244
1630415914979,-0.061915,-0.668682,-0.731146
1630415914989,-0.061854,-0.670146,-0.73017
1630415914999,-0.063257,-0.669353,-0.725839
1630415915008,-0.066002,-0.6685599999999999,-0.721447
1630415915018,-0.070516,-0.667828,-0.7190679999999999
1630415915027,-0.074115,-0.667584,-0.719312
1630415915037,-0.077836,-0.666913,-0.723765
1630415915047,-0.08003199999999999,-0.6688649999999999,-0.724253
1630415915056,-0.080703,-0.669658,-0.72407
1630415915066,-0.082472,-0.670329,-0.723155
1630415915075,-0.081557,-0.670817,-0.723399
1630415915085,-0.081008,-0.671061,-0.726876
1630415915095,-0.080886,-0.67222,-0.728096
1630415915104,-0.081618,-0.673867,-0.725961
1630415915114,-0.084302,-0.675026,-0.72285
1630415915123,-0.087413,-0.676612,-0.720044
1630415915133,-0.088023,-0.67893,-0.719495
1630415915143,-0.086132,-0.683017,-0.720044
1630415915152,-0.082594,-0.6871039999999999,-0.722728
1630415915162,-0.07911699999999999,-0.6889339999999999,-0.722423
1630415915171,-0.07911699999999999,-0.689483,-0.7190679999999999
1630415915181,-0.08064199999999999,-0.688202,-0.716506
1630415915191,-0.08052,-0.688202,-0.712602
1630415915200,-0.081374,-0.689361,-0.708759
1630415915210,-0.081008,-0.690947,-0.7044279999999999
1630415915219,-0.082106,-0.694302,-0.699853
1630415915229,-0.081069,-0.696742,-0.699975
1630415915239,-0.078629,-0.701134,-0.70394
1630415915248,-0.077592,-0.705099,-0.708271
1630415915258,-0.077653,-0.7068679999999999,-0.710955
1630415915267,-0.077592,-0.7083929999999999,-0.711504
1630415915277,-0.077592,-0.709064,-0.709247
1630415915287,-0.077592,-0.710406,-0.7086979999999999
1630415915296,-0.076372,-0.712724,-0.70882
1630415915306,-0.073688,-0.712785,-0.708332
1630415915315,-0.07417599999999999,-0.710772,-0.707722
1630415915325,-0.074725,-0.707966,-0.707295
1630415915335,-0.07503,-0.7038179999999999,-0.7080879999999999
1630415915344,-0.076738,-0.700646,-0.709979
1630415915354,-0.08003199999999999,-0.696986,-0.712602
1630415915363,-0.083021,-0.695156,-0.713822
1630415915373,-0.084241,-0.692411,-0.71431
1630415915383,-0.083753,-0.692045,-0.716994
1630415915392,-0.082594,-0.690947,-0.719312
1630415915402,-0.080947,-0.69052,-0.720044
1630415915411,-0.08003199999999999,-0.688812,-0.720227
1630415915421,-0.080703,-0.686372,-0.720227
1630415915431,-0.079971,-0.68442,-0.719983
1630415915440,-0.079971,-0.682041,-0.718397
1630415915450,-0.080947,-0.6806989999999999,-0.7187629999999999
1630415915459,-0.081618,-0.680028,-0.718275
1630415915469,-0.081008,-0.680943,-0.716689
1630415915479,-0.08064199999999999,-0.682041,-0.7169329999999999
1630415915488,-0.08113,-0.6825289999999999,-0.717116
1630415915498,-0.082228,-0.683688,-0.717482
1630415915507,-0.086071,-0.6819189999999999,-0.716689
1630415915517,-0.088999,-0.681736,-0.717116
1630415915527,-0.091012,-0.6803939999999999,-0.7172379999999999
1630415915536,-0.093879,-0.680821,-0.71614
1630415915546,-0.09558699999999999,-0.681736,-0.718275
1630415915555,-0.097356,-0.682163,-0.720837
1630415915565,-0.097478,-0.682407,-0.725412
1630415915575,-0.097844,-0.682468,-0.726266
1630415915584,-0.099064,-0.6800889999999999,-0.728706
1630415915594,-0.098881,-0.676612,-0.7339519999999999
1630415915603,-0.097051,-0.674538,-0.737856
1630415915613,-0.096319,-0.672037,-0.737246
1630415915623,-0.09698999999999999,-0.668804,-0.73383
1630415915632,-0.097051,-0.665571,-0.730048
1630415915642,-0.095953,-0.664412,-0.726571
1630415915651,-0.094855,-0.664412,-0.723582
1630415915661,-0.091988,-0.664168,-0.722301
1630415915671,-0.090097,-0.663863,-0.724192
1630415915680,-0.086864,-0.663619,-0.725534
1630415915690,-0.084668,-0.661667,-0.727486
1630415915699,-0.081923,-0.660264,-0.727181
1630415915709,-0.081557,-0.658983,-0.725595
1630415915719,-0.080215,-0.6581899999999999,-0.72224
1630415915728,-0.080276,-0.660264,-0.721691
1630415915738,-0.08003199999999999,-0.663619,-0.720593
1630415915747,-0.080947,-0.667401,-0.71858
1630415915757,-0.080947,-0.672159,-0.716689
1630415915767,-0.080459,-0.677405,-0.714859
1630415915776,-0.081313,-0.6832,-0.714676
1630415915786,-0.082106,-0.6864939999999999,-0.714981
1630415915795,-0.083326,-0.690093,-0.716262
1630415915805,-0.084363,-0.69357,-0.717421
1630415915815,-0.085095,-0.694302,-0.715042
1630415915824,-0.086315,-0.695949,-0.715774
1630415915834,-0.086742,-0.697413,-0.7178479999999999
1630415915843,-0.086986,-0.699243,-0.718031
1630415915853,-0.086132,-0.700036,-0.7166279999999999
1630415915863,-0.08619299999999999,-0.698328,-0.71553
1630415915872,-0.086681,-0.696681,-0.714615
1630415915882,-0.088023,-0.695095,-0.714432
1630415915891,-0.088389,-0.693692,-0.712785
1630415915901,-0.088328,-0.690276,-0.710955
1630415915911,-0.088633,-0.68808,-0.712602
1630415915920,-0.087474,-0.685945,-0.712846
1630415915930,-0.087047,-0.683566,-0.713761
1630415915939,-0.085827,-0.68259,-0.713822
1630415915949,-0.086071,-0.683322,-0.714676
1630415915959,-0.084058,-0.686433,-0.716506
1630415915968,-0.080886,-0.6895439999999999,-0.717604
1630415915978,-0.079605,-0.692655,-0.716872
1630415915987,-0.078873,-0.693936,-0.7163229999999999
1630415915997,-0.076128,-0.695522,-0.715164
1630415916007,-0.074725,-0.695888,-0.714127
1630415916016,-0.07356599999999999,-0.696254,-0.7129679999999999
1630415916026,-0.072102,-0.696132,-0.7129679999999999
1630415916035,-0.071431,-0.695339,-0.713212
1630415916045,-0.069784,-0.694485,-0.711992
1630415916055,-0.068808,-0.693875,-0.711199
1630415916064,-0.067771,-0.694485,-0.71248
1630415916074,-0.066368,-0.695827,-0.713029
1630415916083,-0.065026,-0.695949,-0.711687
1630415916093,-0.064904,-0.69601,-0.711626
1630415916103,-0.06417199999999999,-0.695339,-0.71065
1630415916112,-0.063623,-0.695095,-0.7099179999999999
1630415916122,-0.063623,-0.693387,-0.710589
1630415916131,-0.063074,-0.691801,-0.710772
1630415916141,-0.064355,-0.690337,-0.711992
1630415916151,-0.066002,-0.6886289999999999,-0.71248
1630415916160,-0.066246,-0.6877139999999999,-0.7117479999999999
1630415916170,-0.067466,-0.685518,-0.712846
1630415916179,-0.06893,-0.6855789999999999,-0.714554
1630415916189,-0.070089,-0.6849689999999999,-0.715286
1630415916199,-0.072956,-0.683871,-0.715286
1630415916208,-0.074847,-0.683017,-0.714066
1630415916218,-0.074908,-0.68381,-0.715286
1630415916227,-0.074664,-0.685213,-0.7169329999999999
1630415916237,-0.074786,-0.68686,-0.71736
1630415916247,-0.075762,-0.6874089999999999,-0.718641
1630415916256,-0.075701,-0.687043,-0.719251
1630415916266,-0.07503,-0.686128,-0.7160179999999999
1630415916275,-0.076372,-0.686372,-0.714981
1630415916285,-0.077592,-0.685457,-0.718641
1630415916295,-0.077775,-0.68503,-0.719617
1630415916304,-0.078202,-0.685396,-0.716262
1630415916314,-0.080825,-0.68442,-0.713822
1630415916323,-0.07991,-0.683566,-0.7160179999999999
1630415916333,-0.07942199999999999,-0.6843589999999999,-0.7190679999999999
1630415916343,-0.07911699999999999,-0.685152,-0.722179
1630415916352,-0.078141,-0.684725,-0.722911
1630415916362,-0.078629,-0.685701,-0.722728
1630415916371,-0.07942199999999999,-0.688446,-0.720959
1630415916381,-0.077775,-0.691008,-0.7181529999999999
1630415916391,-0.07649399999999999,-0.692411,-0.7151029999999999
1630415916400,-0.074542,-0.693387,-0.715469
1630415916410,-0.073017,-0.6938139999999999,-0.715042
1630415916419,-0.071187,-0.692838,-0.714981
1630415916429,-0.071004,-0.691252,-0.7147979999999999
1630415916439,-0.071675,-0.690642,-0.714859
1630415916448,-0.07076,-0.690093,-0.7135779999999999
1630415916458,-0.071736,-0.690032,-0.711077
1630415916467,-0.071004,-0.689483,-0.711321
1630415916477,-0.07124799999999999,-0.689422,-0.710955
1630415916487,-0.070394,-0.690276,-0.711504
1630415916496,-0.071492,-0.691557,-0.713029
1630415916506,-0.072529,-0.6919839999999999,-0.713761
1630415916515,-0.074237,-0.691618,-0.714554
1630415916525,-0.075945,-0.690642,-0.7157129999999999
1630415916535,-0.07710399999999999,-0.689666,-0.7181529999999999
1630415916544,-0.078202,-0.690398,-0.716994
1630415916554,-0.07942199999999999,-0.687958,-0.7169329999999999
1630415916563,-0.079849,-0.686616,-0.718214
1630415916573,-0.078202,-0.687531,-0.718702
1630415916583,-0.078629,-0.68564,-0.7181529999999999
1630415916592,-0.07869,-0.685091,-0.718092
1630415916602,-0.077897,-0.68381,-0.718641
1630415916611,-0.07710399999999999,-0.6822239999999999,-0.717604
1630415916621,-0.077043,-0.682346,-0.715652
1630415916631,-0.075579,-0.682956,-0.712541
1630415916640,-0.075762,-0.682956,-0.710162
1630415916650,-0.074786,-0.682712,-0.709735
1630415916659,-0.075396,-0.68442,-0.710467
1630415916669,-0.075884,-0.686433,-0.712236
1630415916679,-0.075579,-0.690032,-0.713029
1630415916688,-0.074786,-0.6928989999999999,-0.7132729999999999
1630415916698,-0.075579,-0.695461,-0.7141879999999999
1630415916707,-0.075945,-0.697108,-0.712724
1630415916717,-0.077714,-0.69601,-0.710589
1630415916727,-0.079239,-0.696132,-0.709186
1630415916736,-0.079849,-0.695766,-0.710162
1630415916746,-0.079605,-0.69662,-0.711382
1630415916755,-0.079544,-0.697047,-0.712175
1630415916765,-0.078629,-0.695278,-0.712419
1630415916775,-0.07747,-0.695522,-0.7123579999999999
1630415916784,-0.075396,-0.694729,-0.711382
1630415916794,-0.074786,-0.693387,-0.7096129999999999
1630415916803,-0.075091,-0.692228,-0.707417
1630415916813,-0.076433,-0.6910689999999999,-0.704184
1630415916823,-0.080276,-0.6892389999999999,-0.703147
1630415916832,-0.081801,-0.689788,-0.706746
1630415916842,-0.08113,-0.693082,-0.711931
1630415916851,-0.081008,-0.696193,-0.716079
1630415916861,-0.080215,-0.698084,-0.718092
1630415916871,-0.077836,-0.69784,-0.71736
1630415916880,-0.076982,-0.697779,-0.7178479999999999
1630415916890,-0.07448099999999999,-0.698206,-0.715896
1630415916899,-0.073383,-0.696132,-0.714371
1630415916909,-0.073505,-0.693631,-0.7137
1630415916919,-0.074664,-0.6913739999999999,-0.715164
1630415916928,-0.074664,-0.689483,-0.716384
1630415916938,-0.077165,-0.686372,-0.718946
1630415916947,-0.07649399999999999,-0.685457,-0.72102
1630415916957,-0.075762,-0.68625,-0.722545
1630415916967,-0.075152,-0.685396,-0.720837
1630415916976,-0.074664,-0.6852739999999999,-0.720532
1630415916986,-0.07679899999999999,-0.683383,-0.721142
1630415916995,-0.078202,-0.68076,-0.720837
1630415917005,-0.080093,-0.676551,-0.721996
1630415917015,-0.083814,-0.674111,-0.72285
1630415917024,-0.083631,-0.671976,-0.723765
1630415917034,-0.083509,-0.670207,-0.722362
1630415917043,-0.08234999999999999,-0.668804,-0.723094
1630415917053,-0.082594,-0.668499,-0.723338
1630415917063,-0.081191,-0.668743,-0.726083
1630415917072,-0.081008,-0.6694749999999999,-0.726815
1630415917082,-0.08064199999999999,-0.668804,-0.726876
1630415917091,-0.08052,-0.666486,-0.724558
1630415917101,-0.081435,-0.664717,-0.723338
1630415917111,-0.08356999999999999,-0.664778,-0.722484
1630415917120,-0.083204,-0.666974,-0.721569
1630415917130,-0.083204,-0.669048,-0.720837
1630415917139,-0.083204,-0.670512,-0.720532
1630415917149,-0.082411,-0.673745,-0.720776
1630415917159,-0.082289,-0.676307,-0.721386
1630415917168,-0.082106,-0.677344,-0.719495
1630415917178,-0.082472,-0.680943,-0.719434
1630415917187,-0.081313,-0.683932,-0.7181529999999999
1630415917197,-0.080459,-0.6867989999999999,-0.717482
1630415917207,-0.079178,-0.689361,-0.716994
1630415917216,-0.077958,-0.691435,-0.71553
1630415917226,-0.077043,-0.692045,-0.715225
1630415917235,-0.07649399999999999,-0.692167,-0.714554
1630415917245,-0.076555,-0.692716,-0.714676
1630415917255,-0.075945,-0.6932039999999999,-0.71431
1630415917264,-0.074908,-0.692716,-0.715835
1630415917274,-0.073993,-0.693692,-0.7163229999999999
1630415917283,-0.072712,-0.692838,-0.713456
1630415917293,-0.072712,-0.6904589999999999,-0.711992
1630415917303,-0.073444,-0.691801,-0.711016
1630415917312,-0.071736,-0.6932039999999999,-0.71126
1630415917322,-0.07124799999999999,-0.694058,-0.710284
1630415917331,-0.07094299999999999,-0.694485,-0.71187
1630415917341,-0.072224,-0.695339,-0.7132729999999999
1630415917351,-0.07015,-0.695156,-0.714432
1630415917360,-0.070394,-0.694668,-0.7141879999999999
1630415917370,-0.071126,-0.695034,-0.713639
1630415917379,-0.07076,-0.6954,-0.71187
1630415917389,-0.071126,-0.69601,-0.712602
1630415917399,-0.07063799999999999,-0.695339,-0.712907
1630415917408,-0.070577,-0.694973,-0.71248
1630415917418,-0.071004,-0.692838,-0.711809
1630415917427,-0.07063799999999999,-0.69296,-0.71248
1630415917437,-0.072041,-0.693631,-0.7135779999999999
1630415917447,-0.072346,-0.692716,-0.7141879999999999
1630415917456,-0.072163,-0.691618,-0.7154079999999999
1630415917466,-0.072895,-0.691191,-0.715347
1630415917475,-0.075213,-0.689483,-0.718946
1630415917485,-0.076128,-0.689117,-0.721142
1630415917495,-0.07747,-0.687775,-0.720776
1630415917504,-0.078873,-0.686433,-0.720105
1630415917514,-0.078263,-0.686006,-0.721264
1630415917523,-0.077775,-0.685457,-0.720837
1630415917533,-0.077043,-0.6849689999999999,-0.720288
1630415917543,-0.07686,-0.684481,-0.720532
1630415917552,-0.077043,-0.682102,-0.720898
1630415917562,-0.077897,-0.68076,-0.720898
1630415917571,-0.0793,-0.6797839999999999,-0.720959
1630415917581,-0.079849,-0.677832,-0.719922
1630415917591,-0.081191,-0.676063,-0.720776
1630415917600,-0.08064199999999999,-0.676246,-0.723887
1630415917610,-0.079971,-0.676978,-0.7278519999999999
1630415917619,-0.080459,-0.678503,-0.729316
1630415917629,-0.079483,-0.679052,-0.72773
1630415917639,-0.07972699999999999,-0.677222,-0.726632
1630415917648,-0.082289,-0.673318,-0.728706
1630415917658,-0.084363,-0.672525,-0.729621
1630415917667,-0.084485,-0.672586,-0.731268
1630415917677,-0.08356999999999999,-0.674904,-0.7339519999999999
1630415917687,-0.082472,-0.676551,-0.7299869999999999
1630415917696,-0.08033699999999999,-0.676612,-0.730963
1630415917706,-0.078263,-0.676185,-0.734013
1630415917715,-0.074786,-0.673196,-0.736453
1630415917725,-0.073322,-0.669597,-0.737673
1630415917735,-0.07124799999999999,-0.667462,-0.737795
1630415917744,-0.069906,-0.666242,-0.736026
1630415917754,-0.071431,-0.662399,-0.735904
1630415917763,-0.067954,-0.6645949999999999,-0.729255
1630415917773,-0.069296,-0.6606299999999999,-0.726449
1630415917783,-0.071187,-0.6591049999999999,-0.719434
1630415917792,-0.07094299999999999,-0.656909,-0.71553
1630415917802,-0.07124799999999999,-0.658068,-0.71553
1630415917811,-0.06954,-0.662277,-0.718519
1630415917821,-0.066002,-0.6664249999999999,-0.721752
1630415917831,-0.063684,-0.669292,-0.723399
1630415917840,-0.063806,-0.671488,-0.72285
1630415917850,-0.06466,-0.673928,-0.721264
1630415917859,-0.066795,-0.677283,-0.72041
1630415917869,-0.067893,-0.681858,-0.7190679999999999
1630415917879,-0.069052,-0.685823,-0.721386
1630415917888,-0.06831999999999999,-0.6907639999999999,-0.720898
1630415917898,-0.067283,-0.69418,-0.718946
1630415917907,-0.064965,-0.696559,-0.718519
1630415917917,-0.06447699999999999,-0.696925,-0.7175429999999999
1630415917927,-0.063745,-0.695095,-0.715835
1630415917936,-0.060878,-0.692472,-0.71553
1630415917946,-0.06161,-0.6880189999999999,-0.7163229999999999
1630415917955,-0.063562,-0.682102,-0.715774
1630415917965,-0.066185,-0.677039,-0.714615
1630415917975,-0.068747,-0.672281,-0.716689
1630415917984,-0.073017,-0.670451,-0.718336
1630415917994,-0.075091,-0.673257,-0.723094
1630415918003,-0.07442,-0.678015,-0.728889
1630415918013,-0.072956,-0.68564,-0.730536
1630415918023,-0.068076,-0.6901539999999999,-0.7299869999999999
1630415918032,-0.068564,-0.688385,-0.725656
1630415918042,-0.072346,-0.683078,-0.724253
1630415918051,-0.07686,-0.679601,-0.726083
1630415918061,-0.081496,-0.677832,-0.72773
1630415918071,-0.084424,-0.67893,-0.7293769999999999
1630415918080,-0.086925,-0.680577,-0.735294
1630415918090,-0.084668,-0.68076,-0.7397469999999999
1630415918099,-0.083204,-0.680272,-0.741516
1630415918109,-0.080703,-0.679906,-0.741394
1630415918119,-0.07747,-0.679052,-0.741638
1630415918128,-0.074054,-0.6771,-0.737856
1630415918138,-0.072102,-0.674477,-0.731756
1630415918147,-0.075091,-0.6685599999999999,-0.7281569999999999
1630415918157,-0.076921,-0.664046,-0.72407
1630415918167,-0.078202,-0.659837,-0.725351
1630415918176,-0.079788,-0.658678,-0.729194
1630415918186,-0.080764,-0.661606,-0.734318
1630415918195,-0.078446,-0.6664249999999999,-0.735538
1630415918205,-0.07710399999999999,-0.669719,-0.7360869999999999
1630415918215,-0.074298,-0.67405,-0.733708
1630415918224,-0.072773,-0.677588,-0.732488
1630415918234,-0.071309,-0.6806989999999999,-0.730536
1630415918243,-0.06801499999999999,-0.6813089999999999,-0.72956
1630415918253,-0.066246,-0.6806989999999999,-0.731146
1630415918263,-0.064721,-0.679967,-0.734074
1630415918272,-0.06344,-0.679845,-0.736819
1630415918282,-0.061121999999999996,-0.67893,-0.736758
1630415918291,-0.059414,-0.677832,-0.735294
1630415918301,-0.058011,-0.677466,-0.730048
1630415918311,-0.056424999999999996,-0.676612,-0.726266
1630415918320,-0.054046,-0.67588,-0.722606
1630415918330,-0.054046,-0.676124,-0.720776
1630415918339,-0.053009,-0.675636,-0.723521
1630415918349,-0.05368,-0.67649,-0.724863
1630415918359,-0.05429,-0.675758,-0.726144
1630415918368,-0.055998,-0.672952,-0.725351
1630415918378,-0.056486,-0.67161,-0.7259
1630415918387,-0.057645,-0.669658,-0.72651
1630415918397,-0.058193999999999996,-0.668316,-0.729011
1630415918407,-0.059657999999999996,-0.668316,-0.73261
1630415918416,-0.061549,-0.665449,-0.734623
1630415918426,-0.063135,-0.6645949999999999,-0.738954
1630415918435,-0.06344,-0.664412,-0.741211
1630415918445,-0.063989,-0.662399,-0.7412719999999999
1630415918455,-0.063562,-0.663131,-0.740174
1630415918464,-0.063928,-0.663741,-0.7424919999999999
1630415918474,-0.063074,-0.663924,-0.742919
1630415918483,-0.06417199999999999,-0.6642899999999999,-0.74481
1630415918493,-0.061793,-0.664534,-0.74481
1630415918503,-0.061975999999999996,-0.6645949999999999,-0.744749
1630415918512,-0.061426999999999995,-0.664656,-0.746335
1630415918522,-0.061975999999999996,-0.662277,-0.745847
1630415918531,-0.064355,-0.659044,-0.739503
1630415918541,-0.065941,-0.657214,-0.734501
1630415918551,-0.066673,-0.654713,-0.73261
1630415918560,-0.066978,-0.655079,-0.735416
1630415918570,-0.06770999999999999,-0.655079,-0.736514
1630415918579,-0.067466,-0.655933,-0.736636
1630415918589,-0.07002799999999999,-0.657519,-0.736575
1630415918599,-0.071919,-0.659898,-0.735721
1630415918608,-0.073444,-0.662094,-0.73688
1630415918618,-0.073993,-0.662338,-0.73505
1630415918627,-0.07442,-0.6627649999999999,-0.7363919999999999
1630415918637,-0.073139,-0.6642899999999999,-0.736514
1630415918647,-0.07198,-0.665144,-0.737795
1630415918656,-0.072712,-0.666608,-0.737429
1630415918666,-0.071187,-0.666913,-0.735233
1630415918675,-0.070882,-0.666669,-0.7336469999999999
1630415918685,-0.070821,-0.666669,-0.731878
1630415918695,-0.069601,-0.666181,-0.728828
1630415918704,-0.069418,-0.665998,-0.729255
1630415918714,-0.068686,-0.668316,-0.730658
1630415918723,-0.067527,-0.669414,-0.731146
1630415918733,-0.066063,-0.670512,-0.7302919999999999
1630415918743,-0.066429,-0.67161,-0.730231
1630415918752,-0.067039,-0.673013,-0.729011
1630415918762,-0.065514,-0.674294,-0.729926
1630415918771,-0.064721,-0.676307,-0.728584
1630415918781,-0.064721,-0.676917,-0.728401
1630415918791,-0.064843,-0.676734,-0.730414
1630415918800,-0.06417199999999999,-0.678808,-0.728828
1630415918810,-0.063318,-0.6797839999999999,-0.728401
1630415918819,-0.063318,-0.680882,-0.728218
1630415918829,-0.062037,-0.679357,-0.72834
1630415918839,-0.061426999999999995,-0.6803939999999999,-0.72895
1630415918848,-0.060816999999999996,-0.681797,-0.728096
1630415918858,-0.062708,-0.680211,-0.726022
1630415918867,-0.062769,-0.678503,-0.725595
1630415918877,-0.064233,-0.677405,-0.728096
1630415918887,-0.061671,-0.678808,-0.727974
1630415918896,-0.060634,-0.675331,-0.726815
1630415918906,-0.061549,-0.671671,-0.728218
1630415918915,-0.061488,-0.666852,-0.734196
1630415918925,-0.060939,-0.661728,-0.73932
1630415918935,-0.059536,-0.660569,-0.747799
1630415918944,-0.060268,-0.656177,-0.754692
1630415918954,-0.059902,-0.643367,-0.76433
1630415918963,-0.05856,-0.613904,-0.775798
1630415918973,-0.054229,-0.603534,-0.757803
1630415918983,-0.053375,-0.614941,-0.7415769999999999
1630415918992,-0.046726,-0.6353759999999999,-0.734623
1630415919002,-0.052155,-0.641232,-0.734318
1630415919011,-0.059962999999999995,-0.634522,-0.737734
1630415919021,-0.067283,-0.637999,-0.7351719999999999
1630415919031,-0.075518,-0.652639,-0.737063
1630415919040,-0.072956,-0.665083,-0.743224
1630415919050,-0.077287,-0.671122,-0.741516
1630415919059,-0.088694,-0.672952,-0.734928
1630415919069,-0.085034,-0.68808,-0.731268
1630415919079,-0.083082,-0.700463,-0.729743
1630415919088,-0.093757,-0.709125,-0.730414
1630415919098,-0.093757,-0.708881,-0.75274
1630415919107,-0.091988,-0.706014,-0.774029
1630415919117,-0.091805,-0.701805,-0.788486
1630415919127,-0.094123,-0.688385,-0.794464
1630415919136,-0.08680299999999999,-0.677039,-0.7832399999999999
1630415919146,-0.089792,-0.657397,-0.780251
1630415919155,-0.09528199999999999,-0.644038,-0.774761
1630415919165,-0.086376,-0.637877,-0.7643909999999999
1630415919175,-0.082899,-0.638243,-0.751459
1630415919184,-0.087535,-0.629093,-0.745664
1630415919194,-0.085949,-0.619333,-0.740235
1630415919203,-0.08784,-0.6156119999999999,-0.735233
1630415919213,-0.09028,-0.614331,-0.735355
1630415919223,-0.08588799999999999,-0.617808,-0.7385269999999999
1630415919232,-0.08204499999999999,-0.626592,-0.732671
1630415919242,-0.075762,-0.640134,-0.722179
1630415919251,-0.06831999999999999,-0.647271,-0.718092
1630415919261,-0.066978,-0.653432,-0.714066
1630415919271,-0.071797,-0.660264,-0.719739
1630415919280,-0.069174,-0.670634,-0.7144929999999999
1630415919290,-0.069723,-0.679723,-0.71553
1630415919299,-0.0732,-0.6834439999999999,-0.725839
1630415919309,-0.063379,-0.69235,-0.715896
1630415919319,-0.060573,-0.699792,-0.719861
1630415919328,-0.053863,-0.7111379999999999,-0.7296819999999999
1630415919338,-0.050873999999999996,-0.718824,-0.7339519999999999
1630415919347,-0.048068,-0.72285,-0.737734
1630415919357,-0.04575,-0.721203,-0.736636
1630415919367,-0.038003,-0.726449,-0.720593
1630415919376,-0.050508,-0.71614,-0.7394419999999999
1630415919386,-0.043188,-0.710101,-0.733159
1630415919395,-0.044957,-0.697779,-0.737124
1630415919405,-0.037271,-0.691008,-0.748104
1630415919415,-0.0305,-0.685823,-0.748104
1630415919424,-0.032574,-0.673623,-0.760243
1630415919434,-0.035441,-0.650016,-0.769393
1630415919443,-0.038979,-0.63379,-0.771894
1630415919453,-0.039710999999999996,-0.625921,-0.77409
1630415919463,-0.035318999999999996,-0.625433,-0.770064
1630415919472,-0.028487,-0.623054,-0.767563
1630415919482,-0.029828999999999998,-0.6283,-0.755729
1630415919491,-0.024278,-0.638487,-0.756217
1630415919501,-0.022082,-0.626897,-0.75518
1630415919511,-0.027206,-0.612074,-0.7537159999999999
1630415919520,-0.030987999999999998,-0.601887,-0.757559
1630415919530,-0.032818,-0.597312,-0.75457
1630415919539,-0.034282,-0.595604,-0.758169
1630415919549,-0.034648,-0.599203,-0.759755
1630415919559,-0.036661,-0.598715,-0.757864
1630415919568,-0.038613,-0.5961529999999999,-0.761585
1630415919578,-0.039589,-0.595665,-0.7659159999999999
1630415919587,-0.03965,-0.597312,-0.768478
1630415919597,-0.041236,-0.600484,-0.7677459999999999
1630415919607,-0.040565,-0.606706,-0.763903
1630415919616,-0.04636,-0.609573,-0.759694
1630415919626,-0.049837,-0.609024,-0.758047
1630415919635,-0.051484,-0.611464,-0.7595109999999999
1630415919645,-0.053436,-0.622688,-0.759328
1630415919655,-0.051484,-0.631228,-0.7631709999999999
1630415919664,-0.051484,-0.635193,-0.764879
1630415919674,-0.053924,-0.6323259999999999,-0.762195
1630415919683,-0.051179,-0.631777,-0.753533
1630415919693,-0.054168,-0.63562,-0.755668
1630415919703,-0.050263999999999996,-0.645258,-0.7564
1630415919712,-0.049288,-0.657946,-0.759999
1630415919722,-0.049532,-0.664412,-0.759267
1630415919731,-0.05246,-0.663802,-0.758169
1630415919741,-0.056608,-0.6600199999999999,-0.754448
1630415919751,-0.05978,-0.655994,-0.7540209999999999
1630415919760,-0.063196,-0.654042,-0.7521909999999999
1630415919770,-0.062280999999999996,-0.656543,-0.755058
1630415919779,-0.060024,-0.659898,-0.7564609999999999
1630415919789,-0.058804,-0.662033,-0.756217
1630415919799,-0.056791,-0.6642899999999999,-0.753594
1630415919808,-0.056424999999999996,-0.664107,-0.749568
1630415919818,-0.054839,-0.666242,-0.745847
1630415919827,-0.053924,-0.6664249999999999,-0.740784
1630415919837,-0.051179,-0.665632,-0.737429
1630415919847,-0.049837,-0.664229,-0.7351719999999999
1630415919856,-0.049593,-0.6618499999999999,-0.7348669999999999
1630415919866,-0.048617,-0.662033,-0.7327319999999999
1630415919875,-0.051301,-0.661911,-0.731146
1630415919885,-0.053314,-0.664046,-0.731024
1630415919895,-0.055205,-0.667828,-0.726815
1630415919904,-0.055449,-0.671976,-0.724863
1630415919914,-0.0549,-0.676917,-0.724253
1630415919923,-0.056059,-0.680577,-0.72346
1630415919933,-0.058133,-0.681797,-0.723033
1630415919943,-0.060329,-0.68381,-0.719495
1630415919952,-0.06344,-0.685457,-0.718397
1630415919962,-0.066734,-0.686738,-0.720715
1630415919971,-0.067222,-0.6895439999999999,-0.722118
1630415919981,-0.07094299999999999,-0.690886,-0.722423
1630415919991,-0.072773,-0.693021,-0.725778
1630415920000,-0.073688,-0.6938139999999999,-0.7302919999999999
1630415920010,-0.072163,-0.694302,-0.728889
1630415920019,-0.071492,-0.693265,-0.726144
1630415920029,-0.072468,-0.689422,-0.720776
1630415920039,-0.07869,-0.683017,-0.716445
1630415920048,-0.084119,-0.679601,-0.71797
1630415920058,-0.087535,-0.680821,-0.720837
1630415920067,-0.089487,-0.6834439999999999,-0.726266
1630415920077,-0.088938,-0.683017,-0.731451
1630415920087,-0.085522,-0.681797,-0.739015
1630415920096,-0.079605,-0.679967,-0.74054
1630415920106,-0.075701,-0.678076,-0.741211
1630415920115,-0.070394,-0.679296,-0.742614
1630415920125,-0.066978,-0.676551,-0.737673
1630415920135,-0.067466,-0.669902,-0.731085
1630415920144,-0.067039,-0.664961,-0.73017
1630415920154,-0.062586,-0.665327,-0.733098
1630415920163,-0.059597,-0.668194,-0.736819
1630415920173,-0.056608,-0.673196,-0.740113
1630415920183,-0.050263999999999996,-0.67832,-0.738893
1630415920192,-0.047458,-0.679052,-0.734928
1630415920202,-0.045018,-0.678808,-0.734806
1630415920211,-0.044225,-0.678015,-0.735294
1630415920221,-0.045323,-0.678198,-0.7336469999999999
1630415920231,-0.046482,-0.678442,-0.73444
1630415920240,-0.047885,-0.677466,-0.735843
1630415920250,-0.048922,-0.67771,-0.73993
1630415920259,-0.050752,-0.674904,-0.738039
1630415920269,-0.053496999999999996,-0.669902,-0.740418
1630415920279,-0.05734,-0.6664249999999999,-0.74542
1630415920288,-0.058804,-0.662704,-0.745664
1630415920298,-0.060573,-0.659593,-0.744993
1630415920307,-0.06447699999999999,-0.658312,-0.748043
1630415920317,-0.067649,-0.654652,-0.75457
1630415920327,-0.069052,-0.649345,-0.753899
1630415920336,-0.071858,-0.643062,-0.756644
1630415920346,-0.073932,-0.63806,-0.761524
1630415920355,-0.077226,-0.631777,-0.768417
1630415920365,-0.080764,-0.627202,-0.775249
1630415920375,-0.082167,-0.623664,-0.77287
1630415920384,-0.080886,-0.622627,-0.774639
1630415920394,-0.078019,-0.623725,-0.775493
1630415920403,-0.076006,-0.622139,-0.773968
1630415920413,-0.074054,-0.619821,-0.773236
1630415920423,-0.07417599999999999,-0.616893,-0.77226
1630415920432,-0.073322,-0.612684,-0.771101
1630415920442,-0.07259,-0.611098,-0.767502
1630415920451,-0.074237,-0.6079869999999999,-0.768051
1630415920461,-0.076921,-0.603351,-0.772321
1630415920471,-0.078019,-0.598227,-0.774212
1630415920480,-0.075762,-0.594872,-0.773785
1630415920490,-0.07259,-0.59597,-0.770125
1630415920499,-0.069296,-0.603473,-0.76738
1630415920509,-0.064416,-0.61305,-0.768295
1630415920519,-0.059657999999999996,-0.619699,-0.768722
1630415920528,-0.057157,-0.625189,-0.770674
1630415920538,-0.056486,-0.627507,-0.77165
1630415920547,-0.056547,-0.629825,-0.771955
1630415920557,-0.053375,-0.630862,-0.77287
1630415920567,-0.051972,-0.632143,-0.772199
1630415920576,-0.051727999999999996,-0.631411,-0.771589
1630415920586,-0.048739,-0.631167,-0.767075
1630415920595,-0.049044,-0.631045,-0.763903
1630415920605,-0.048007,-0.628056,-0.7613409999999999
1630415920615,-0.048556,-0.627507,-0.759084
1630415920624,-0.047640999999999996,-0.627385,-0.758779
1630415920634,-0.048312,-0.627995,-0.75945
1630415920643,-0.048007,-0.629703,-0.7592059999999999
1630415920653,-0.048678,-0.629581,-0.758962
1630415920663,-0.050386,-0.628178,-0.758474
1630415920672,-0.050873999999999996,-0.629215,-0.7570709999999999
1630415920682,-0.054046,-0.630984,-0.75762
1630415920691,-0.053314,-0.631289,-0.7546309999999999
1630415920701,-0.055632,-0.635742,-0.7540209999999999
1630415920711,-0.055327,-0.641598,-0.756888
1630415920720,-0.052886999999999997,-0.64721,-0.759755
1630415920730,-0.054168,-0.651602,-0.761219
1630415920739,-0.054107,-0.652639,-0.759999
1630415920749,-0.054473,-0.655079,-0.758474
1630415920759,-0.053314,-0.659654,-0.756522
1630415920768,-0.053191999999999996,-0.659898,-0.7561559999999999
1630415920778,-0.052521,-0.660447,-0.7585959999999999
1630415920787,-0.050873999999999996,-0.662094,-0.757559
1630415920797,-0.050263999999999996,-0.661301,-0.753594
1630415920807,-0.049898,-0.659044,-0.748958
1630415920816,-0.049715,-0.656238,-0.747067
1630415920826,-0.048068,-0.657702,-0.745786
1630415920835,-0.046909,-0.660508,-0.74847
1630415920845,-0.044712999999999996,-0.663436,-0.747921
1630415920855,-0.039955,-0.664839,-0.747555
1630415920864,-0.038796,-0.663924,-0.745298
1630415920874,-0.035807,-0.664046,-0.745603
1630415920883,-0.034709,-0.661484,-0.746579
1630415920893,-0.035258,-0.660447,-0.747372
1630415920903,-0.033916,-0.662399,-0.744505
1630415920912,-0.03538,-0.660264,-0.741028
1630415920922,-0.035013999999999997,-0.660508,-0.73993
1630415920931,-0.034038,-0.660691,-0.739015
1630415920941,-0.035746,-0.659898,-0.73993
1630415920951,-0.036173,-0.6597149999999999,-0.74237
1630415920960,-0.035868,-0.661118,-0.743956
1630415920970,-0.036478,-0.659349,-0.741821
1630415920979,-0.037087999999999996,-0.657031,-0.741821
1630415920989,-0.038613,-0.657519,-0.74054
1630415920999,-0.038735,-0.6575799999999999,-0.738771
1630415921008,-0.038735,-0.6603249999999999,-0.740296
1630415921018,-0.039406,-0.664168,-0.742736
1630415921027,-0.039833,-0.664717,-0.742431
1630415921037,-0.043737,-0.662643,-0.746762
1630415921047,-0.043066,-0.660752,-0.745908
1630415921056,-0.043188,-0.6597149999999999,-0.744749
1630415921066,-0.042273,-0.658068,-0.744627
1630415921075,-0.044407999999999996,-0.656116,-0.745054
1630415921085,-0.045506,-0.652883,-0.744444
1630415921095,-0.04453,-0.650687,-0.742614
1630415921104,-0.043981,-0.649955,-0.74054
1630415921114,-0.042456,-0.653432,-0.742431
1630415921123,-0.042212,-0.654469,-0.742736
1630415921133,-0.043188,-0.657153,-0.742858
1630415921143,-0.042212,-0.661179,-0.74481
1630415921152,-0.041419,-0.665327,-0.742614
1630415921162,-0.042578,-0.665327,-0.7418819999999999
1630415921171,-0.041541,-0.667218,-0.739564
1630415921181,-0.042334,-0.667218,-0.741333
1630415921191,-0.043676,-0.667767,-0.74054
1630415921200,-0.04453,-0.666608,-0.741638
1630415921210,-0.046176999999999996,-0.664534,-0.7415769999999999
1630415921219,-0.047458,-0.661911,-0.74237
1630415921229,-0.048312,-0.6636799999999999,-0.73993
1630415921239,-0.047214,-0.667096,-0.7394419999999999
1630415921248,-0.049288,-0.6676449999999999,-0.73993
1630415921258,-0.050142,-0.667767,-0.738588
1630415921267,-0.050873999999999996,-0.666852,-0.738161
1630415921277,-0.051606,-0.666242,-0.7376119999999999
1630415921287,-0.051972,-0.665449,-0.737856
1630415921296,-0.05368,-0.664168,-0.73627
1630415921306,-0.055632,-0.664656,-0.737124
1630415921315,-0.055570999999999995,-0.663741,-0.7382219999999999
1630415921325,-0.055632,-0.663619,-0.7370019999999999
1630415921335,-0.055144,-0.664351,-0.736636
1630415921344,-0.054107,-0.6664249999999999,-0.734196
1630415921354,-0.055388,-0.668011,-0.736575
1630415921363,-0.054168,-0.669963,-0.737551
1630415921373,-0.055083,-0.670207,-0.736819
1630415921383,-0.056119999999999996,-0.6700849999999999,-0.736758
1630415921392,-0.055693,-0.670451,-0.73566
1630415921402,-0.05551,-0.671,-0.7363919999999999
1630415921411,-0.0549,-0.672464,-0.735111
1630415921421,-0.055449,-0.672708,-0.73505
1630415921431,-0.056181,-0.672464,-0.733464
1630415921440,-0.056181,-0.671427,-0.7336469999999999
1630415921450,-0.056242,-0.670878,-0.734196
1630415921459,-0.057157,-0.671,-0.7333419999999999
1630415921469,-0.056424999999999996,-0.671183,-0.733098
1630415921479,-0.057462,-0.671305,-0.732915
1630415921488,-0.05734,-0.6700849999999999,-0.73444
1630415921498,-0.056303,-0.67039,-0.732976
1630415921507,-0.05734,-0.668133,-0.7318169999999999
1630415921517,-0.05856,-0.666486,-0.732549
1630415921527,-0.057828,-0.665937,-0.7336469999999999
1630415921536,-0.056852,-0.6658149999999999,-0.734379
1630415921546,-0.056547,-0.6673399999999999,-0.73505
1630415921555,-0.056059,-0.668072,-0.735355
1630415921565,-0.054655999999999996,-0.668926,-0.7351719999999999
1630415921575,-0.054595,-0.6691699999999999,-0.734928
1630415921584,-0.054046,-0.670268,-0.734196
1630415921594,-0.053558,-0.671061,-0.73322
1630415921603,-0.051606,-0.672464,-0.7342569999999999
1630415921613,-0.050081,-0.671976,-0.7333419999999999
1630415921623,-0.049471,-0.672464,-0.7321219999999999
1630415921632,-0.05002,-0.673623,-0.730536
1630415921642,-0.050447,-0.673623,-0.728645
1630415921651,-0.049044,-0.673623,-0.728035
1630415921661,-0.049288,-0.673745,-0.728828
1630415921671,-0.050568999999999996,-0.67466,-0.729499
1630415921680,-0.051667,-0.675209,-0.729438
1630415921690,-0.051301,-0.675697,-0.730475
1630415921699,-0.051789,-0.677039,-0.731024
1630415921709,-0.05307,-0.676185,-0.7309019999999999
1630415921719,-0.053191999999999996,-0.676429,-0.731573
1630415921728,-0.053314,-0.675697,-0.732183
1630415921738,-0.05429,-0.673867,-0.729926
1630415921747,-0.055815,-0.671061,-0.730841
1630415921757,-0.056913,-0.671305,-0.732
1630415921767,-0.057888999999999996,-0.670756,-0.732
1630415921776,-0.060085,-0.671061,-0.7327319999999999
1630415921786,-0.060451,-0.671305,-0.734745
1630415921795,-0.061061,-0.671366,-0.73566
1630415921805,-0.060756,-0.671244,-0.734623
1630415921815,-0.061121999999999996,-0.670878,-0.732976
1630415921824,-0.060085,-0.671488,-0.733586
1630415921834,-0.059231,-0.672952,-0.731756
1630415921843,-0.059841,-0.672159,-0.730658
1630415921853,-0.059962999999999995,-0.67222,-0.729621
1630415921863,-0.059536,-0.671183,-0.728828
1630415921872,-0.059292,-0.672159,-0.728706
1630415921882,-0.058926,-0.672586,-0.730048
1630415921891,-0.05856,-0.67344,-0.7318169999999999
1630415921901,-0.058255,-0.673562,-0.73078
1630415921911,-0.058316,-0.673745,-0.7315119999999999
1630415921920,-0.058621,-0.674294,-0.731695
1630415921930,-0.057828,-0.674904,-0.730841
1630415921939,-0.057583999999999996,-0.675026,-0.730841
1630415921949,-0.057034999999999995,-0.674904,-0.729926
1630415921959,-0.058193999999999996,-0.674599,-0.7309019999999999
1630415921968,-0.057706,-0.675697,-0.731939
1630415921978,-0.056608,-0.676368,-0.732244
1630415921987,-0.056791,-0.677893,-0.732
1630415921997,-0.056119999999999996,-0.679235,-0.732488
1630415922007,-0.057462,-0.678076,-0.731878
1630415922016,-0.057034999999999995,-0.678015,-0.7321219999999999
1630415922026,-0.057157,-0.677405,-0.731634
1630415922035,-0.056364,-0.676002,-0.73078
1630415922045,-0.056852,-0.674782,-0.729621
1630415922055,-0.056729999999999996,-0.672952,-0.728218
1630415922064,-0.056608,-0.672342,-0.728706
1630415922074,-0.056303,-0.671793,-0.728828
1630415922083,-0.05734,-0.670573,-0.730475
1630415922093,-0.057218,-0.670573,-0.730719
1630415922103,-0.057888999999999996,-0.670756,-0.731573
1630415922112,-0.058621,-0.671244,-0.730536
1630415922122,-0.060878,-0.670512,-0.73017
1630415922131,-0.06039,-0.67039,-0.731146
1630415922141,-0.060024,-0.670024,-0.730231
1630415922151,-0.060634,-0.67039,-0.730841
1630415922160,-0.060756,-0.670146,-0.729438
1630415922170,-0.060756,-0.671305,-0.7305969999999999
1630415922179,-0.061121999999999996,-0.673257,-0.731634
1630415922189,-0.060268,-0.67283,-0.7312069999999999
1630415922199,-0.061305,-0.67405,-0.7284619999999999
1630415922208,-0.06222,-0.675331,-0.728218
1630415922218,-0.062586,-0.676612,-0.731329
1630415922227,-0.061975999999999996,-0.677405,-0.7333419999999999
1630415922237,-0.064538,-0.675514,-0.73078
1630415922247,-0.065636,-0.675148,-0.728279
1630415922256,-0.066612,-0.673928,-0.728401
1630415922266,-0.06447699999999999,-0.673501,-0.731024
1630415922275,-0.06447699999999999,-0.673806,-0.731695
1630415922285,-0.06417199999999999,-0.673928,-0.731268
1630415922295,-0.063806,-0.674843,-0.7302919999999999
1630415922304,-0.063074,-0.676612,-0.72895
1630415922314,-0.063745,-0.678442,-0.728218
1630415922323,-0.061915,-0.679418,-0.726571
1630415922333,-0.06161,-0.679052,-0.725717
1630415922343,-0.060329,-0.679113,-0.726571
1630415922352,-0.059841,-0.679296,-0.7284619999999999
1630415922362,-0.059292,-0.678198,-0.728035
1630415922371,-0.060268,-0.676978,-0.728096
1630415922381,-0.060634,-0.676368,-0.7278519999999999
1630415922391,-0.060511999999999996,-0.675209,-0.7269369999999999
1630415922400,-0.059352999999999996,-0.675575,-0.726144
1630415922410,-0.059231,-0.675758,-0.725656
1630415922419,-0.059902,-0.676246,-0.726571
1630415922429,-0.059902,-0.67771,-0.727303
1630415922439,-0.058316,-0.678076,-0.72651
1630415922448,-0.058804,-0.678076,-0.727486
1630415922458,-0.060573,-0.675697,-0.725961
1630415922467,-0.060085,-0.676734,-0.724009
1630415922477,-0.060451,-0.676246,-0.726144
1630415922487,-0.06039,-0.677039,-0.727486
1630415922496,-0.060268,-0.676978,-0.728035
1630415922506,-0.060329,-0.676185,-0.72895
1630415922515,-0.061061,-0.674294,-0.728218
1630415922525,-0.061549,-0.674233,-0.729865
1630415922535,-0.062586,-0.672891,-0.7293769999999999
1630415922544,-0.062464,-0.671976,-0.7290719999999999
1630415922554,-0.062708,-0.670939,-0.72895
1630415922563,-0.063196,-0.671671,-0.729011
1630415922573,-0.06283,-0.671976,-0.729133
1630415922583,-0.063013,-0.671488,-0.729316
1630415922592,-0.06283,-0.670756,-0.72956
1630415922602,-0.06222,-0.670756,-0.730231
1630415922611,-0.061732,-0.672098,-0.728584
1630415922621,-0.06161,-0.672952,-0.7293769999999999
1630415922631,-0.061975999999999996,-0.674355,-0.728584
1630415922640,-0.061244,-0.674904,-0.7272419999999999
1630415922650,-0.061305,-0.675758,-0.729194
1630415922659,-0.060939,-0.676856,-0.7305969999999999
1630415922669,-0.059597,-0.678686,-0.729926
1630415922679,-0.060024,-0.68076,-0.7302919999999999
1630415922688,-0.059047999999999996,-0.681675,-0.73017
1630415922698,-0.059597,-0.680516,-0.730719
1630415922707,-0.059414,-0.680577,-0.7296819999999999
1630415922717,-0.059475,-0.6794789999999999,-0.72834
1630415922727,-0.059475,-0.678198,-0.728218
1630415922736,-0.05917,-0.678503,-0.730109
1630415922746,-0.058743,-0.678564,-0.73017
1630415922755,-0.058865,-0.678991,-0.731939
1630415922765,-0.059352999999999996,-0.678869,-0.732915
1630415922775,-0.059414,-0.677344,-0.731451
1630415922784,-0.059231,-0.675575,-0.730231
1630415922794,-0.057828,-0.674782,-0.72956
1630415922803,-0.05856,-0.674477,-0.7290719999999999
1630415922813,-0.058072,-0.67405,-0.729804
1630415922823,-0.056729999999999996,-0.672769,-0.72956
1630415922832,-0.057583999999999996,-0.672342,-0.729865
1630415922842,-0.057279,-0.672464,-0.731451
1630415922851,-0.056669,-0.67344,-0.730536
1630415922861,-0.057888999999999996,-0.672952,-0.73017
1630415922871,-0.057218,-0.672708,-0.7305969999999999
1630415922880,-0.05734,-0.674477,-0.732
1630415922890,-0.057583999999999996,-0.675941,-0.7324269999999999
1630415922899,-0.057157,-0.675026,-0.732549
1630415922909,-0.056486,-0.674111,-0.732183
1630415922919,-0.055083,-0.674294,-0.732183
1630415922928,-0.055570999999999995,-0.674355,-0.730963
1630415922938,-0.055388,-0.673257,-0.732488
1630415922947,-0.05429,-0.67283,-0.734989
1630415922957,-0.054412,-0.67222,-0.735599
1630415922967,-0.057157,-0.6700849999999999,-0.73444
1630415922976,-0.055449,-0.668987,-0.737734
1630415922986,-0.055754,-0.667767,-0.739259
1630415922995,-0.055022,-0.667767,-0.739076
1630415923005,-0.054229,-0.667218,-0.7397469999999999
1630415923015,-0.053619,-0.667706,-0.738771
1630415923024,-0.05368,-0.668804,-0.737185
1630415923034,-0.053436,-0.669353,-0.734135
1630415923043,-0.053375,-0.670878,-0.732915
1630415923053,-0.052216,-0.672952,-0.732488
1630415923063,-0.049654,-0.674111,-0.730536
1630415923072,-0.047458,-0.675514,-0.728096
1630415923082,-0.046176999999999996,-0.678625,-0.7275469999999999
1630415923091,-0.04392,-0.68015,-0.726083
1630415923101,-0.043554,-0.681065,-0.724802
1630415923111,-0.042822,-0.683871,-0.722911
1630415923120,-0.041297,-0.685335,-0.722057
1630415923130,-0.040565,-0.6871039999999999,-0.721447
1630415923139,-0.039955,-0.687897,-0.721264
1630415923149,-0.040138,-0.686311,-0.719678
1630415923159,-0.04087,-0.6858839999999999,-0.719129
1630415923168,-0.040809,-0.685945,-0.720837
1630415923178,-0.039955,-0.6846639999999999,-0.722667
1630415923187,-0.041968,-0.6806989999999999,-0.725046
1630415923197,-0.042578,-0.6810039999999999,-0.725229
1630415923207,-0.038918,-0.683505,-0.725534
1630415923216,-0.036539,-0.680882,-0.724009
1630415923226,-0.038064,-0.674233,-0.723887
1630415923235,-0.038551999999999996,-0.670268,-0.725534
1630415923245,-0.038003,-0.669414,-0.729926
1630415923255,-0.036722,-0.669658,-0.732793
1630415923264,-0.036051,-0.6700849999999999,-0.729499
1630415923274,-0.036661,-0.669353,-0.7275469999999999
1630415923283,-0.037759,-0.6682549999999999,-0.727913
1630415923293,-0.040687,-0.666913,-0.72956
1630415923303,-0.042212,-0.667828,-0.733708
1630415923312,-0.043188,-0.673257,-0.7381
1630415923322,-0.044652,-0.67527,-0.740113
1630415923331,-0.04331,-0.67771,-0.742919
1630415923341,-0.043798,-0.676856,-0.744627
1630415923351,-0.046421,-0.673257,-0.746945
1630415923360,-0.049715,-0.668804,-0.750544
1630415923370,-0.051972,-0.664351,-0.7546309999999999
1630415923379,-0.054595,-0.6584949999999999,-0.757132
1630415923389,-0.05917,-0.64965,-0.757254
1630415923399,-0.062525,-0.641598,-0.757803
1630415923408,-0.063989,-0.635132,-0.760365
1630415923418,-0.067283,-0.630069,-0.764025
1630415923427,-0.069967,-0.625738,-0.768051
1630415923437,-0.073078,-0.6207969999999999,-0.772199
1630415923447,-0.077775,-0.614148,-0.772199
1630415923456,-0.081008,-0.6082919999999999,-0.773785
1630415923466,-0.084668,-0.602436,-0.7780549999999999
1630415923475,-0.086864,-0.596702,-0.7807999999999999
1630415923485,-0.09089,-0.591212,-0.7838499999999999
1630415923495,-0.094794,-0.584624,-0.786229
1630415923504,-0.097844,-0.576206,-0.784826
1630415923514,-0.100772,-0.571326,-0.787388
1630415923523,-0.103273,-0.571265,-0.788913
1630415923533,-0.107665,-0.5687639999999999,-0.797575
1630415923543,-0.113094,-0.563396,-0.809775
1630415923552,-0.120292,-0.554002,-0.81923
1630415923562,-0.127368,-0.542168,-0.8224629999999999
1630415923571,-0.13078399999999998,-0.532286,-0.822402
1630415923581,-0.133346,-0.524844,-0.818437
1630415923591,-0.138836,-0.51972,-0.818864
1630415923600,-0.139934,-0.5179509999999999,-0.8227679999999999
1630415923610,-0.142618,-0.513803,-0.826855
1630415923619,-0.147376,-0.511973,-0.832894
1630415923629,-0.149999,-0.51179,-0.836737
1630415923639,-0.153049,-0.509472,-0.835212
1630415923648,-0.155489,-0.501725,-0.830759
1630415923658,-0.15884399999999999,-0.496845,-0.830149
1630415923667,-0.163114,-0.49654,-0.8306979999999999
1630415923677,-0.168665,-0.49519799999999997,-0.83265
1630415923687,-0.175436,-0.494954,-0.836127
1630415923696,-0.181536,-0.492453,-0.844728
1630415923706,-0.189466,-0.49019599999999997,-0.847778
1630415923715,-0.19154,-0.487695,-0.844789
1630415923725,-0.190503,-0.485438,-0.836859
1630415923735,-0.192455,-0.48562099999999997,-0.834419
1630415923744,-0.193736,-0.489525,-0.837042
1630415923754,-0.195383,-0.492758,-0.835822
1630415923763,-0.199409,-0.496479,-0.835456
1630415923773,-0.199409,-0.495991,-0.834907
1630415923783,-0.20075099999999999,-0.492697,-0.830759
1630415923792,-0.204411,-0.491782,-0.8288679999999999
1630415923802,-0.204411,-0.49702799999999997,-0.82899
1630415923811,-0.20691199999999998,-0.503311,-0.8296
1630415923821,-0.208193,-0.509594,-0.828197
1630415923831,-0.211121,-0.5130709999999999,-0.82777
1630415923840,-0.212341,-0.51484,-0.826184
1630415923850,-0.212951,-0.517768,-0.8227679999999999
1630415923859,-0.21594,-0.520452,-0.821609
1630415923869,-0.220088,-0.524234,-0.828075
1630415923879,-0.223138,-0.531493,-0.835822
1630415923888,-0.22478499999999998,-0.535153,-0.838384
1630415923898,-0.229238,-0.536739,-0.841617
1630415923907,-0.233508,-0.537044,-0.844972
1630415923917,-0.23802199999999998,-0.533079,-0.845399
1630415923927,-0.239486,-0.530029,-0.845094
1630415923936,-0.24217,-0.528199,-0.845826
1630415923946,-0.246074,-0.528016,-0.8468019999999999
1630415923955,-0.24729399999999999,-0.52704,-0.849303
1630415923965,-0.248758,-0.528687,-0.846314
1630415923975,-0.2501,-0.527772,-0.842654
1630415923984,-0.251991,-0.52826,-0.842776
1630415923994,-0.252052,-0.52948,-0.836737
1630415924003,-0.251198,-0.529968,-0.834541
1630415924013,-0.249307,-0.530761,-0.8343579999999999
1630415924023,-0.248575,-0.529785,-0.835212
1630415924032,-0.24888,-0.53009,-0.837042
1630415924042,-0.247782,-0.527772,-0.839665
1630415924051,-0.248148,-0.52399,-0.842044
1630415924061,-0.244854,-0.52033,-0.848205
1630415924071,-0.239486,-0.517585,-0.8538169999999999
1630415924080,-0.237839,-0.516182,-0.86559
1630415924090,-0.231678,-0.515572,-0.875777
1630415924099,-0.224846,-0.514718,-0.880535
1630415924109,-0.21655,-0.5145959999999999,-0.8827309999999999
1630415924119,-0.20752199999999998,-0.512644,-0.8787659999999999
1630415924128,-0.201788,-0.50752,-0.873154
1630415924138,-0.194651,-0.501176,-0.8720559999999999
1630415924147,-0.187087,-0.495259,-0.869799
1630415924157,-0.181292,-0.489708,-0.867664
1630415924167,-0.17385,-0.48623099999999997,-0.86681
1630415924176,-0.167628,-0.48440099999999997,-0.869006
1630415924186,-0.16097899999999998,-0.481778,-0.866932
1630415924195,-0.15555,-0.479765,-0.8629669999999999
1630415924205,-0.153232,-0.48092399999999996,-0.863638
1630415924215,-0.14884,-0.483608,-0.866566
1630415924224,-0.143838,-0.486902,-0.874069
1630415924234,-0.136701,-0.488854,-0.880657
1630415924243,-0.13017399999999998,-0.488,-0.879254
1630415924253,-0.120841,-0.48678,-0.872727
1630415924263,-0.11516799999999999,-0.48440099999999997,-0.868152
1630415924272,-0.10961699999999999,-0.485987,-0.87047
1630415924282,-0.10315099999999999,-0.485438,-0.873764
1630415924291,-0.09589199999999999,-0.48623099999999997,-0.8729709999999999
1630415924301,-0.08845,-0.48623099999999997,-0.8714459999999999
1630415924311,-0.084424,-0.483913,-0.869494
1630415924320,-0.078263,-0.483059,-0.870653
1630415924330,-0.073749,-0.47970399999999996,-0.8735809999999999
1630415924339,-0.064355,-0.4758,-0.873093
1630415924349,-0.056486,-0.469517,-0.865956
1630415924359,-0.052337999999999996,-0.465369,-0.8590019999999999
1630415924368,-0.047824,-0.465979,-0.859368
1630415924378,-0.038613,-0.467199,-0.85705
1630415924387,-0.028182,-0.463844,-0.846863
1630415924397,-0.023972999999999998,-0.459086,-0.8383229999999999
1630415924407,-0.018117,-0.453291,-0.83814
1630415924416,-0.010675,-0.448167,-0.836432
1630415924426,-0.0050019999999999995,-0.443531,-0.835639
1630415924435,0.001403,-0.442677,-0.8337479999999999
1630415924445,0.004514,-0.44469,-0.83875
1630415924455,0.008967,-0.446093,-0.836859
1630415924464,0.012322,-0.447008,-0.8377129999999999
1630415924474,0.016592,-0.45200999999999997,-0.841373
1630415924483,0.023241,-0.453779,-0.843874
1630415924493,0.027755,-0.452803,-0.843386
1630415924503,0.028487,-0.451034,-0.842593
1630415924512,0.032452,-0.447923,-0.843874
1630415924522,0.03538,-0.44469,-0.840336
1630415924531,0.035623999999999996,-0.440481,-0.8355779999999999
1630415924541,0.035258,-0.439749,-0.839421
1630415924551,0.037149,-0.441701,-0.843203
1630415924560,0.040443,-0.441945,-0.8461919999999999
1630415924570,0.043005,-0.441396,-0.850279
1630415924579,0.046299,-0.442311,-0.853451
1630415924589,0.049898,-0.44029799999999997,-0.852536
1630415924599,0.049104999999999996,-0.434564,-0.851743
1630415924608,0.048678,-0.42883,-0.852963
1630415924618,0.049166,-0.425963,-0.85827
1630415924627,0.049166,-0.421327,-0.86193
1630415924637,0.045079,-0.420412,-0.868884
1630415924647,0.042334,-0.420412,-0.8787659999999999
1630415924656,0.041846,-0.420839,-0.8845
1630415924666,0.037698,-0.420046,-0.8833409999999999
1630415924675,0.032695999999999996,-0.420595,-0.877912
1630415924685,0.027816,-0.417362,-0.869555
1630415924695,0.022692,-0.408029,-0.865346
1630415924704,0.01281,-0.401746,-0.8702259999999999
1630415924714,0.001586,-0.40028199999999997,-0.8873059999999999
1630415924723,-0.005673,-0.399733,-0.904996
1630415924733,-0.013297999999999999,-0.396256,-0.911828
1630415924743,-0.024217,-0.395341,-0.916464
1630415924752,-0.030927,-0.394243,-0.917013
1630415924762,-0.037149,-0.390766,-0.910242
1630415924771,-0.040565,-0.38887499999999997,-0.9131699999999999
1630415924781,-0.043554,-0.394609,-0.9243939999999999
1630415924791,-0.048129,-0.39955,-0.937753
1630415924800,-0.055754,-0.401685,-0.944402
1630415924810,-0.065209,-0.400709,-0.9465979999999999
1630415924819,-0.077653,-0.400648,-0.946964
1630415924829,-0.088938,-0.404308,-0.945195
1630415924839,-0.098149,-0.407785,-0.937753
1630415924848,-0.105408,-0.426878,-0.91988
1630415924858,-0.104432,-0.452437,-0.905728
1630415924867,-0.103822,-0.475251,-0.888038
1630415924877,-0.09881999999999999,-0.48684099999999997,-0.87413
1630415924887,-0.097478,-0.487817,-0.85583
1630415924896,-0.10004,-0.497089,-0.849791
1630415924906,-0.096502,-0.5197809999999999,-0.848754
1630415924915,-0.088938,-0.551379,-0.84058
1630415924925,-0.085522,-0.581513,-0.829844
1630415924935,-0.087657,-0.610061,-0.817278
1630415924944,-0.088999,-0.638304,-0.795562
1630415924954,-0.087108,-0.672037,-0.770918
1630415924963,-0.080093,-0.69723,-0.759023
1630415924973,-0.078751,-0.714249,-0.756949
1630415924983,-0.085827,-0.716567,-0.760792
1630415924992,-0.099674,-0.7123579999999999,-0.770918
1630415925002,-0.10900699999999999,-0.707356,-0.776469
1630415925011,-0.120841,-0.703025,-0.7841549999999999
1630415925021,-0.12986899999999998,-0.7047329999999999,-0.789096
1630415925031,-0.134139,-0.704672,-0.788486
1630415925040,-0.136457,-0.698877,-0.7820199999999999
1630415925050,-0.146766,-0.694851,-0.778421
1630415925059,-0.157624,-0.685152,-0.777262
1630415925069,-0.165066,-0.672464,-0.778177
1630415925079,-0.171349,-0.664046,-0.771772
1630415925088,-0.17934,-0.656604,-0.766465
1630415925098,-0.185135,-0.640317,-0.767014
1630415925107,-0.189832,-0.619028,-0.772016
1630415925117,-0.19117399999999998,-0.606462,-0.775371
1630415925127,-0.187392,-0.592005,-0.772077
1630415925136,-0.186965,-0.576389,-0.77165
1630415925146,-0.182939,-0.567483,-0.76799
1630415925155,-0.175558,-0.560346,-0.7650009999999999
1630415925165,-0.168604,-0.550586,-0.75884
1630415925175,-0.156648,-0.542778,-0.744078
1630415925184,-0.139446,-0.544181,-0.7315119999999999
1630415925194,-0.121817,-0.555649,-0.725107
1630415925203,-0.103578,-0.571692,-0.724009
1630415925213,-0.084607,-0.589016,-0.7198
1630415925223,-0.06831999999999999,-0.601826,-0.712846
1630415925232,-0.055570999999999995,-0.60817,-0.720044
1630415925242,-0.043248999999999996,-0.613843,-0.7397469999999999
1630415925251,-0.034587,-0.619028,-0.756827
1630415925261,-0.033794,-0.6113419999999999,-0.770613
1630415925271,-0.041784999999999996,-0.602863,-0.784277
1630415925280,-0.046116,-0.602558,-0.801418
1630415925290,-0.04575,-0.60329,-0.810873
1630415925299,-0.043432,-0.609146,-0.829234
1630415925309,-0.037576,-0.616893,-0.837835
1630415925319,-0.026168999999999998,-0.6156119999999999,-0.8357
1630415925328,-0.024888,-0.609024,-0.832101
1630415925338,-0.028304,-0.605608,-0.829417
1630415925347,-0.033916,-0.603229,-0.826001
1630415925357,-0.044652,-0.593591,-0.821121
1630415925367,-0.054534,-0.588894,-0.817949
1630415925376,-0.06161,-0.593042,-0.820938
1630415925386,-0.063806,-0.601094,-0.832284
1630415925395,-0.063379,-0.608231,-0.854488
1630415925405,-0.062098,-0.618418,-0.87169
1630415925415,-0.056242,-0.626287,-0.875045
1630415925424,-0.0549,-0.623542,-0.861076
1630415925434,-0.056669,-0.622871,-0.850279
1630415925443,-0.050508,-0.639524,-0.840092
1630415925453,-0.0305,-0.655018,-0.829539
1630415925463,-0.0046359999999999995,-0.682895,-0.821853
1630415925472,-0.000549,-0.691862,-0.810568
1630415925482,0.004575,-0.686982,-0.789462
1630415925491,0.011285,-0.705099,-0.789462
1630415925501,0.015493999999999999,-0.720532,-0.7872049999999999
1630415925511,0.027816,-0.756034,-0.777018
1630415925520,0.039589,-0.788852,-0.774395
1630415925530,0.060634,-0.80764,-0.752008
1630415925539,0.070882,-0.804285,-0.713456
1630415925549,0.07076,-0.79727,-0.6797839999999999
1630415925559,0.06770999999999999,-0.8060539999999999,-0.654164
1630415925568,0.06478199999999999,-0.8224629999999999,-0.640378
1630415925578,0.061793,-0.837347,-0.636169
1630415925587,0.059902,-0.846924,-0.628239
1630415925597,0.056059,-0.845399,-0.621895
1630415925607,0.048799999999999996,-0.83936,-0.616344
1630415925616,0.042517,-0.8300879999999999,-0.610061
1630415925626,0.034159999999999996,-0.818376,-0.601826
1630415925635,0.030744,-0.8002589999999999,-0.613355
1630415925645,0.030805,-0.793854,-0.61976
1630415925655,0.03538,-0.80093,-0.616344
1630415925664,0.035623999999999996,-0.812337,-0.6089019999999999
1630415925674,0.033306,-0.821426,-0.598898
1630415925683,0.031415,-0.82533,-0.590419
1630415925693,0.035258,-0.829112,-0.580232
1630415925703,0.038674,-0.831247,-0.571875
1630415925712,0.046055,-0.832467,-0.56303
1630415925722,0.050203,-0.8258179999999999,-0.563152
1630415925731,0.052337999999999996,-0.819108,-0.558638
1630415925741,0.053253,-0.816912,-0.545706
1630415925751,0.055022,-0.8106289999999999,-0.535824
1630415925760,0.05246,-0.809226,-0.534665
1630415925770,0.044957,-0.8103239999999999,-0.532957
1630415925779,0.037027,-0.802943,-0.528199
1630415925789,0.034953,-0.796477,-0.5176459999999999
1630415925799,0.030195,-0.793061,-0.518134
1630415925808,0.033428,-0.790072,-0.521428
1630415925818,0.039955,-0.788364,-0.523075
1630415925827,0.047519,-0.788364,-0.530212
1630415925837,0.055632,-0.787083,-0.526857
1630415925847,0.059962999999999995,-0.787632,-0.518622
1630415925856,0.066185,-0.791231,-0.506727
1630415925866,0.072163,-0.790133,-0.48922
1630415925875,0.07124799999999999,-0.77409,-0.472506
1630415925885,0.067527,-0.754448,-0.459818
1630415925895,0.07259,-0.754143,-0.455792
1630415925904,0.064904,-0.738588,-0.460001
1630415925914,0.059475,-0.721508,-0.47824
1630415925923,0.055876,-0.710406,-0.487634
1630415925933,0.050447,-0.697169,-0.490379
1630415925943,0.042334,-0.690215,-0.505141
1630415925952,0.041663,-0.6916789999999999,-0.52033
1630415925962,0.039223,-0.689971,-0.521062
1630415925971,0.038979,-0.683566,-0.514108
1630415925981,0.032513,-0.666974,-0.515084
1630415925991,0.019459,-0.641537,-0.542046
1630415926000,0.005307,-0.621468,-0.576206
1630415926010,-0.010431,-0.605425,-0.607133
1630415926019,-0.030255999999999998,-0.591761,-0.63989
1630415926029,-0.049471,-0.5848679999999999,-0.676917
1630415926039,-0.066124,-0.586576,-0.714737
1630415926048,-0.081862,-0.59231,-0.752862
1630415926058,-0.104554,-0.606096,-0.805505
1630415926067,-0.126758,-0.620614,-0.863638
1630415926077,-0.14219099999999998,-0.6399509999999999,-0.913963
1630415926087,-0.148169,-0.659349,-0.947574
1630415926096,-0.14682699999999999,-0.672037,-0.958676
1630415926106,-0.14005599999999999,-0.6834439999999999,-0.952637
1630415926115,-0.13298,-0.6928989999999999,-0.9472079999999999
1630415926125,-0.123891,-0.701866,-0.939949
1630415926135,-0.119743,-0.718214,-0.932202
1630415926144,-0.114924,-0.73749,-0.930738
1630415926154,-0.113704,-0.755485,-0.9189039999999999
1630415926163,-0.104798,-0.772382,-0.904508
1630415926173,-0.099796,-0.777079,-0.879742
1630415926183,-0.094733,-0.772992,-0.848815
1630415926192,-0.089548,-0.763659,-0.812337
1630415926202,-0.086315,-0.750361,-0.780922
1630415926211,-0.086559,-0.746396,-0.757193
1630415926221,-0.08497299999999999,-0.747494,-0.747555
1630415926231,-0.088389,-0.747677,-0.746274
1630415926240,-0.09943,-0.744749,-0.748897
1630415926250,-0.11114199999999999,-0.737246,-0.757803
1630415926259,-0.127368,-0.72712,-0.77409
1630415926269,-0.142374,-0.711504,-0.789401
1630415926279,-0.152134,-0.6898489999999999,-0.785802
1630415926288,-0.164456,-0.659593,-0.776957
1630415926298,-0.180011,-0.6332409999999999,-0.7801899999999999
1630415926307,-0.192699,-0.609878,-0.794525
1630415926317,-0.204045,-0.584441,-0.808677
1630415926327,-0.219905,-0.55815,-0.824781
1630415926336,-0.23460599999999998,-0.536678,-0.835456
1630415926346,-0.248697,-0.518805,-0.842593
1630415926355,-0.26169,-0.50752,-0.850401
1630415926365,-0.270291,-0.502213,-0.855708
1630415926375,-0.276696,-0.491599,-0.856806
1630415926384,-0.283406,-0.48531599999999997,-0.861686
1630415926394,-0.28243,-0.48312,-0.869982
1630415926403,-0.276147,-0.47763,-0.876753
1630415926413,-0.271206,-0.47214,-0.887794
1630415926423,-0.26779,-0.472201,-0.905728
1630415926432,-0.264008,-0.474397,-0.916525
1630415926442,-0.26126299999999997,-0.473421,-0.915732
1630415926451,-0.261202,-0.47336,-0.912621
1630415926461,-0.25912799999999997,-0.469822,-0.901702
1630415926471,-0.255834,-0.460733,-0.880169
1630415926480,-0.25315,-0.449509,-0.860283
1630415926490,-0.24766,-0.440847,-0.844972
1630415926499,-0.240096,-0.42889099999999997,-0.83509
1630415926509,-0.230397,-0.416386,-0.8264279999999999
1630415926519,-0.22265,-0.399733,-0.818132
1630415926528,-0.21899,-0.384605,-0.808067
1630415926538,-0.21899,-0.376309,-0.808616
1630415926547,-0.21984399999999998,-0.375455,-0.81557
1630415926557,-0.219722,-0.378505,-0.82533
1630415926567,-0.214659,-0.38186,-0.830149
1630415926576,-0.204289,-0.386496,-0.826245
1630415926586,-0.193492,-0.392901,-0.826001
1630415926595,-0.183854,-0.397354,-0.833931
1630415926605,-0.176778,-0.39711,-0.844911
1630415926615,-0.172203,-0.390949,-0.8553419999999999
1630415926624,-0.17208099999999998,-0.387289,-0.866566
1630415926634,-0.17793699999999998,-0.390278,-0.8830359999999999
1630415926643,-0.182939,-0.391498,-0.902068
1630415926653,-0.182695,-0.384117,-0.906338
1630415926663,-0.181658,-0.375211,-0.9037149999999999
1630415926672,-0.178974,-0.37033099999999997,-0.902861
1630415926682,-0.174216,-0.364597,-0.893406
1630415926691,-0.168848,-0.351177,-0.88511
1630415926701,-0.162077,-0.335073,-0.886757
1630415926711,-0.156221,-0.319457,-0.8951749999999999
1630415926720,-0.147864,-0.305732,-0.898774
1630415926730,-0.13663999999999998,-0.291275,-0.891698
1630415926739,-0.128771,-0.273829,-0.879803
1630415926749,-0.120658,-0.256505,-0.864065
1630415926759,-0.113338,-0.24034,-0.845338
1630415926768,-0.118828,-0.233874,-0.834419
1630415926778,-0.127795,-0.242231,-0.8296
1630415926787,-0.128893,-0.256322,-0.83082
1630415926797,-0.12322,-0.265289,-0.8174
1630415926807,-0.112972,-0.27511,-0.8042239999999999
1630415926816,-0.100345,-0.284748,-0.8033089999999999
1630415926826,-0.087474,-0.293532,-0.81313
1630415926835,-0.081313,-0.298168,-0.8297829999999999
1630415926845,-0.081313,-0.31781,-0.8596119999999999
1630415926855,-0.088938,-0.334829,-0.906582
1630415926864,-0.098942,-0.36173,-0.955321
1630415926874,-0.105957,-0.382531,-0.984784
1630415926883,-0.101992,-0.397049,-0.9998509999999999
1630415926893,-0.10553,-0.401014,-0.984784
1630415926903,-0.108946,-0.40272199999999997,-0.962641
1630415926912,-0.11315499999999999,-0.404491,-0.9563579999999999
1630415926922,-0.124501,-0.40668699999999997,-0.9749019999999999
1630415926931,-0.134139,-0.405955,-0.996984
1630415926941,-0.14518,-0.402905,-1.02297
1630415926951,-0.157502,-0.40760199999999996,-1.050664
1630415926960,-0.15359799999999998,-0.41687399999999997,-1.042734
1630415926970,-0.155794,-0.423828,-1.03578
1630415926979,-0.154574,-0.429562,-1.029436
1630415926989,-0.152866,-0.42151,-1.011502
1630415926999,-0.150243,-0.40241699999999997,-0.985516
1630415927008,-0.14579,-0.384849,-0.95587
1630415927018,-0.141703,-0.376187,-0.9304939999999999
1630415927027,-0.141764,-0.371734,-0.913414
1630415927037,-0.13847,-0.383324,-0.895114
1630415927047,-0.127124,-0.40394199999999997,-0.874557
1630415927056,-0.120841,-0.433222,-0.875533
1630415927066,-0.12132899999999999,-0.46006199999999997,-0.901458
1630415927075,-0.11651,-0.476227,-0.914268
1630415927085,-0.11547299999999999,-0.481595,-0.9122549999999999
1630415927095,-0.116327,-0.477996,-0.900726
1630415927104,-0.121695,-0.47031,-0.8906
1630415927114,-0.131638,-0.459635,-0.886025
1630415927123,-0.145607,-0.449753,-0.889319
1630415927133,-0.16067399999999998,-0.44243299999999997,-0.9018849999999999
1630415927143,-0.175558,-0.433344,-0.908412
1630415927152,-0.18409799999999998,-0.421144,-0.906033
1630415927162,-0.193004,-0.407846,-0.9067649999999999
1630415927171,-0.201239,-0.392962,-0.906948
1630415927181,-0.213439,-0.374052,-0.912926
1630415927191,-0.223809,-0.356545,-0.909022
1630415927200,-0.230885,-0.347517,-0.9101199999999999
1630415927210,-0.235216,-0.347822,-0.913841
1630415927219,-0.235033,-0.348676,-0.912804
1630415927229,-0.229055,-0.356362,-0.906521
1630415927239,-0.220576,-0.373076,-0.903593
1630415927248,-0.215086,-0.386862,-0.9076799999999999
1630415927258,-0.213134,-0.395158,-0.912194
1630415927267,-0.211792,-0.40363699999999997,-0.913841
1630415927277,-0.209901,-0.409554,-0.912133
1630415927287,-0.209474,-0.409493,-0.910913
1630415927296,-0.208681,-0.401929,-0.9021899999999999
1630415927306,-0.210267,-0.385703,-0.889746
1630415927315,-0.213805,-0.368562,-0.8790709999999999
1630415927325,-0.21551299999999998,-0.361486,-0.876204
1630415927335,-0.21490299999999998,-0.363194,-0.882243
1630415927344,-0.214354,-0.369172,-0.892735
1630415927354,-0.214659,-0.372466,-0.902373
1630415927363,-0.213805,-0.372527,-0.900482
1630415927373,-0.21368299999999998,-0.369477,-0.8963949999999999
1630415927383,-0.217221,-0.366183,-0.895602
1630415927392,-0.219478,-0.36356,-0.8973099999999999
1630415927402,-0.22265,-0.362645,-0.902312
1630415927411,-0.224602,-0.363011,-0.9067649999999999
1630415927421,-0.228628,-0.364414,-0.911096
1630415927431,-0.227347,-0.366183,-0.912499
1630415927440,-0.224541,-0.364414,-0.906704
1630415927450,-0.224114,-0.35739899999999997,-0.898042
1630415927459,-0.22228399999999998,-0.350994,-0.8951749999999999
1630415927469,-0.219051,-0.346846,-0.899323
1630415927479,-0.211975,-0.340929,-0.8888309999999999
1630415927488,-0.208193,-0.34019699999999997,-0.88572
1630415927498,-0.20557,-0.348005,-0.898652
1630415927507,-0.195932,-0.34892,-0.891637
1630415927517,-0.188612,-0.34599199999999997,-0.876692
1630415927527,-0.182512,-0.348188,-0.865163
1630415927536,-0.173545,-0.350384,-0.85339
1630415927546,-0.170007,-0.358436,-0.851621
1630415927555,-0.164517,-0.372344,-0.859795
1630415927565,-0.159515,-0.384422,-0.866261
1630415927575,-0.157258,-0.39466999999999997,-0.867603
1630415927584,-0.153781,-0.40443,-0.860039
1630415927594,-0.15207299999999999,-0.412055,-0.8529019999999999
1630415927603,-0.153232,-0.41839899999999997,-0.8547319999999999
1630415927613,-0.154757,-0.423035,-0.865407
1630415927623,-0.160552,-0.421937,-0.881938
1630415927632,-0.171105,-0.414556,-0.898896
1630415927642,-0.181414,-0.404613,-0.909693
1630415927651,-0.191601,-0.393267,-0.9131699999999999
1630415927661,-0.201178,-0.384422,-0.917501
1630415927671,-0.20965699999999998,-0.381555,-0.921832
1630415927680,-0.216245,-0.37960299999999997,-0.916708
1630415927690,-0.221613,-0.37960299999999997,-0.906704
1630415927699,-0.227469,-0.38356799999999996,-0.898774
1630415927709,-0.23094599999999998,-0.384849,-0.894016
1630415927719,-0.232959,-0.382592,-0.889258
1630415927728,-0.23424,-0.376187,-0.8830359999999999
1630415927738,-0.234179,-0.368928,-0.87169
1630415927747,-0.233325,-0.359717,-0.858758
1630415927757,-0.238754,-0.356911,-0.8541219999999999
1630415927767,-0.24204799999999999,-0.357887,-0.856989
1630415927776,-0.242231,-0.357765,-0.859124
1630415927786,-0.24448799999999998,-0.358558,-0.859734
1630415927795,-0.249978,-0.365878,-0.868457
1630415927805,-0.246745,-0.38003,-0.87047
1630415927815,-0.240584,-0.39497499999999997,-0.86193
1630415927824,-0.236741,-0.407541,-0.85949
1630415927834,-0.235948,-0.413885,-0.8608319999999999
1630415927843,-0.23649699999999999,-0.41968,-0.86193
1630415927853,-0.232837,-0.424133,-0.856928
1630415927863,-0.230214,-0.43602799999999997,-0.85522
1630415927872,-0.226554,-0.451278,-0.859856
1630415927882,-0.22356499999999999,-0.466101,-0.872605
1630415927891,-0.21838,-0.482754,-0.881999
1630415927901,-0.213134,-0.50081,-0.891393
1630415927911,-0.20679,-0.512156,-0.899262
1630415927920,-0.201422,-0.51789,-0.903776
1630415927930,-0.195566,-0.5188659999999999,-0.908168
1630415927939,-0.19337,-0.516365,-0.914939
1630415927949,-0.191418,-0.507886,-0.914573
1630415927959,-0.189893,-0.501542,-0.9185989999999999
1630415927968,-0.190442,-0.490074,-0.928786
1630415927978,-0.187758,-0.48129,-0.9372039999999999
1630415927987,-0.186355,-0.474702,-0.938973
1630415927997,-0.187514,-0.463295,-0.93452
1630415928007,-0.186477,-0.450424,-0.925736
1630415928016,-0.182329,-0.434137,-0.912743
1630415928026,-0.182329,-0.418155,-0.900482
1630415928035,-0.183732,-0.403454,-0.891881
1630415928045,-0.183244,-0.391132,-0.887489
1630415928055,-0.180377,-0.377895,-0.884988
1630415928064,-0.176168,-0.361486,-0.865529
1630415928074,-0.17873,-0.345748,-0.8547319999999999
1630415928083,-0.180133,-0.334951,-0.851926
1630415928093,-0.180499,-0.323178,-0.85278
1630415928103,-0.186172,-0.313906,-0.858026
1630415928112,-0.190625,-0.309514,-0.863638
1630415928122,-0.193736,-0.305244,-0.8638819999999999
1630415928131,-0.199104,-0.301523,-0.867542
1630415928141,-0.20136099999999998,-0.302377,-0.869372
1630415928151,-0.20374,-0.301828,-0.8702259999999999
1630415928160,-0.201483,-0.29609399999999997,-0.868396
1630415928170,-0.204594,-0.291824,-0.873764
1630415928179,-0.210755,-0.296216,-0.889685
1630415928189,-0.213622,-0.30561,-0.905728
1630415928199,-0.21862399999999999,-0.31585799999999997,-0.918233
1630415928208,-0.223138,-0.323727,-0.927322
1630415928218,-0.225456,-0.333304,-0.9272
1630415928227,-0.229543,-0.342088,-0.926285
1630415928237,-0.23155599999999998,-0.348798,-0.926468
1630415928247,-0.23430099999999998,-0.353678,-0.924943
1630415928256,-0.235277,-0.355691,-0.923235
1630415928266,-0.23668,-0.35563,-0.924943
1630415928275,-0.23924199999999998,-0.355386,-0.929518
1630415928285,-0.239974,-0.353922,-0.9265289999999999
1630415928295,-0.241926,-0.35136,-0.922198
1630415928304,-0.243085,-0.350628,-0.9207339999999999
1630415928314,-0.243939,-0.350628,-0.917623
1630415928323,-0.244366,-0.351665,-0.912743
1630415928333,-0.244,-0.35160399999999997,-0.908534
1630415928343,-0.24278,-0.35282399999999997,-0.9095099999999999
1630415928352,-0.242292,-0.353556,-0.9125599999999999
1630415928362,-0.239364,-0.355325,-0.916159
1630415928371,-0.23863199999999998,-0.35739899999999997,-0.914207
1630415928381,-0.237839,-0.355813,-0.909693
1630415928391,-0.236375,-0.355386,-0.906521
1630415928400,-0.235704,-0.348981,-0.906216
1630415928410,-0.235704,-0.341905,-0.906277
1630415928419,-0.233325,-0.33733,-0.905179
1630415928429,-0.233447,-0.331596,-0.904447
1630415928439,-0.23338599999999998,-0.326838,-0.902739
1630415928448,-0.23363,-0.324337,-0.903044
1630415928458,-0.231922,-0.323178,-0.902678
1630415928467,-0.231068,-0.32134799999999997,-0.899506
1630415928477,-0.230763,-0.318969,-0.899811
1630415928487,-0.229482,-0.318359,-0.901336
1630415928496,-0.228201,-0.316224,-0.900543
1630415928506,-0.22844499999999998,-0.314394,-0.897859
1630415928515,-0.230275,-0.312991,-0.901214
1630415928525,-0.232227,-0.316651,-0.9131699999999999
1630415928535,-0.232593,-0.31951799999999997,-0.924882
1630415928544,-0.233935,-0.322507,-0.929701
1630415928554,-0.232044,-0.325313,-0.930738
1630415928563,-0.22875,-0.326472,-0.931348
1630415928573,-0.22447999999999999,-0.328973,-0.929396
1630415928583,-0.223687,-0.328912,-0.925126
1630415928592,-0.222467,-0.328729,-0.9262239999999999
1630415928602,-0.223138,-0.331779,-0.9311039999999999
1630415928611,-0.221552,-0.334524,-0.936411
1630415928621,-0.218075,-0.337635,-0.941108
1630415928631,-0.216306,-0.340014,-0.937326
1630415928640,-0.215757,-0.33733,-0.930311
1630415928650,-0.215391,-0.334707,-0.924943
1630415928659,-0.214781,-0.331352,-0.918782
1630415928669,-0.213805,-0.327265,-0.905484
1630415928679,-0.21398799999999998,-0.325313,-0.896334
1630415928688,-0.214659,-0.324886,-0.904386
1630415928698,-0.21551299999999998,-0.325191,-0.916708
1630415928707,-0.21838,-0.324886,-0.927932
1630415928717,-0.221491,-0.325252,-0.938607
1630415928727,-0.225212,-0.324398,-0.939705
1630415928736,-0.229482,-0.317505,-0.934642
1630415928746,-0.231434,-0.313235,-0.928847
1630415928755,-0.226127,-0.312198,-0.930982
1630415928765,-0.220942,-0.316834,-0.933178
1630415928775,-0.216428,-0.322446,-0.935435
1630415928784,-0.21368299999999998,-0.332572,-0.943426
1630415928794,-0.20904699999999998,-0.34263699999999997,-0.950685
1630415928803,-0.207034,-0.350445,-0.94855
1630415928813,-0.205265,-0.35343399999999997,-0.939644
1630415928823,-0.204594,-0.349164,-0.930616
1630415928832,-0.20660699999999999,-0.345138,-0.928481
1630415928842,-0.210389,-0.342698,-0.935618
1630415928851,-0.212219,-0.336476,-0.94184
1630415928861,-0.212646,-0.328302,-0.939217
1630415928871,-0.216855,-0.320006,-0.934276
1630415928880,-0.220881,-0.315126,-0.930616
1630415928890,-0.22326,-0.311344,-0.927383
1630415928899,-0.226676,-0.308965,-0.9271389999999999
1630415928909,-0.227652,-0.311222,-0.925126
1630415928919,-0.22972599999999999,-0.314516,-0.925858
1630415928928,-0.229177,-0.314394,-0.920795
1630415928938,-0.226798,-0.310063,-0.913231
1630415928947,-0.22386999999999999,-0.305549,-0.9082899999999999
1630415928957,-0.222833,-0.300425,-0.900848
1630415928967,-0.224663,-0.295606,-0.892735
1630415928976,-0.22478499999999998,-0.292922,-0.893589
1630415928986,-0.22143,-0.28853,-0.891149
1630415928995,-0.221796,-0.27694,-0.88511
1630415929005,-0.222711,-0.270474,-0.884927
1630415929015,-0.22478499999999998,-0.267729,-0.8848659999999999
1630415929024,-0.228384,-0.27053499999999997,-0.887428
1630415929034,-0.228994,-0.2745,-0.891149
1630415929043,-0.226798,-0.279746,-0.892308
1630415929053,-0.226188,-0.284626,-0.888343
1630415929063,-0.223992,-0.288286,-0.881267
1630415929072,-0.22204,-0.29212899999999997,-0.8757159999999999
1630415929082,-0.217282,-0.294691,-0.870775
1630415929091,-0.216001,-0.29517899999999997,-0.867542
1630415929101,-0.217465,-0.29395899999999997,-0.867359
1630415929111,-0.219295,-0.292007,-0.869433
1630415929120,-0.223443,-0.287676,-0.872605
1630415929130,-0.226066,-0.282064,-0.8854759999999999
1630415929139,-0.227774,-0.28316199999999997,-0.903776
1630415929149,-0.226798,-0.288347,-0.913719
1630415929159,-0.225151,-0.295911,-0.916342
1630415929168,-0.21838,-0.304634,-0.915183
1630415929178,-0.21185299999999999,-0.311954,-0.910669
1630415929187,-0.20569199999999999,-0.31951799999999997,-0.905179
1630415929197,-0.202947,-0.326594,-0.897554
1630415929207,-0.200629,-0.331657,-0.899811
1630415929216,-0.199104,-0.339404,-0.902129
1630415929226,-0.197396,-0.344833,-0.903776
1630415929235,-0.195749,-0.348188,-0.904508
1630415929245,-0.194651,-0.35465399999999997,-0.910364
1630415929255,-0.192455,-0.365024,-0.915305
1630415929264,-0.190381,-0.377712,-0.919026
1630415929274,-0.185196,-0.38826499999999997,-0.9207339999999999
1630415929283,-0.183305,-0.39527999999999996,-0.919453
1630415929293,-0.180743,-0.402295,-0.91622
1630415929303,-0.180316,-0.407846,-0.9113399999999999
1630415929312,-0.179218,-0.412543,-0.902007
1630415929322,-0.17854699999999998,-0.415593,-0.8939549999999999
1630415929331,-0.17995,-0.41907,-0.8885259999999999
1630415929341,-0.180316,-0.419863,-0.8854759999999999
1630415929351,-0.180194,-0.423218,-0.884988
1630415929360,-0.17976699999999998,-0.425963,-0.885903
1630415929370,-0.17934,-0.429135,-0.884927
1630415929379,-0.180438,-0.432734,-0.8842559999999999
1630415929389,-0.180926,-0.433893,-0.882914
1630415929399,-0.180804,-0.434137,-0.8796809999999999
1630415929408,-0.182085,-0.43602799999999997,-0.878827
1630415929418,-0.18056,-0.435601,-0.877302
1630415929427,-0.183366,-0.433893,-0.875533
1630415929437,-0.185684,-0.432673,-0.873337
1630415929447,-0.188978,-0.431392,-0.872178
1630415929456,-0.190137,-0.43133099999999996,-0.872178
1630415929466,-0.191052,-0.43224599999999996,-0.871629
1630415929475,-0.191967,-0.43432,-0.875472
1630415929485,-0.192272,-0.43432,-0.877119
1630415929495,-0.193492,-0.430294,-0.876814
1630415929504,-0.195688,-0.426878,-0.879437
1630415929514,-0.197396,-0.425048,-0.881572
1630415929523,-0.199531,-0.422303,-0.885964
1630415929533,-0.199287,-0.41992399999999996,-0.885293
1630415929543,-0.199348,-0.418338,-0.883829
1630415929552,-0.198616,-0.420656,-0.883524
1630415929562,-0.195322,-0.422974,-0.8815109999999999
1630415929571,-0.192943,-0.42645099999999997,-0.881694
1630415929581,-0.191845,-0.428098,-0.879132
1630415929591,-0.188978,-0.431209,-0.8760209999999999
1630415929600,-0.185806,-0.43615,-0.878095
1630415929610,-0.183122,-0.44212799999999997,-0.87901
1630415929619,-0.180682,-0.444324,-0.876814
1630415929629,-0.178181,-0.445361,-0.878034
1630415929639,-0.177083,-0.445178,-0.881999
1630415929648,-0.1769,-0.443104,-0.882792
1630415929658,-0.175314,-0.44121299999999997,-0.882182
1630415929667,-0.174826,-0.43798,-0.881389
1630415929677,-0.176168,-0.433222,-0.88206
1630415929687,-0.176656,-0.430782,-0.88328
1630415929696,-0.176046,-0.429989,-0.8845
1630415929706,-0.175314,-0.43194099999999996,-0.885354
1630415929715,-0.174216,-0.433039,-0.88694
1630415929725,-0.172813,-0.433222,-0.887123
1630415929735,-0.169702,-0.434259,-0.885232
1630415929744,-0.16897,-0.435784,-0.881694
1630415929754,-0.167872,-0.434076,-0.87901
1630415929763,-0.167018,-0.434198,-0.878095
1630415929773,-0.168482,-0.432612,-0.877424
1630415929783,-0.171227,-0.431087,-0.88023
1630415929792,-0.17177599999999998,-0.428159,-0.878339
1630415929802,-0.16994599999999999,-0.428769,-0.877668
1630415929811,-0.1708,-0.430172,-0.8787659999999999
1630415929821,-0.17177599999999998,-0.432368,-0.8815109999999999
1630415929831,-0.17177599999999998,-0.43127,-0.880474
1630415929840,-0.173545,-0.42822,-0.879132
1630415929850,-0.176229,-0.424682,-0.878827
1630415929859,-0.17763199999999998,-0.424072,-0.875228
1630415929869,-0.179218,-0.422608,-0.871568
1630415929879,-0.180255,-0.422303,-0.869616
1630415929888,-0.180011,-0.421815,-0.870775
1630415929898,-0.18257299999999999,-0.422547,-0.8741909999999999
1630415929907,-0.184586,-0.421998,-0.876204
1630415929917,-0.185806,-0.421205,-0.876448
1630415929927,-0.186904,-0.418765,-0.875472
1630415929936,-0.186538,-0.41809399999999997,-0.8741909999999999
1630415929946,-0.187636,-0.414983,-0.87352
1630415929955,-0.189466,-0.41260399999999997,-0.8751059999999999
1630415929965,-0.190625,-0.410164,-0.875899
1630415929975,-0.194651,-0.40443,-0.8775459999999999
1630415929984,-0.19947,-0.39711,-0.879498
1630415929994,-0.202032,-0.390034,-0.881023
1630415930003,-0.204228,-0.383446,-0.882487
1630415930013,-0.204594,-0.37759,-0.883097
1630415930023,-0.20496,-0.370087,-0.8827309999999999
1630415930032,-0.204716,-0.366,-0.883829
1630415930042,-0.204472,-0.364658,-0.884317
1630415930051,-0.203984,-0.36783,-0.888709
1630415930061,-0.200568,-0.373198,-0.887977
1630415930071,-0.199104,-0.37881,-0.887367
1630415930080,-0.198189,-0.387777,-0.889624
1630415930090,-0.195444,-0.394792,-0.888099
1630415930099,-0.193736,-0.40077,-0.885293
1630415930109,-0.192089,-0.40668699999999997,-0.884988
1630415930119,-0.189832,-0.412726,-0.8876109999999999
1630415930128,-0.187514,-0.41839899999999997,-0.892308
1630415930138,-0.183732,-0.419436,-0.8939549999999999
1630415930147,-0.180987,-0.42029,-0.8954799999999999
1630415930157,-0.180072,-0.419863,-0.895541
1630415930167,-0.180072,-0.4209,-0.899018
1630415930176,-0.178913,-0.424499,-0.905301
1630415930186,-0.173789,-0.43188,-0.909327
1630415930195,-0.171105,-0.43798,-0.908534
1630415930205,-0.167872,-0.44334799999999996,-0.9064599999999999
1630415930215,-0.167323,-0.445178,-0.903471
1630415930224,-0.165798,-0.444019,-0.8991399999999999
1630415930234,-0.16683499999999998,-0.43968799999999997,-0.895358
1630415930243,-0.167384,-0.435906,-0.892064
1630415930253,-0.168909,-0.429989,-0.891332
1630415930263,-0.169275,-0.426634,-0.889746
1630415930272,-0.169458,-0.424682,-0.888587
1630415930282,-0.171532,-0.42614599999999997,-0.889502
1630415930291,-0.169519,-0.427305,-0.891088
1630415930301,-0.16958,-0.429379,-0.890478
1630415930311,-0.169763,-0.427244,-0.887367
1630415930320,-0.172264,-0.42584099999999997,-0.887794
1630415930330,-0.171837,-0.424133,-0.887367
1630415930339,-0.172874,-0.422547,-0.886879
1630415930349,-0.17269099999999998,-0.420351,-0.885964
1630415930359,-0.17568,-0.417362,-0.886452
1630415930368,-0.176656,-0.417728,-0.889929
1630415930378,-0.176168,-0.41717899999999997,-0.892003
1630415930387,-0.177571,-0.414495,-0.892979
1630415930397,-0.177144,-0.411872,-0.892796
1630415930407,-0.177571,-0.41138399999999997,-0.893833
1630415930416,-0.175009,-0.413092,-0.8948699999999999
1630415930426,-0.174704,-0.411628,-0.895114
1630415930435,-0.175497,-0.408517,-0.894077
1630415930445,-0.174948,-0.406931,-0.893223
1630415930455,-0.174582,-0.406931,-0.891088
1630415930464,-0.173728,-0.40638199999999997,-0.889502
1630415930474,-0.171959,-0.405955,-0.886513
1630415930483,-0.17202,-0.406748,-0.887428
1630415930493,-0.168421,-0.409066,-0.886635
1630415930503,-0.168299,-0.410408,-0.886635
1630415930512,-0.166164,-0.411811,-0.8860859999999999
1630415930522,-0.16500499999999999,-0.412238,-0.884622
1630415930531,-0.16622499999999998,-0.412421,-0.882914
1630415930541,-0.167384,-0.411811,-0.880962
1630415930551,-0.167872,-0.410896,-0.881938
1630415930560,-0.16897,-0.409859,-0.88389
1630415930570,-0.16958,-0.406565,-0.882548
1630415930579,-0.171288,-0.40363699999999997,-0.88206
1630415930589,-0.173484,-0.4026,-0.885964
1630415930599,-0.174277,-0.404064,-0.889258
1630415930608,-0.174277,-0.406565,-0.890539
1630415930618,-0.174521,-0.406199,-0.888465
1630415930627,-0.175192,-0.408761,-0.8888309999999999
1630415930637,-0.174826,-0.411201,-0.888099
1630415930647,-0.174704,-0.412238,-0.888953
1630415930656,-0.175192,-0.414983,-0.88938
1630415930666,-0.175375,-0.41358,-0.888892
1630415930675,-0.177754,-0.41473899999999997,-0.888709
1630415930685,-0.176839,-0.415166,-0.888404
1630415930695,-0.176778,-0.41656899999999997,-0.888343
1630415930704,-0.17751,-0.417301,-0.88877
1630415930714,-0.177815,-0.418033,-0.8870009999999999
1630415930723,-0.177754,-0.417911,-0.885964
1630415930733,-0.177815,-0.418887,-0.883585
1630415930743,-0.17793699999999998,-0.419436,-0.881267
1630415930752,-0.177571,-0.421998,-0.880962
1630415930762,-0.17915699999999998,-0.421815,-0.8799859999999999
1630415930771,-0.180194,-0.422364,-0.8802909999999999
1630415930781,-0.181414,-0.422913,-0.880718
1630415930791,-0.18117,-0.424499,-0.882609
1630415930800,-0.182817,-0.423279,-0.883585
1630415930810,-0.184952,-0.422547,-0.88328
1630415930819,-0.18562299999999998,-0.423157,-0.884073
1630415930829,-0.184586,-0.423767,-0.883768
1630415930839,-0.185867,-0.422547,-0.8824259999999999
1630415930848,-0.188978,-0.41961899999999996,-0.88145
1630415930858,-0.189832,-0.418338,-0.880047
1630415930867,-0.19086899999999998,-0.417545,-0.879864
1630415930877,-0.190381,-0.417606,-0.88084
1630415930887,-0.190625,-0.416508,-0.880169
1630415930896,-0.19032,-0.417606,-0.880657
1630415930906,-0.189588,-0.416996,-0.88145
1630415930915,-0.188917,-0.416447,-0.8815109999999999
1630415930925,-0.18873399999999999,-0.41809399999999997,-0.882182
1630415930935,-0.188612,-0.417545,-0.882243
1630415930944,-0.188795,-0.417118,-0.879803
1630415930954,-0.189161,-0.418033,-0.877424
1630415930963,-0.187758,-0.420107,-0.876692
1630415930973,-0.18727,-0.422547,-0.877607
1630415930983,-0.186355,-0.424377,-0.878217
1630415930992,-0.18531799999999998,-0.42706099999999997,-0.877424
1630415931002,-0.185074,-0.42828099999999997,-0.87657
1630415931011,-0.18440299999999998,-0.429745,-0.878339
1630415931021,-0.182817,-0.43072099999999997,-0.8775459999999999
1630415931031,-0.184647,-0.429623,-0.873947
1630415931040,-0.186294,-0.429135,-0.8729709999999999
1630415931050,-0.186416,-0.430477,-0.876204
1630415931059,-0.18727,-0.432429,-0.8778509999999999
1630415931069,-0.187026,-0.433344,-0.8787659999999999
1630415931079,-0.186233,-0.434442,-0.879925
1630415931088,-0.18483,-0.43615,-0.879925
1630415931098,-0.185867,-0.43737,-0.88084
1630415931107,-0.18544,-0.43907799999999997,-0.8790709999999999
1630415931117,-0.183732,-0.440725,-0.87779
1630415931127,-0.182512,-0.442555,-0.87657
1630415931136,-0.180926,-0.444507,-0.876509
1630415931146,-0.180255,-0.443165,-0.877058
1630415931155,-0.17946199999999998,-0.441701,-0.876509
1630415931165,-0.17946199999999998,-0.441274,-0.875472
1630415931175,-0.178486,-0.44121299999999997,-0.8741909999999999
1630415931184,-0.1769,-0.43968799999999997,-0.87413
1630415931194,-0.176168,-0.43907799999999997,-0.872239
1630415931203,-0.174948,-0.44029799999999997,-0.871385
1630415931213,-0.174338,-0.442006,-0.872544
1630415931223,-0.174399,-0.442982,-0.872178
1630415931232,-0.173728,-0.444751,-0.870897
1630415931242,-0.172935,-0.445117,-0.870165
1630415931251,-0.17330099999999998,-0.44652,-0.870104
1630415931261,-0.173362,-0.448716,-0.870592
1630415931271,-0.172264,-0.449509,-0.8714459999999999
1630415931280,-0.172508,-0.449631,-0.8705309999999999
1630415931290,-0.171105,-0.451217,-0.86986
1630415931299,-0.171959,-0.451766,-0.869982
1630415931309,-0.172752,-0.451034,-0.870104
1630415931319,-0.173057,-0.451766,-0.869433
1630415931328,-0.17330099999999998,-0.452376,-0.869738
1630415931338,-0.172813,-0.452742,-0.869128
1630415931347,-0.173362,-0.452803,-0.867359
1630415931357,-0.17385,-0.452742,-0.869677
1630415931367,-0.172813,-0.451827,-0.868945
1630415931376,-0.17116599999999998,-0.451278,-0.868884
1630415931386,-0.17202,-0.450058,-0.868274
1630415931395,-0.172508,-0.450424,-0.869494
1630415931405,-0.17116599999999998,-0.451827,-0.868457
1630415931415,-0.171288,-0.452498,-0.869128
1630415931424,-0.170312,-0.454328,-0.869494
1630415931434,-0.170434,-0.455426,-0.868091
1630415931443,-0.16994599999999999,-0.455548,-0.868152
1630415931453,-0.168482,-0.456768,-0.86742
1630415931463,-0.167994,-0.457317,-0.866078
1630415931472,-0.167628,-0.457683,-0.865468
1630415931482,-0.167323,-0.457622,-0.863821
1630415931491,-0.16622499999999998,-0.458476,-0.865285
1630415931501,-0.166896,-0.460794,-0.866261
1630415931511,-0.167018,-0.461648,-0.86559
1630415931520,-0.166286,-0.462075,-0.864858
1630415931530,-0.166347,-0.463966,-0.865834
1630415931539,-0.167567,-0.463905,-0.86742
1630415931549,-0.166408,-0.464515,-0.866383
1630415931559,-0.166896,-0.46463699999999997,-0.866139
1630415931568,-0.165859,-0.463783,-0.866017
1630415931578,-0.167079,-0.46402699999999997,-0.865285
1630415931587,-0.166469,-0.464698,-0.865468
1630415931597,-0.167018,-0.46341699999999997,-0.864675
1630415931607,-0.166469,-0.463905,-0.864614
1630415931616,-0.165554,-0.46372199999999997,-0.864004
1630415931626,-0.166042,-0.46311199999999997,-0.863638
1630415931635,-0.16500499999999999,-0.462624,-0.86315
1630415931645,-0.165066,-0.463356,-0.861991
1630415931655,-0.165493,-0.462868,-0.8626619999999999
1630415931664,-0.164944,-0.463783,-0.8623569999999999
1630415931674,-0.165554,-0.46543,-0.863394
1630415931683,-0.165493,-0.46604,-0.863943
1630415931693,-0.164883,-0.466894,-0.86315
1630415931703,-0.165554,-0.46604,-0.862418
1630415931712,-0.165981,-0.464698,-0.861625
1630415931722,-0.164822,-0.46585699999999997,-0.861869
1630415931731,-0.165493,-0.465186,-0.861991
1630415931741,-0.164578,-0.465369,-0.861015
1630415931751,-0.16561499999999998,-0.466345,-0.861808
1630415931760,-0.164029,-0.468846,-0.86193
1630415931770,-0.163785,-0.469273,-0.862601
1630415931779,-0.163175,-0.469761,-0.86254
1630415931789,-0.163663,-0.469883,-0.859856
1630415931799,-0.166164,-0.46768699999999996,-0.858331
1630415931808,-0.168177,-0.46677199999999996,-0.8596119999999999
1630415931818,-0.168421,-0.467504,-0.862845
1630415931827,-0.167567,-0.466528,-0.863516
1630415931837,-0.168604,-0.468175,-0.864919
1630415931847,-0.167567,-0.4697,-0.865834
1630415931856,-0.166957,-0.470127,-0.866444
1630415931866,-0.168116,-0.470493,-0.86559
1630415931875,-0.16713999999999998,-0.470798,-0.864065
1630415931885,-0.167079,-0.470493,-0.863821
1630415931895,-0.166286,-0.47092,-0.862845
1630415931904,-0.164334,-0.470981,-0.8623569999999999
1630415931914,-0.161894,-0.470249,-0.863699
1630415931923,-0.162016,-0.47031,-0.862784
1630415931933,-0.16104,-0.471103,-0.8623569999999999
1630415931943,-0.160613,-0.471713,-0.863089
1630415931952,-0.16006399999999998,-0.472933,-0.862174
1630415931962,-0.158905,-0.47336,-0.861808
1630415931971,-0.15921,-0.474397,-0.860893
1630415931981,-0.158783,-0.474153,-0.860588
1630415931991,-0.15914899999999998,-0.47397,-0.858514
1630415932000,-0.158661,-0.472201,-0.856928
1630415932010,-0.158783,-0.471042,-0.8571719999999999
1630415932019,-0.16006399999999998,-0.470493,-0.8580869999999999
1630415932029,-0.160125,-0.47116399999999997,-0.8599169999999999
1630415932039,-0.160918,-0.473726,-0.85949
1630415932048,-0.160613,-0.473787,-0.858026
1630415932058,-0.162626,-0.473787,-0.859368
1630415932067,-0.163297,-0.472506,-0.860893
1630415932077,-0.165127,-0.47146899999999997,-0.861076
1630415932087,-0.165554,-0.470676,-0.859978
1630415932096,-0.16652999999999998,-0.469273,-0.860405
1630415932106,-0.167201,-0.466711,-0.860039
1630415932115,-0.167872,-0.463844,-0.860771
1630415932125,-0.168604,-0.463356,-0.861808
1630415932135,-0.169336,-0.462319,-0.862479
1630415932144,-0.168848,-0.462258,-0.864736
1630415932154,-0.16897,-0.463051,-0.864309
1630415932163,-0.168543,-0.46341699999999997,-0.864614
1630415932173,-0.169397,-0.46421,-0.863638
1630415932183,-0.16713999999999998,-0.465308,-0.86315
1630415932192,-0.166896,-0.467199,-0.86193
1630415932202,-0.16652999999999998,-0.467138,-0.86193
1630415932211,-0.166042,-0.468663,-0.861869
1630415932221,-0.165127,-0.471103,-0.861259
1630415932231,-0.164883,-0.472201,-0.862113
1630415932240,-0.164029,-0.47214,-0.8620519999999999
1630415932250,-0.164029,-0.47329899999999997,-0.861869
1630415932259,-0.163297,-0.47458,-0.862418
1630415932269,-0.163358,-0.47519,-0.861015
1630415932279,-0.162687,-0.47702,-0.860954
1630415932288,-0.162077,-0.477142,-0.860771
1630415932298,-0.162016,-0.476288,-0.860893
1630415932307,-0.162443,-0.47458,-0.861686
1630415932317,-0.16226,-0.474092,-0.859734
1630415932327,-0.163175,-0.472262,-0.862174
1630415932336,-0.163114,-0.47146899999999997,-0.862906
1630415932346,-0.163602,-0.469456,-0.8620519999999999
1630415932355,-0.163419,-0.46921199999999996,-0.861869
1630415932365,-0.163846,-0.466406,-0.862235
1630415932375,-0.163175,-0.466223,-0.863089
1630415932384,-0.163663,-0.464454,-0.862601
1630415932394,-0.162748,-0.464698,-0.862418
1630415932403,-0.163297,-0.462624,-0.862784
1630415932413,-0.163846,-0.46189199999999997,-0.862113
1630415932423,-0.163053,-0.461221,-0.861381
1630415932432,-0.162992,-0.460794,-0.861076
1630415932442,-0.163785,-0.46116,-0.861198
1630415932451,-0.163358,-0.461221,-0.862296
1630415932461,-0.162443,-0.46036699999999997,-0.8626619999999999
1630415932471,-0.163602,-0.46158699999999997,-0.863394
1630415932480,-0.162748,-0.46280699999999997,-0.862906
1630415932490,-0.162382,-0.46311199999999997,-0.863394
1630415932499,-0.162809,-0.464454,-0.864309
1630415932509,-0.162687,-0.464759,-0.8647969999999999
1630415932519,-0.163053,-0.464088,-0.86376
1630415932528,-0.162077,-0.462563,-0.86437
1630415932538,-0.162626,-0.462319,-0.865163
1630415932547,-0.162809,-0.4636,-0.865407
1630415932557,-0.163236,-0.464088,-0.865834
1630415932567,-0.163236,-0.46341699999999997,-0.864675
1630415932576,-0.164517,-0.46177,-0.863516
1630415932586,-0.166042,-0.46219699999999997,-0.86376
1630415932595,-0.166164,-0.463661,-0.867176
1630415932605,-0.164761,-0.46726,-0.869189
1630415932615,-0.16439499999999999,-0.469578,-0.870104
1630415932624,-0.164273,-0.471347,-0.869006
1630415932634,-0.164273,-0.47390899999999997,-0.868884
1630415932643,-0.16439499999999999,-0.473482,-0.86742
1630415932653,-0.164822,-0.473665,-0.866017
1630415932663,-0.164578,-0.47360399999999997,-0.8644919999999999
1630415932672,-0.164456,-0.472201,-0.863516
1630415932682,-0.163602,-0.47146899999999997,-0.863333
1630415932691,-0.16348,-0.47092,-0.863821
1630415932701,-0.161467,-0.471103,-0.8641869999999999
1630415932711,-0.161528,-0.470676,-0.86376
1630415932720,-0.159698,-0.470798,-0.8617469999999999
1630415932730,-0.158722,-0.470676,-0.861015
1630415932739,-0.1586,-0.47092,-0.860771
1630415932749,-0.157014,-0.471225,-0.8593069999999999
1630415932759,-0.158173,-0.472323,-0.859246
1630415932768,-0.158112,-0.472506,-0.858819
1630415932778,-0.158112,-0.472201,-0.858148
1630415932787,-0.158722,-0.47146899999999997,-0.8580869999999999
1630415932797,-0.159332,-0.470005,-0.858026
1630415932807,-0.160308,-0.468724,-0.859734
1630415932816,-0.160308,-0.466955,-0.857416
1630415932826,-0.16226,-0.463783,-0.857355
1630415932835,-0.16348,-0.462624,-0.858575
1630415932845,-0.163175,-0.4636,-0.8602219999999999
1630415932855,-0.163236,-0.46555199999999997,-0.860405
1630415932864,-0.162382,-0.467016,-0.859856
1630415932874,-0.162504,-0.46799199999999996,-0.859978
1630415932883,-0.16287,-0.46787,-0.8601
1630415932893,-0.163358,-0.467565,-0.859856
1630415932903,-0.164029,-0.467199,-0.861198
1630415932912,-0.164761,-0.466833,-0.861686
1630415932922,-0.164334,-0.467016,-0.86071
1630415932931,-0.164212,-0.467565,-0.860466
1630415932941,-0.163358,-0.469029,-0.8602219999999999
1630415932951,-0.162565,-0.469334,-0.861198
1630415932960,-0.16097899999999998,-0.470981,-0.8586969999999999
1630415932970,-0.159881,-0.47153,-0.8590019999999999
1630415932979,-0.159576,-0.472262,-0.859124
1630415932989,-0.15853899999999999,-0.473055,-0.8580869999999999
1630415932999,-0.158478,-0.473482,-0.858514
1630415933008,-0.157807,-0.475617,-0.857111
1630415933018,-0.157197,-0.47695899999999997,-0.859429
1630415933027,-0.157624,-0.479216,-0.8599169999999999
1630415933037,-0.15792899999999999,-0.480985,-0.8605269999999999
1630415933047,-0.15853899999999999,-0.48129,-0.8608319999999999
1630415933056,-0.158112,-0.482327,-0.861869
1630415933066,-0.158112,-0.482144,-0.8620519999999999
1630415933075,-0.1586,-0.480436,-0.861808
1630415933085,-0.158417,-0.479948,-0.861686
1630415933095,-0.15921,-0.477203,-0.861869
1630415933104,-0.159698,-0.47665399999999997,-0.861808
1630415933114,-0.158722,-0.476166,-0.861991
1630415933123,-0.158112,-0.47604399999999997,-0.861076
1630415933133,-0.158966,-0.476288,-0.860954
1630415933143,-0.159576,-0.475373,-0.86193
1630415933152,-0.157258,-0.476288,-0.86132
1630415933162,-0.15738,-0.477386,-0.860893
1630415933171,-0.157319,-0.477508,-0.8608319999999999
1630415933181,-0.157319,-0.47848399999999996,-0.86193
1630415933191,-0.156282,-0.478728,-0.859734
1630415933200,-0.156587,-0.478911,-0.859856
1630415933210,-0.15555,-0.478545,-0.858026
1630415933219,-0.155306,-0.47848399999999996,-0.859185
1630415933229,-0.154635,-0.47939899999999996,-0.859551
1630415933239,-0.15555,-0.47885,-0.859124
1630415933248,-0.15433,-0.47817899999999997,-0.858453
1630415933258,-0.15420799999999998,-0.47756899999999997,-0.858575
1630415933267,-0.155062,-0.477752,-0.8586969999999999
1630415933277,-0.15372,-0.47848399999999996,-0.858453
1630415933287,-0.153476,-0.47817899999999997,-0.8580869999999999
1630415933296,-0.1525,-0.477142,-0.858819
1630415933306,-0.15207299999999999,-0.476776,-0.8596119999999999
1630415933315,-0.151341,-0.47604399999999997,-0.858453
1630415933325,-0.151463,-0.47519,-0.859795
1630415933335,-0.151646,-0.47421399999999997,-0.859795
1630415933344,-0.152439,-0.472628,-0.858331
1630415933354,-0.15237799999999999,-0.471652,-0.8559519999999999
1630415933363,-0.152866,-0.470127,-0.857233
1630415933373,-0.152927,-0.469822,-0.8605269999999999
1630415933383,-0.151585,-0.471103,-0.862784
1630415933392,-0.151219,-0.473482,-0.863394
1630415933402,-0.151829,-0.474946,-0.864126
1630415933411,-0.149938,-0.475922,-0.863699
1630415933421,-0.149511,-0.475373,-0.862479
1630415933431,-0.15006,-0.47519,-0.862601
1630415933440,-0.14926699999999998,-0.47543399999999997,-0.860893
1630415933450,-0.148413,-0.474763,-0.859795
1630415933459,-0.145546,-0.474153,-0.860161
1630415933469,-0.144448,-0.47543399999999997,-0.859978
1630415933479,-0.142862,-0.476227,-0.8596119999999999
1630415933488,-0.141459,-0.476898,-0.858758
1630415933498,-0.141947,-0.479338,-0.8577819999999999
1630415933507,-0.139629,-0.481534,-0.8571719999999999
1630415933517,-0.139202,-0.482998,-0.8550369999999999
1630415933527,-0.138592,-0.485072,-0.853695
1630415933536,-0.13908,-0.485987,-0.854244
1630415933546,-0.140422,-0.48592599999999997,-0.8535119999999999
1630415933555,-0.141032,-0.487329,-0.852841
1630415933565,-0.141703,-0.489159,-0.853329
1630415933575,-0.143472,-0.490623,-0.85522
1630415933584,-0.142984,-0.49202599999999996,-0.855464
1630415933594,-0.144936,-0.491843,-0.853329
1630415933603,-0.146644,-0.490257,-0.855098
1630415933613,-0.14835199999999998,-0.491843,-0.856684
1630415933623,-0.148413,-0.490745,-0.856928
1630415933632,-0.151219,-0.489464,-0.855891
1630415933642,-0.152134,-0.487695,-0.8541219999999999
1630415933651,-0.154086,-0.48592599999999997,-0.8550369999999999
1630415933661,-0.154574,-0.485133,-0.8565619999999999
1630415933671,-0.15555,-0.483242,-0.857904
1630415933680,-0.155428,-0.481778,-0.858819
1630415933690,-0.155672,-0.48122899999999996,-0.85888
1630415933699,-0.156099,-0.479338,-0.8580869999999999
1630415933709,-0.156587,-0.47885,-0.8583919999999999
1630415933719,-0.155794,-0.479155,-0.85827
1630415933728,-0.155306,-0.47885,-0.857111
1630415933738,-0.155062,-0.479277,-0.857294
1630415933747,-0.154086,-0.48068,-0.85705
1630415933757,-0.15311,-0.479887,-0.856074
1630415933767,-0.1525,-0.481351,-0.855159
1630415933776,-0.151646,-0.481351,-0.85644
1630415933786,-0.151768,-0.482815,-0.856989
1630415933795,-0.15006,-0.48318099999999997,-0.858148
1630415933805,-0.149206,-0.483547,-0.85827
1630415933815,-0.14896199999999998,-0.48434,-0.8577819999999999
1630415933824,-0.148596,-0.48470599999999997,-0.855891
1630415933834,-0.147681,-0.484645,-0.85644
1630415933843,-0.14682699999999999,-0.485438,-0.856989
1630415933853,-0.145851,-0.486048,-0.85766
1630415933863,-0.145485,-0.48653599999999997,-0.856501
1630415933872,-0.145058,-0.487085,-0.85461
1630415933882,-0.14396,-0.487024,-0.853268
1630415933891,-0.143045,-0.487634,-0.852658
1630415933901,-0.143533,-0.488,-0.8529019999999999
1630415933911,-0.143228,-0.487329,-0.85278
1630415933920,-0.142984,-0.487024,-0.8535119999999999
1630415933930,-0.14335,-0.486658,-0.85339
1630415933939,-0.144082,-0.485438,-0.853634
1630415933949,-0.146095,-0.484279,-0.851743
1630415933959,-0.14652199999999999,-0.484157,-0.849913
1630415933968,-0.148291,-0.484523,-0.848205
1630415933978,-0.149633,-0.488122,-0.847778
1630415933987,-0.150914,-0.489403,-0.849303
1630415933997,-0.152866,-0.490074,-0.8510719999999999
1630415934007,-0.153476,-0.49044,-0.852475
1630415934016,-0.15512299999999998,-0.490684,-0.852231
1630415934026,-0.156038,-0.490745,-0.852475
1630415934035,-0.157319,-0.490745,-0.851438
1630415934045,-0.158417,-0.489403,-0.8510719999999999
1630415934055,-0.160308,-0.489342,-0.850645
1630415934064,-0.16104,-0.48714599999999997,-0.851194
1630415934074,-0.162199,-0.488244,-0.85339
1630415934083,-0.163541,-0.488427,-0.854488
1630415934093,-0.163602,-0.488122,-0.857416
1630415934103,-0.164822,-0.487268,-0.854
1630415934112,-0.166774,-0.483059,-0.8492419999999999
1630415934122,-0.168604,-0.482205,-0.847534
1630415934131,-0.169641,-0.480131,-0.849303
1630415934141,-0.170007,-0.47787399999999997,-0.854488
1630415934151,-0.171837,-0.478118,-0.859978
1630415934160,-0.171898,-0.477935,-0.8647969999999999
1630415934170,-0.171715,-0.478667,-0.868884
1630415934179,-0.171837,-0.481046,-0.867725
1630415934189,-0.169824,-0.482754,-0.864065
1630415934199,-0.165432,-0.48434,-0.8599169999999999
1630415934208,-0.162809,-0.485438,-0.855586
1630415934218,-0.159515,-0.484279,-0.85217
1630415934227,-0.155794,-0.484035,-0.8507669999999999
1630415934237,-0.15311,-0.482998,-0.850889
1630415934247,-0.1525,-0.484767,-0.8504619999999999
1630415934256,-0.151097,-0.48556,-0.849425
1630415934266,-0.149816,-0.48739,-0.848388
1630415934275,-0.14926699999999998,-0.489525,-0.849425
1630415934285,-0.148413,-0.492392,-0.848998
1630415934295,-0.147864,-0.494466,-0.848144
1630415934304,-0.14835199999999998,-0.496784,-0.847656
1630415934314,-0.147925,-0.497455,-0.847534
1630415934323,-0.149938,-0.498126,-0.847961
1630415934333,-0.149694,-0.498797,-0.84912
1630415934343,-0.149511,-0.499346,-0.850279
1630415934352,-0.149572,-0.49837,-0.848571
1630415934362,-0.151219,-0.49672299999999997,-0.847839
1630415934371,-0.153049,-0.494954,-0.849913
1630415934381,-0.1525,-0.495564,-0.850645
1630415934391,-0.152927,-0.494466,-0.851255
1630415934400,-0.15433,-0.495442,-0.850096
1630415934410,-0.15481799999999998,-0.493795,-0.85095
1630415934419,-0.153659,-0.49233099999999996,-0.850218
1630415934429,-0.154696,-0.49233099999999996,-0.8510719999999999
1630415934439,-0.153842,-0.49324599999999996,-0.850035
1630415934448,-0.15420799999999998,-0.492453,-0.848083
1630415934458,-0.154696,-0.492392,-0.847351
1630415934467,-0.154452,-0.49458799999999997,-0.847656
1630415934477,-0.154086,-0.49519799999999997,-0.848083
1630415934487,-0.154269,-0.495076,-0.847595
1630415934496,-0.153659,-0.495686,-0.846375
1630415934506,-0.153415,-0.496784,-0.845033
1630415934515,-0.153415,-0.497516,-0.845155
1630415934525,-0.15298799999999999,-0.49959,-0.843874
1630415934535,-0.153781,-0.499346,-0.844972
1630415934544,-0.154452,-0.49977299999999997,-0.844789
1630415934554,-0.154452,-0.5002,-0.846924
1630415934563,-0.155367,-0.499834,-0.845765
1630415934573,-0.155977,-0.500627,-0.845765
1630415934583,-0.157258,-0.500871,-0.846619
1630415934592,-0.157136,-0.498614,-0.847229
1630415934602,-0.15738,-0.49641799999999997,-0.849913
1630415934611,-0.158173,-0.493795,-0.853268
1630415934621,-0.158478,-0.491599,-0.854976
1630415934631,-0.159027,-0.48989099999999997,-0.856501
1630415934640,-0.158417,-0.491172,-0.859246
1630415934650,-0.15738,-0.494161,-0.85888
1630415934659,-0.15853899999999999,-0.496662,-0.850523
1630415934669,-0.159576,-0.49885799999999997,-0.842532
1630415934679,-0.160003,-0.501603,-0.8371029999999999
1630415934688,-0.159942,-0.5063,-0.8337479999999999
1630415934698,-0.158905,-0.508435,-0.8331379999999999
1630415934707,-0.158722,-0.509411,-0.8357
1630415934717,-0.156892,-0.510814,-0.839055
1630415934727,-0.155672,-0.51118,-0.840946
1630415934736,-0.15616,-0.512278,-0.84119
1630415934746,-0.158356,-0.512095,-0.839909
1630415934755,-0.159881,-0.512095,-0.838384
1630415934765,-0.160552,-0.5124609999999999,-0.8386279999999999
1630415934775,-0.16006399999999998,-0.5130709999999999,-0.835944
1630415934784,-0.161101,-0.513864,-0.8349679999999999
1630415934794,-0.16165,-0.515328,-0.835944
1630415934803,-0.162565,-0.5170359999999999,-0.835761
1630415934813,-0.161894,-0.518988,-0.834114
1630415934823,-0.163175,-0.519598,-0.834907
1630415934832,-0.162809,-0.520452,-0.835822
1630415934842,-0.163907,-0.521062,-0.8343579999999999
1630415934851,-0.165249,-0.5188659999999999,-0.83265
1630415934861,-0.167262,-0.516365,-0.8337479999999999
1630415934871,-0.168177,-0.51484,-0.836981
1630415934880,-0.170312,-0.512278,-0.839116
1630415934890,-0.170983,-0.510814,-0.840214
1630415934899,-0.171593,-0.509716,-0.837591
1630415934909,-0.173789,-0.508984,-0.837835
1630415934919,-0.175863,-0.508557,-0.837652
1630415934928,-0.17610699999999999,-0.507764,-0.838079
1630415934938,-0.177388,-0.506239,-0.83875
1630415934947,-0.177205,-0.505873,-0.841312
1630415934957,-0.176168,-0.503738,-0.843508
1630415934967,-0.176046,-0.50081,-0.844667
1630415934976,-0.176534,-0.5002,-0.84424
1630415934986,-0.17732699999999998,-0.5002,-0.843264
1630415934995,-0.17702199999999998,-0.500322,-0.842532
1630415935005,-0.176046,-0.50142,-0.8407629999999999
1630415935015,-0.17568,-0.502213,-0.838567
1630415935024,-0.173545,-0.505629,-0.837225
1630415935034,-0.172569,-0.507947,-0.835151
1630415935043,-0.170739,-0.510021,-0.8367979999999999
1630415935053,-0.168604,-0.513498,-0.837286
1630415935063,-0.167994,-0.514108,-0.837347
1630415935072,-0.166896,-0.5145959999999999,-0.83875
1630415935082,-0.166713,-0.515023,-0.837652
1630415935091,-0.166103,-0.514352,-0.834846
1630415935101,-0.166347,-0.514047,-0.836432
1630415935111,-0.166347,-0.514108,-0.8395429999999999
1630415935120,-0.165127,-0.514474,-0.83875
1630415935130,-0.164822,-0.5145959999999999,-0.838445
1630415935139,-0.166713,-0.51362,-0.836554
1630415935149,-0.166591,-0.511424,-0.837835
1630415935159,-0.167506,-0.51057,-0.839726
1630415935168,-0.166652,-0.509472,-0.841251
1630415935178,-0.167689,-0.508069,-0.842105
1630415935187,-0.16897,-0.505934,-0.8418
1630415935197,-0.170007,-0.504714,-0.842105
1630415935207,-0.170739,-0.503982,-0.841922
1630415935216,-0.170373,-0.502701,-0.842471
1630415935226,-0.169763,-0.502579,-0.842532
1630415935235,-0.170007,-0.501725,-0.84241
1630415935245,-0.169885,-0.501664,-0.842593
1630415935255,-0.169397,-0.501176,-0.841678
1630415935264,-0.169702,-0.501969,-0.841129
1630415935274,-0.168482,-0.503372,-0.840885
1630415935283,-0.167384,-0.50508,-0.838994
1630415935293,-0.16652999999999998,-0.506056,-0.838689
1630415935303,-0.16652999999999998,-0.506239,-0.839909
1630415935312,-0.166286,-0.506849,-0.840275
1630415935322,-0.165859,-0.50691,-0.840092
1630415935331,-0.16683499999999998,-0.506178,-0.840397
1630415935341,-0.16652999999999998,-0.504653,-0.840336
1630415935351,-0.167689,-0.504531,-0.840336
1630415935360,-0.167994,-0.503128,-0.8407629999999999
1630415935370,-0.168421,-0.502701,-0.840519
1630415935379,-0.167628,-0.501054,-0.840031
1630415935389,-0.167628,-0.501298,-0.83875
1630415935399,-0.167018,-0.50142,-0.839177
1630415935408,-0.166347,-0.501237,-0.8386279999999999
1630415935418,-0.166347,-0.50142,-0.839604
1630415935427,-0.165798,-0.501725,-0.839299
1630415935437,-0.16561499999999998,-0.501603,-0.840702
1630415935447,-0.166652,-0.50142,-0.841007
1630415935456,-0.167079,-0.501176,-0.841068
1630415935466,-0.167262,-0.501054,-0.840397
1630415935475,-0.167628,-0.501603,-0.840641
1630415935485,-0.167933,-0.502091,-0.84119
1630415935495,-0.167384,-0.502274,-0.84119
1630415935504,-0.167628,-0.502945,-0.841068
1630415935514,-0.167933,-0.504226,-0.840641
1630415935523,-0.16775,-0.504226,-0.840275
1630415935533,-0.16775,-0.50569,-0.840946
1630415935543,-0.167384,-0.506117,-0.842227
1630415935552,-0.167811,-0.506727,-0.841434
1630415935562,-0.16897,-0.5063,-0.8398479999999999
1630415935571,-0.17019,-0.5063,-0.838567
1630415935581,-0.170434,-0.505263,-0.841312
1630415935591,-0.170983,-0.506483,-0.843142
1630415935600,-0.170617,-0.508435,-0.843081
1630415935610,-0.170068,-0.508862,-0.842471
1630415935619,-0.17202,-0.508862,-0.842349
1630415935629,-0.171105,-0.508008,-0.840946
1630415935639,-0.1708,-0.508252,-0.841617
1630415935648,-0.169885,-0.509289,-0.840946
1630415935658,-0.17019,-0.508191,-0.840946
1630415935667,-0.168116,-0.507886,-0.841678
1630415935677,-0.16775,-0.507093,-0.841922
1630415935687,-0.166896,-0.50569,-0.841922
1630415935696,-0.16775,-0.504287,-0.841007
1630415935706,-0.167567,-0.50386,-0.838567
1630415935715,-0.166469,-0.505019,-0.8386279999999999
1630415935725,-0.165188,-0.505751,-0.837835
1630415935735,-0.165737,-0.506544,-0.837652
1630415935744,-0.16439499999999999,-0.506178,-0.837652
1630415935754,-0.164944,-0.507215,-0.838079
1630415935763,-0.164456,-0.507459,-0.8374079999999999
1630415935773,-0.16561499999999998,-0.506422,-0.837225
1630415935783,-0.165554,-0.506056,-0.83753
1630415935792,-0.166408,-0.505751,-0.839604
1630415935802,-0.166286,-0.506239,-0.839116
