timestamp,ax,ay,az
1630416483811,-0.003111,-0.18226799999999999,0.9816119999999999
1630416483820,-0.002745,-0.18178,0.981063
1630416483830,-0.000366,-0.180743,0.978074
1630416483840,0.0006709999999999999,-0.179523,0.976183
1630416483849,0.002257,-0.178181,0.972279
1630416483859,0.0028669999999999998,-0.177815,0.969168
1630416483868,0.003965,-0.175741,0.966728
1630416483878,0.0055509999999999995,-0.17116599999999998,0.964166
1630416483888,0.00488,-0.167384,0.960811
1630416483897,0.0042699999999999995,-0.162687,0.957456
1630416483907,0.004575,-0.160125,0.954711
1630416483916,0.003721,-0.157502,0.953735
1630416483926,0.0035989999999999998,-0.15420799999999998,0.954162
1630416483936,0.0046359999999999995,-0.151402,0.95648
1630416483945,0.003843,-0.14945,0.9594079999999999
1630416483955,0.005307,-0.15433,0.959347
1630416483964,0.00549,-0.15945399999999998,0.96014
1630416483974,0.0055509999999999995,-0.164883,0.959957
1630416483984,0.00488,-0.170678,0.959835
1630416483993,0.003965,-0.174155,0.961055
1630416484003,0.002562,-0.178181,0.963678
1630416484012,0.001403,-0.180743,0.968009
1630416484022,0.0008539999999999999,-0.181536,0.971608
1630416484032,-0.001281,-0.185806,0.973011
1630416484041,-0.003477,-0.191113,0.973438
1630416484051,-0.0044529999999999995,-0.196481,0.975756
1630416484060,-0.006344,-0.200873,0.9797819999999999
1630416484070,-0.008539999999999999,-0.205326,0.980514
1630416484080,-0.011712,-0.20904699999999998,0.97905
1630416484089,-0.017141,-0.211731,0.979233
1630416484099,-0.020862,-0.212524,0.981246
1630416484108,-0.025863999999999998,-0.210999,0.984906
1630415911992,-0.053191999999999996,-0.104798,0.984906
1630415912001,-0.053801999999999996,-0.10614,0.982893
1630415912011,-0.054717,-0.107116,0.981429
1630415912020,-0.054168,-0.107787,0.981246
1630415912030,-0.05429,-0.107238,0.9816119999999999
1630415912040,-0.05368,-0.106262,0.981551
1630415912049,-0.053436,-0.106567,0.983076
1630415912059,-0.052948,-0.105652,0.9821
1630415912068,-0.05368,-0.103578,0.982954
1630415912078,-0.05307,-0.103578,0.981551
1630415912088,-0.053924,-0.104188,0.981368
1630415912097,-0.053314,-0.103334,0.980209
1630415912107,-0.052094,-0.103578,0.980148
1630415912116,-0.052032999999999996,-0.103334,0.980636
1630415912126,-0.051362,-0.10126,0.980819
1630415912136,-0.05185,-0.099369,0.980209
1630415912145,-0.051301,-0.098393,0.9810019999999999
1630415912155,-0.05063,-0.09881999999999999,0.98027
1630415912164,-0.052765,-0.099369,0.978745
1630415912174,-0.052032999999999996,-0.099125,0.977769
1630415912184,-0.052643,-0.100162,0.9782569999999999
1630415912193,-0.052216,-0.10004,0.977586
1630415912203,-0.052094,-0.100284,0.97844
1630415912212,-0.052032999999999996,-0.099674,0.979233
1630415912222,-0.052277,-0.10004,0.981063
1630415912232,-0.053619,-0.10022299999999999,0.981978
1630415912241,-0.053375,-0.10083299999999999,0.981856
1630415912251,-0.054412,-0.100284,0.982344
1630415912260,-0.05368,-0.09991799999999999,0.9821
1630415912270,-0.054839,-0.100284,0.980026
1630415912280,-0.055388,-0.10004,0.980758
1630415912289,-0.054046,-0.098942,0.980514
1630415912299,-0.053619,-0.100589,0.981368
1630415912308,-0.053801999999999996,-0.101077,0.9810019999999999
1630415912318,-0.053558,-0.100711,0.982039
1630415912328,-0.053801999999999996,-0.10144299999999999,0.981551
1630415912337,-0.053924,-0.10144299999999999,0.981368
1630415912347,-0.054351,-0.099308,0.980209
1630415912356,-0.052399,-0.10113799999999999,0.981063
1630415912366,-0.052643,-0.10174799999999999,0.981429
1630415912376,-0.053131,-0.102297,0.981124
1630415912385,-0.052826,-0.103578,0.981124
1630415912395,-0.05307,-0.105835,0.980941
1630415912404,-0.053496999999999996,-0.10553,0.982771
1630415912414,-0.052216,-0.10607899999999999,0.983381
1630415912424,-0.051911,-0.106506,0.984906
1630415912433,-0.050873999999999996,-0.106567,0.983808
1630415912443,-0.051422999999999996,-0.105164,0.983625
1630415912452,-0.051179,-0.105652,0.984235
1630415912462,-0.051545,-0.105896,0.984601
1630415912472,-0.051118,-0.106567,0.9834419999999999
1630415912481,-0.050935,-0.10577399999999999,0.982893
1630415912491,-0.050142,-0.10675,0.9825269999999999
1630415912500,-0.049654,-0.105225,0.981856
1630415912510,-0.048434,-0.104798,0.9819169999999999
1630415912520,-0.047640999999999996,-0.104432,0.98088
1630415912529,-0.046909,-0.103944,0.980026
1630415912539,-0.046848,-0.10315099999999999,0.980453
1630415912548,-0.045933,-0.10309,0.9810019999999999
1630415912558,-0.045994,-0.102785,0.980819
1630415912568,-0.044712999999999996,-0.10248,0.980209
1630415912577,-0.04392,-0.100772,0.980453
1630415912587,-0.044896,-0.099613,0.9813069999999999
1630415912596,-0.046421,-0.098393,0.979355
1630415912606,-0.045018,-0.097051,0.979233
1630415912616,-0.044652,-0.093757,0.98088
1630415912625,-0.045689,-0.092232,0.980819
1630415912635,-0.046482,-0.092537,0.980148
1630415912644,-0.047458,-0.094245,0.97722
1630415912654,-0.047640999999999996,-0.096319,0.976305
1630415912664,-0.046238,-0.09577,0.9767319999999999
1630415912673,-0.044652,-0.097661,0.9776469999999999
1630415912683,-0.043615,-0.096807,0.981246
1630415912692,-0.043188,-0.09759999999999999,0.9828319999999999
1630415912702,-0.043554,-0.099674,0.983076
1630415912712,-0.043737,-0.10083299999999999,0.983564
1630415912721,-0.044652,-0.102663,0.9825269999999999
1630415912731,-0.044225,-0.104005,0.982466
1630415912740,-0.042822,-0.103944,0.982588
1630415912750,-0.042334,-0.103822,0.9840519999999999
1630415912760,-0.043127,-0.102968,0.98454
1630415912769,-0.043676,-0.102297,0.984723
1630415912779,-0.044225,-0.101504,0.983564
1630415912788,-0.044164,-0.100284,0.9819169999999999
1630415912798,-0.044102999999999996,-0.098393,0.980758
1630415912808,-0.044712999999999996,-0.097478,0.979904
1630415912817,-0.044164,-0.096441,0.979416
1630415912827,-0.04453,-0.095831,0.979538
1630415912836,-0.044042,-0.094245,0.98088
1630415912846,-0.045079,-0.091622,0.9821
1630415912856,-0.046482,-0.090707,0.9816119999999999
1630415912865,-0.045079,-0.091195,0.9806969999999999
1630415912875,-0.04453,-0.091988,0.98027
1630415912884,-0.044225,-0.092171,0.979721
1630415912894,-0.044469,-0.093635,0.980026
1630415912904,-0.04453,-0.092476,0.9791719999999999
1630415912913,-0.044102999999999996,-0.092293,0.978074
1630415912923,-0.043371,-0.09211,0.977281
1630415912932,-0.043127,-0.09272,0.97722
1630415912942,-0.043127,-0.093208,0.9764269999999999
1630415912952,-0.042943999999999996,-0.093757,0.9770369999999999
1630415912961,-0.041541,-0.095465,0.978501
1630415912971,-0.040626,-0.096502,0.980026
1630415912980,-0.040992,-0.098027,0.983686
1630415912990,-0.039467,-0.10065,0.984113
1630415913000,-0.038003,-0.102785,0.9849669999999999
1630415913009,-0.037149,-0.102907,0.986614
1630415913019,-0.036356,-0.103822,0.986675
1630415913028,-0.036356,-0.104005,0.985089
1630415913038,-0.035441,-0.103517,0.984723
1630415913048,-0.034038,-0.10187,0.983808
1630415913057,-0.034221,-0.101565,0.982466
1630415913067,-0.033916,-0.102663,0.980941
1630415913076,-0.031842,-0.102724,0.9810019999999999
1630415913086,-0.031171,-0.102907,0.9822219999999999
1630415913096,-0.031415,-0.10431,0.983503
1630415913105,-0.031049,-0.105347,0.98393
1630415913115,-0.030255999999999998,-0.10467599999999999,0.983869
1630415913124,-0.030439,-0.105347,0.983198
1630415913134,-0.030805,-0.104249,0.98332
1630415913144,-0.030866,-0.103822,0.983564
1630415913153,-0.032452,-0.103395,0.982893
1630415913163,-0.031842,-0.103578,0.982344
1630415913172,-0.033489,-0.102114,0.9825269999999999
1630415913182,-0.034038,-0.100894,0.981856
1630415913192,-0.034404,-0.100162,0.982283
1630415913201,-0.035502,-0.098637,0.981673
1630415913211,-0.036112,-0.097417,0.9821
1630415913220,-0.038186,-0.096319,0.981978
1630415913230,-0.038979,-0.095404,0.982588
1630415913240,-0.040626,-0.094428,0.982161
1630415913249,-0.041784999999999996,-0.093879,0.9797819999999999
1630415913259,-0.041724,-0.092171,0.9806969999999999
1630415913268,-0.043066,-0.089914,0.9822219999999999
1630415913278,-0.042943999999999996,-0.089548,0.982649
1630415913288,-0.042943999999999996,-0.08942599999999999,0.981063
1630415913297,-0.042578,-0.088389,0.981551
1630415913307,-0.043188,-0.087779,0.981856
1630415913316,-0.042822,-0.087962,0.9819169999999999
1630415913326,-0.042943999999999996,-0.08588799999999999,0.982039
1630415913336,-0.041907,-0.084912,0.9822219999999999
1630415913345,-0.042943999999999996,-0.084912,0.982039
1630415913355,-0.042822,-0.088328,0.978196
1630415913364,-0.042395,-0.090097,0.97539
1630415913374,-0.04209,-0.091378,0.975634
1630415913384,-0.041419,-0.091622,0.977098
1630415913393,-0.041541,-0.091927,0.9791719999999999
1630415913403,-0.041114,-0.09174399999999999,0.9810019999999999
1630415913412,-0.041053,-0.093391,0.981978
1630415913422,-0.041541,-0.094184,0.982405
1630415913432,-0.041541,-0.096868,0.9834419999999999
1630415913441,-0.041968,-0.097722,0.982954
1630415913451,-0.041907,-0.09881999999999999,0.983503
1630415913460,-0.041602,-0.10052799999999999,0.9837469999999999
1630415913470,-0.04209,-0.099979,0.9846619999999999
1630415913480,-0.041419,-0.10052799999999999,0.985211
1630415913489,-0.041479999999999996,-0.10004,0.986614
1630415913499,-0.042151,-0.099186,0.9871019999999999
1630415913508,-0.042761,-0.098637,0.987468
1630415913518,-0.042883,-0.096258,0.986553
1630415913528,-0.042578,-0.095526,0.986309
1630415913537,-0.043005,-0.095343,0.985516
1630415913547,-0.042822,-0.095343,0.983564
1630415913556,-0.043676,-0.094855,0.98271
1630415913566,-0.043127,-0.093391,0.9816119999999999
1630415913576,-0.04453,-0.091683,0.9822219999999999
1630415913585,-0.045079,-0.090219,0.982405
1630415913595,-0.045079,-0.090097,0.982344
1630415913604,-0.044652,-0.088877,0.9819169999999999
1630415913614,-0.045384,-0.08820599999999999,0.981673
1630415913624,-0.046299,-0.087657,0.981124
1630415913633,-0.046848,-0.087108,0.979965
1630415913643,-0.045994,-0.08784,0.9797819999999999
1630415913652,-0.046299,-0.086132,0.98088
1630415913662,-0.046482,-0.086925,0.98088
1630415913672,-0.046787,-0.08649799999999999,0.980331
1630415913681,-0.047458,-0.087657,0.980148
1630415913691,-0.047458,-0.087474,0.9813069999999999
1630415913700,-0.04697,-0.087169,0.981551
1630415913710,-0.047824,-0.08601,0.982161
1630415913720,-0.047153,-0.085766,0.9822219999999999
1630415913729,-0.04819,-0.085766,0.981368
1630415913739,-0.048068,-0.08601,0.981856
1630415913748,-0.047275,-0.085949,0.982588
1630415913758,-0.047640999999999996,-0.085766,0.981124
1630415913768,-0.047519,-0.08649799999999999,0.979721
1630415913777,-0.046726,-0.086925,0.9806969999999999
1630415913787,-0.045689,-0.08790099999999999,0.981246
1630415913796,-0.045079,-0.088572,0.981063
1630415913806,-0.045018,-0.088633,0.981673
1630415913816,-0.044957,-0.089365,0.9822219999999999
1630415913825,-0.045871999999999996,-0.090036,0.982039
1630415913835,-0.04514,-0.090524,0.98332
1630415913844,-0.044347,-0.090219,0.983015
1630415913854,-0.044835,-0.09113399999999999,0.982771
1630415913864,-0.04514,-0.091195,0.982893
1630415913873,-0.04575,-0.091012,0.982588
1630415913883,-0.046116,-0.090768,0.9843569999999999
1630415913892,-0.045811,-0.090463,0.984601
1630415913902,-0.046238,-0.090646,0.984235
1630415913912,-0.045994,-0.091805,0.983198
1630415913921,-0.046787,-0.09174399999999999,0.982954
1630415913931,-0.048312,-0.0915,0.9821
1630415913940,-0.047945999999999996,-0.09113399999999999,0.982771
1630415913950,-0.048556,-0.090036,0.982344
1630415913960,-0.048678,-0.08912099999999999,0.9821
1630415913969,-0.050203,-0.088633,0.981673
1630415913979,-0.049409999999999996,-0.086986,0.9806969999999999
1630415913988,-0.049958999999999996,-0.086071,0.9797819999999999
1630415913998,-0.050203,-0.085217,0.980026
1630415914008,-0.049166,-0.084607,0.979294
1630415914017,-0.049409999999999996,-0.085827,0.980941
1630415914027,-0.049288,-0.085034,0.982954
1630415914036,-0.049288,-0.083997,0.983991
1630415914046,-0.048312,-0.085522,0.982893
1630415914056,-0.046909,-0.085034,0.983564
1630415914065,-0.047092,-0.08356999999999999,0.9834419999999999
1630415914075,-0.04697,-0.08558299999999999,0.982466
1630415914084,-0.046238,-0.088938,0.980331
1630415914094,-0.045566999999999996,-0.089609,0.980209
1630415914104,-0.04514,-0.090646,0.9806969999999999
1630415914113,-0.045323,-0.09143899999999999,0.98088
1630415914123,-0.045871999999999996,-0.091073,0.981673
1630415914132,-0.045506,-0.091195,0.981795
1630415914142,-0.044591,-0.091927,0.982588
1630415914152,-0.045566999999999996,-0.093574,0.982954
1630415914161,-0.044774,-0.095709,0.983686
1630415914171,-0.045871999999999996,-0.097783,0.9828319999999999
1630415914180,-0.044896,-0.098454,0.9834419999999999
1630415914190,-0.044225,-0.098881,0.9831369999999999
1630415914200,-0.04392,-0.099857,0.984174
1630415914209,-0.04392,-0.098332,0.9843569999999999
1630415914219,-0.04514,-0.098088,0.984174
1630415914228,-0.046421,-0.096624,0.9840519999999999
1630415914238,-0.046421,-0.095099,0.983564
1630415914248,-0.045933,-0.093391,0.9837469999999999
1630415914257,-0.045933,-0.092476,0.983076
1630415914267,-0.046238,-0.091866,0.982588
1630415914276,-0.046848,-0.09272,0.9813069999999999
1630415914286,-0.046055,-0.092842,0.981185
1630415914296,-0.046116,-0.092232,0.9803919999999999
1630415914305,-0.045933,-0.091073,0.9791719999999999
1630415914315,-0.046604,-0.090463,0.978318
1630415914324,-0.045445,-0.089304,0.978928
1630415914334,-0.046482,-0.08912099999999999,0.978684
1630415914344,-0.046909,-0.090524,0.9797819999999999
1630415914353,-0.047030999999999996,-0.09272,0.982588
1630415914363,-0.04636,-0.09406199999999999,0.9840519999999999
1630415914372,-0.046543,-0.094916,0.984601
1630415914382,-0.046055,-0.09577,0.985028
1630415914392,-0.044652,-0.096258,0.985638
1630415914401,-0.045201,-0.096502,0.98576
1630415914411,-0.045262,-0.097112,0.984296
1630415914420,-0.044896,-0.096502,0.981978
1630415914430,-0.045811,-0.095831,0.980453
1630415914440,-0.046909,-0.095404,0.98027
1630415914449,-0.046665,-0.093147,0.980453
1630415914459,-0.04575,-0.093391,0.980758
1630415914468,-0.047397,-0.092232,0.98271
1630415914478,-0.046238,-0.090402,0.9837469999999999
1630415914488,-0.045566999999999996,-0.090341,0.984296
1630415914497,-0.04575,-0.08942599999999999,0.984906
1630415914507,-0.045262,-0.089487,0.98332
1630415914516,-0.044591,-0.091195,0.981734
1630415914526,-0.044407999999999996,-0.09235399999999999,0.980758
1630415914536,-0.044286,-0.091378,0.981246
1630415914545,-0.044164,-0.089792,0.980941
1630415914555,-0.044164,-0.088694,0.980758
1630415914564,-0.044712999999999996,-0.087474,0.982039
1630415914574,-0.044286,-0.087535,0.982283
1630415914584,-0.044286,-0.088267,0.983625
1630415914593,-0.043981,-0.08912099999999999,0.9837469999999999
1630415914603,-0.04331,-0.090829,0.98393
1630415914612,-0.043737,-0.09113399999999999,0.984601
1630415914622,-0.043066,-0.091317,0.984784
1630415914632,-0.042517,-0.091988,0.9840519999999999
1630415914641,-0.041968,-0.092232,0.981795
1630415914651,-0.042212,-0.092598,0.980636
1630415914660,-0.04331,-0.09204899999999999,0.980026
1630415914670,-0.043737,-0.091805,0.979538
1630415914680,-0.043188,-0.091683,0.979599
1630415914689,-0.044042,-0.090829,0.980026
1630415914699,-0.043676,-0.09235399999999999,0.981124
1630415914708,-0.044712999999999996,-0.091561,0.982283
1630415914718,-0.044042,-0.09204899999999999,0.984296
1630415914728,-0.04392,-0.092171,0.9849669999999999
1630415914737,-0.044652,-0.091561,0.985028
1630415914747,-0.044591,-0.093086,0.984906
1630415914756,-0.043493,-0.09436699999999999,0.982893
1630415914766,-0.043493,-0.093696,0.9816119999999999
1630415914776,-0.044407999999999996,-0.093269,0.98271
1630415914785,-0.045323,-0.093574,0.981734
1630415914795,-0.044469,-0.092964,0.9822219999999999
1630415914804,-0.04514,-0.091317,0.982954
1630415914814,-0.04697,-0.093208,0.982649
1630415914824,-0.048494999999999996,-0.096563,0.981795
1630415914833,-0.048494999999999996,-0.10113799999999999,0.9803919999999999
1630415914843,-0.049044,-0.10345599999999999,0.9810019999999999
1630415914852,-0.049532,-0.103029,0.983015
1630415914862,-0.049958999999999996,-0.099857,0.986126
1630415914872,-0.052216,-0.093757,0.987041
1630415914881,-0.054412,-0.092293,0.9864919999999999
1630415914891,-0.058804,-0.090341,0.98454
1630415914900,-0.060146,-0.08881599999999999,0.984418
1630415914910,-0.060268,-0.088023,0.986248
1630415914920,-0.060695,-0.085156,0.988932
1630415914929,-0.05978,-0.083326,0.992165
1630415914939,-0.05856,-0.084241,0.991555
1630415914948,-0.058255,-0.084485,0.98942
1630415914958,-0.056913,-0.083082,0.987285
1630415914968,-0.053375,-0.081374,0.986065
1630415914977,-0.050691,-0.077836,0.986614
1630415914987,-0.048799999999999996,-0.074908,0.985089
1630415914996,-0.047640999999999996,-0.072529,0.982588
1630415915006,-0.043432,-0.074054,0.981429
1630415915016,-0.041297,-0.077958,0.979538
1630415915025,-0.037332,-0.081679,0.977586
1630415915035,-0.03477,-0.087169,0.975756
1630415915044,-0.032452,-0.09235399999999999,0.9736819999999999
1630415915054,-0.03172,-0.096563,0.973255
1630415915064,-0.028914,-0.099125,0.974353
1630415915073,-0.027999,-0.097478,0.977891
1630415915083,-0.024399999999999998,-0.093391,0.9806969999999999
1630415915092,-0.023851,-0.09113399999999999,0.983259
1630415915102,-0.022631,-0.094245,0.984174
1630415915112,-0.022997,-0.099491,0.981978
1630415915121,-0.022448,-0.10498099999999999,0.9800869999999999
1630415915131,-0.021716,-0.105225,0.9782569999999999
1630415915140,-0.021777,-0.102419,0.978379
1630415915150,-0.022143,-0.10004,0.979416
1630415915160,-0.020618,-0.097783,0.9779519999999999
1630415915169,-0.020069,-0.095404,0.977586
1630415915179,-0.018971,-0.09272,0.9785619999999999
1630415915188,-0.018361,-0.090768,0.978135
1630415915198,-0.018543999999999998,-0.094611,0.97905
1630415915208,-0.019154,-0.096746,0.979294
1630415915217,-0.019886,-0.098088,0.979904
1630415915227,-0.019886,-0.097722,0.981246
1630415915236,-0.020435,-0.09820999999999999,0.981978
1630415915246,-0.020069,-0.099247,0.983015
1630415915256,-0.02013,-0.09943,0.98393
1630415915265,-0.021106,-0.10065,0.9849669999999999
1630415915275,-0.021899,-0.099796,0.9858819999999999
1630415915284,-0.024034,-0.098637,0.986248
1630415915294,-0.024339,-0.095526,0.9871019999999999
1630415915304,-0.025498,-0.09211,0.986675
1630415915313,-0.026474,-0.08851099999999999,0.9858819999999999
1630415915323,-0.027206,-0.084729,0.986858
1630415915332,-0.026718,-0.083204,0.988688
1630415915342,-0.026535,-0.084546,0.988749
1630415915352,-0.025925,-0.087718,0.989603
1630415915361,-0.025376,-0.093208,0.987956
1630415915371,-0.025315,-0.098027,0.98698
1630415915380,-0.025376,-0.098637,0.987956
1630415915390,-0.025681,-0.09881999999999999,0.9894809999999999
1630415915400,-0.027511,-0.096502,0.989908
1630415915409,-0.028182,-0.095099,0.9897859999999999
1630415915419,-0.028548,-0.093391,0.98942
1630415915428,-0.028182,-0.093513,0.988688
1630415915438,-0.027694,-0.094428,0.9867969999999999
1630415915448,-0.027755,-0.094855,0.984296
1630415915457,-0.026535,-0.092842,0.983564
1630415915467,-0.027145,-0.086986,0.9828319999999999
1630415915476,-0.027511,-0.079788,0.983869
1630415915486,-0.028059999999999998,-0.073688,0.981856
1630415915496,-0.028182,-0.067344,0.979965
1630415915505,-0.026718,-0.062403,0.9800869999999999
1630415915515,-0.02684,-0.06039,0.9791719999999999
1630415915524,-0.027267,-0.061793,0.978806
1630415915534,-0.027145,-0.061121999999999996,0.976854
1630415915544,-0.026718,-0.060756,0.977464
1630415915553,-0.028731,-0.061671,0.976976
1630415915563,-0.030255999999999998,-0.064294,0.976
1630415915572,-0.030866,-0.067771,0.975329
1630415915582,-0.0305,-0.069784,0.976244
1630415915592,-0.030134,-0.070394,0.9779519999999999
1630415915601,-0.030378,-0.071431,0.9813069999999999
1630415915611,-0.029951,-0.072285,0.982771
1630415915620,-0.030439,-0.075701,0.983198
1630415915630,-0.030622,-0.079971,0.9828319999999999
1630415915640,-0.030744,-0.086071,0.981185
1630415915649,-0.030927,-0.090768,0.979599
1630415915659,-0.031781,-0.096014,0.9788669999999999
1630415915668,-0.032025,-0.099369,0.9785619999999999
1630415915678,-0.031842,-0.097966,0.9800869999999999
1630415915688,-0.032513,-0.096502,0.983198
1630415915697,-0.033306,-0.09436699999999999,0.98698
1630415915707,-0.033001,-0.091378,0.98942
1630415915716,-0.031476,-0.08942599999999999,0.991189
1630415915726,-0.030805,-0.087962,0.991494
1630415915736,-0.029951,-0.08680299999999999,0.990518
1630415915745,-0.028731,-0.086254,0.989054
1630415915755,-0.027877,-0.085644,0.987224
1630415915764,-0.026535,-0.084668,0.984296
1630415915774,-0.024766,-0.08265499999999999,0.981734
1630415915784,-0.023119,-0.081252,0.9810019999999999
1630415915793,-0.02257,-0.08113,0.979599
1630415915803,-0.021655,-0.08204499999999999,0.978074
1630415915812,-0.021106,-0.083509,0.975939
1630415915822,-0.019398,-0.084851,0.9752069999999999
1630415915832,-0.019215,-0.08723,0.974475
1630415915841,-0.017995,-0.089304,0.9749019999999999
1630415915851,-0.016714,-0.090768,0.9755119999999999
1630415915860,-0.015433,-0.09406199999999999,0.976305
1630415915870,-0.015006,-0.095099,0.97661
1630415915880,-0.015799,-0.097478,0.9767319999999999
1630415915889,-0.016653,-0.099674,0.976549
1630415915899,-0.016409,-0.102297,0.97783
1630415915908,-0.017629,-0.103822,0.979843
1630415915918,-0.01769,-0.107726,0.982161
1630415915928,-0.018605,-0.10992199999999999,0.984479
1630415915937,-0.019093,-0.111203,0.987529
1630415915947,-0.019337,-0.111447,0.989298
1630415915956,-0.021228,-0.111569,0.98881
1630415915966,-0.02257,-0.109251,0.9888709999999999
1630415915976,-0.024278,-0.108153,0.987956
1630415915985,-0.026413,-0.106445,0.986919
1630415915995,-0.028426,-0.10498099999999999,0.986309
1630415916004,-0.029096999999999998,-0.10315099999999999,0.9837469999999999
1630415916014,-0.031232,-0.10187,0.981124
1630415916024,-0.032818,-0.101687,0.983015
1630415916033,-0.033549999999999996,-0.101382,0.98393
1630415916043,-0.034099,-0.10309,0.985089
1630415916052,-0.034465,-0.102785,0.985943
1630415916062,-0.035807,-0.103395,0.9867969999999999
1630415916072,-0.035502,-0.10248,0.987041
1630415916081,-0.036661,-0.103822,0.986309
1630415916091,-0.03721,-0.10345599999999999,0.98698
1630415916100,-0.037515,-0.10174799999999999,0.986736
1630415916110,-0.038735,-0.100711,0.986126
1630415916120,-0.039284,-0.098149,0.986126
1630415916129,-0.039528,-0.097844,0.985638
1630415916139,-0.03843,-0.097051,0.984235
1630415916148,-0.037881,-0.095526,0.983381
1630415916158,-0.037271,-0.094184,0.983015
1630415916168,-0.036478,-0.093086,0.983259
1630415916177,-0.034221,-0.093452,0.9816119999999999
1630415916187,-0.032085999999999996,-0.096075,0.980758
1630415916196,-0.031354,-0.099064,0.9797819999999999
1630415916206,-0.030255999999999998,-0.101382,0.981551
1630415916216,-0.029828999999999998,-0.10309,0.9816119999999999
1630415916225,-0.028791999999999998,-0.103944,0.979538
1630415916235,-0.027023,-0.10406599999999999,0.98027
1630415916244,-0.028791999999999998,-0.101565,0.982893
1630415916254,-0.029219,-0.101382,0.98271
1630415916264,-0.029341,-0.098332,0.9831369999999999
1630415916273,-0.027206,-0.09698999999999999,0.9837469999999999
1630415916283,-0.027389,-0.096258,0.9828319999999999
1630415916292,-0.029036,-0.096685,0.9806969999999999
1630415916302,-0.029341,-0.097844,0.977586
1630415916312,-0.029219,-0.098271,0.975756
1630415916321,-0.029402,-0.099369,0.975939
1630415916331,-0.028853,-0.099247,0.97783
1630415916340,-0.028426,-0.100101,0.980636
1630415916350,-0.028426,-0.098942,0.982771
1630415916360,-0.028853,-0.099552,0.984174
1630415916369,-0.030134,-0.10052799999999999,0.983869
1630415916379,-0.03172,-0.10187,0.983076
1630415916388,-0.032269,-0.10187,0.984418
1630415916398,-0.03294,-0.102236,0.985516
1630415916408,-0.033549999999999996,-0.10065,0.987041
1630415916417,-0.033123,-0.100101,0.987651
1630415916427,-0.033672,-0.100345,0.98698
1630415916436,-0.033794,-0.101016,0.98576
1630415916446,-0.033184,-0.101382,0.9840519999999999
1630415916456,-0.033123,-0.100589,0.9843569999999999
1630415916465,-0.032818,-0.099979,0.984418
1630415916475,-0.033367,-0.098271,0.983564
1630415916484,-0.032695999999999996,-0.095648,0.983869
1630415916494,-0.032695999999999996,-0.096197,0.98393
1630415916504,-0.030560999999999998,-0.094916,0.983686
1630415916513,-0.029828999999999998,-0.094733,0.983625
1630415916523,-0.029341,-0.095343,0.984113
1630415916532,-0.028731,-0.09881999999999999,0.98271
1630415916542,-0.027999,-0.102968,0.9806969999999999
1630415916552,-0.027632999999999998,-0.104737,0.9806969999999999
1630415916561,-0.026657,-0.106567,0.980026
1630415916571,-0.026168999999999998,-0.106567,0.979721
1630415916580,-0.026718,-0.108031,0.9791719999999999
1630415916590,-0.027023,-0.108153,0.97905
1630415916600,-0.026779,-0.108031,0.9779519999999999
1630415916609,-0.026779,-0.106933,0.979355
1630415916619,-0.028426,-0.104249,0.980331
1630415916628,-0.028426,-0.102419,0.98149
1630415916638,-0.029219,-0.10144299999999999,0.983015
1630415916648,-0.028731,-0.100894,0.98515
1630415916657,-0.027877,-0.100284,0.985821
1630415916667,-0.028059999999999998,-0.098271,0.98576
1630415916676,-0.026962,-0.095831,0.984784
1630415916686,-0.026718,-0.093818,0.983564
1630415916696,-0.025742,-0.092476,0.983503
1630415916705,-0.025681,-0.092842,0.98271
1630415916715,-0.024217,-0.09638,0.9828319999999999
1630415916724,-0.023363,-0.099064,0.982161
1630415916734,-0.022875,-0.103517,0.98149
1630415916744,-0.022935999999999998,-0.108763,0.980819
1630415916753,-0.020984,-0.112911,0.980331
1630415916763,-0.021471999999999998,-0.11345999999999999,0.980758
1630415916772,-0.021167,-0.111508,0.981551
1630415916782,-0.020618,-0.106018,0.982344
1630415916792,-0.021716,-0.100711,0.9831369999999999
1630415916801,-0.022387,-0.098576,0.984601
1630415916811,-0.024888,-0.098698,0.985211
1630415916820,-0.025376,-0.099857,0.984174
1630415916830,-0.025681,-0.102236,0.983381
1630415916840,-0.026047,-0.106567,0.9825269999999999
1630415916849,-0.026595999999999998,-0.108946,0.9819169999999999
1630415916859,-0.027327999999999998,-0.108397,0.981551
1630415916868,-0.029219,-0.106323,0.981429
1630415916878,-0.032025,-0.099247,0.9834419999999999
1630415916888,-0.036051,-0.092171,0.984601
1630415916897,-0.039589,-0.084607,0.984418
1630415916907,-0.04331,-0.081313,0.9840519999999999
1630415916916,-0.04392,-0.080215,0.982771
1630415916926,-0.045384,-0.07942199999999999,0.9828319999999999
1630415916936,-0.045384,-0.07747,0.983076
1630415916945,-0.04575,-0.074359,0.9828319999999999
1630415916955,-0.04636,-0.071614,0.983198
1630415916964,-0.046848,-0.06801499999999999,0.9816119999999999
1630415916974,-0.046726,-0.064355,0.9821
1630415916984,-0.04636,-0.064538,0.983076
1630415916993,-0.045323,-0.068991,0.9821
1630415917003,-0.042761,-0.072468,0.98088
1630415917012,-0.041114,-0.076372,0.982466
1630415917022,-0.039162,-0.08265499999999999,0.981368
1630415917032,-0.037087999999999996,-0.089914,0.98088
1630415917041,-0.034831,-0.094916,0.9800869999999999
1630415917051,-0.034099,-0.098454,0.979599
1630415917060,-0.033001,-0.100467,0.9785619999999999
1630415917070,-0.032574,-0.099796,0.978196
1630415917080,-0.03172,-0.100284,0.979416
1630415917089,-0.029951,-0.099186,0.980514
1630415917099,-0.029646,-0.099064,0.979721
1630415917108,-0.02928,-0.097539,0.978318
1630415917118,-0.030195,-0.09790499999999999,0.975756
1630415917128,-0.028304,-0.097417,0.975695
1630415917137,-0.027206,-0.098027,0.9773419999999999
1630415917147,-0.025803,-0.098759,0.978074
1630415917156,-0.025131999999999998,-0.098393,0.979721
1630415917166,-0.024704999999999998,-0.099247,0.980636
1630415917176,-0.024827,-0.100589,0.980209
1630415917185,-0.025681,-0.102602,0.979599
1630415917195,-0.025925,-0.102114,0.980941
1630415917204,-0.025742,-0.101626,0.982039
1630415917214,-0.027572,-0.102358,0.983259
1630415917224,-0.027267,-0.103212,0.9834419999999999
1630415917233,-0.028059999999999998,-0.106323,0.983076
1630415917243,-0.027511,-0.107177,0.982283
1630415917252,-0.028182,-0.106018,0.983503
1630415917262,-0.028914,-0.106018,0.984296
1630415917272,-0.028731,-0.10638399999999999,0.984235
1630415917281,-0.028914,-0.105896,0.9843569999999999
1630415917291,-0.029707,-0.106201,0.983869
1630415917300,-0.029523999999999998,-0.106018,0.98454
1630415917310,-0.030560999999999998,-0.106262,0.984906
1630415917320,-0.0305,-0.105957,0.9849669999999999
1630415917329,-0.031659,-0.10492,0.98332
1630415917339,-0.031354,-0.10315099999999999,0.984235
1630415917348,-0.033854999999999996,-0.102663,0.985028
1630415917358,-0.033854999999999996,-0.100894,0.984296
1630415917368,-0.034648,-0.098149,0.985394
1630415917377,-0.035013999999999997,-0.096563,0.9852719999999999
1630415917387,-0.034831,-0.095099,0.986004
1630415917396,-0.035258,-0.094306,0.986553
1630415917406,-0.035685,-0.094184,0.98454
1630415917416,-0.0366,-0.092964,0.983198
1630415917425,-0.036722,-0.091927,0.9822219999999999
1630415917435,-0.036905,-0.08967,0.982344
1630415917444,-0.037881,-0.085949,0.982954
1630415917454,-0.038186,-0.083692,0.9821
1630415917464,-0.037576,-0.083204,0.9822219999999999
1630415917473,-0.03782,-0.084119,0.981856
1630415917483,-0.036356,-0.086071,0.98271
1630415917492,-0.036782999999999996,-0.08790099999999999,0.981551
1630415917502,-0.036356,-0.08912099999999999,0.979904
1630415917512,-0.036295,-0.088694,0.979904
1630415917521,-0.036539,-0.090585,0.979721
1630415917531,-0.036295,-0.089365,0.980453
1630415917540,-0.036844,-0.088145,0.9806969999999999
1630415917550,-0.03721,-0.085034,0.98027
1630415917560,-0.038064,-0.083936,0.981978
1630415917569,-0.038857,-0.083204,0.982588
1630415917579,-0.039528,-0.081069,0.982161
1630415917588,-0.039955,-0.081069,0.983381
1630415917598,-0.040565,-0.081496,0.9831369999999999
1630415917608,-0.042273,-0.07942199999999999,0.97966
1630415917617,-0.042517,-0.078141,0.978318
1630415917627,-0.042273,-0.078934,0.980026
1630415917636,-0.040504,-0.082838,0.983381
1630415917646,-0.037393,-0.08649799999999999,0.986431
1630415917656,-0.035013999999999997,-0.094001,0.987529
1630415917665,-0.036356,-0.102968,0.9852719999999999
1630415917675,-0.0366,-0.10961699999999999,0.981734
1630415917684,-0.037087999999999996,-0.11315499999999999,0.980514
1630415917694,-0.038491,-0.116815,0.979416
1630415917704,-0.038186,-0.11962099999999999,0.981124
1630415917713,-0.042883,-0.116815,0.983991
1630415917723,-0.03965,-0.119804,0.985394
1630415917732,-0.040015999999999996,-0.11638799999999999,0.987712
1630415917742,-0.040748,-0.10614,0.987346
1630415917752,-0.041236,-0.099369,0.987956
1630415917761,-0.043859,-0.091073,0.985516
1630415917771,-0.04392,-0.090707,0.9828319999999999
1630415917780,-0.044591,-0.094428,0.9782569999999999
1630415917790,-0.045506,-0.098759,0.97295
1630415917800,-0.04575,-0.098576,0.969778
1630415917809,-0.044102999999999996,-0.09558699999999999,0.969961
1630415917819,-0.043188,-0.090341,0.97295
1630415917828,-0.042212,-0.085827,0.976671
1630415917838,-0.04331,-0.08265499999999999,0.979721
1630415917848,-0.043615,-0.080825,0.9810019999999999
1630415917857,-0.041419,-0.08064199999999999,0.980819
1630415917867,-0.040931,-0.084668,0.98088
1630415917876,-0.039772,-0.090524,0.981246
1630415917886,-0.038491,-0.095526,0.981429
1630415917896,-0.037942,-0.099857,0.9806969999999999
1630415917905,-0.038796,-0.101321,0.979416
1630415917915,-0.040992,-0.099674,0.9785619999999999
1630415917924,-0.041602,-0.093696,0.9776469999999999
1630415917934,-0.042578,-0.088938,0.974414
1630415917944,-0.044407999999999996,-0.085217,0.975085
1630415917953,-0.043432,-0.082533,0.978135
1630415917963,-0.043676,-0.085156,0.982039
1630415917972,-0.042517,-0.091683,0.984784
1630415917982,-0.038613,-0.100406,0.9871019999999999
1630415917992,-0.037454,-0.10022299999999999,0.984845
1630415918001,-0.038003,-0.092964,0.981856
1630415918011,-0.040992,-0.080886,0.979843
1630415918020,-0.043248999999999996,-0.071004,0.9782569999999999
1630415918030,-0.043737,-0.061426999999999995,0.981185
1630415918040,-0.044286,-0.057888999999999996,0.983503
1630415918049,-0.044896,-0.060268,0.983625
1630415918059,-0.043981,-0.068198,0.985028
1630415918068,-0.041602,-0.079361,0.983686
1630415918078,-0.038308,-0.093818,0.985394
1630415918088,-0.034648,-0.104005,0.988139
1630415918097,-0.032269,-0.110959,0.9903959999999999
1630415918107,-0.030744,-0.111752,0.990823
1630415918116,-0.030317,-0.10858,0.991067
1630415918126,-0.030683,-0.106323,0.990762
1630415918136,-0.031171,-0.103822,0.989359
1630415918145,-0.032513,-0.103273,0.99064
1630415918155,-0.032085999999999996,-0.105164,0.989847
1630415918164,-0.031598,-0.108031,0.987346
1630415918174,-0.031354,-0.10931199999999999,0.985943
1630415918184,-0.030073,-0.10992199999999999,0.985821
1630415918193,-0.029341,-0.10858,0.9855769999999999
1630415918203,-0.031476,-0.108824,0.98515
1630415918212,-0.032025,-0.109068,0.983564
1630415918222,-0.036112,-0.107543,0.983503
1630415918232,-0.03904,-0.108702,0.9852719999999999
1630415918241,-0.040931,-0.105957,0.988383
1630415918251,-0.044774,-0.104249,0.989847
1630415918260,-0.045506,-0.10205299999999999,0.992104
1630415918270,-0.04697,-0.099979,0.991738
1630415918280,-0.047335999999999996,-0.096319,0.9897859999999999
1630415918289,-0.050263999999999996,-0.092415,0.9891759999999999
1630415918299,-0.05124,-0.090463,0.986858
1630415918308,-0.052765,-0.088389,0.9858819999999999
1630415918318,-0.054778,-0.085339,0.9834419999999999
1630415918328,-0.055083,-0.081923,0.981978
1630415918337,-0.053863,-0.079971,0.979965
1630415918347,-0.053619,-0.078019,0.976854
1630415918356,-0.054168,-0.078141,0.974048
1630415918366,-0.054107,-0.07649399999999999,0.971913
1630415918376,-0.053985,-0.075274,0.97173
1630415918385,-0.054473,-0.074908,0.9742919999999999
1630415918395,-0.053924,-0.074969,0.975024
1630415918404,-0.054168,-0.075274,0.975695
1630415918414,-0.053619,-0.076372,0.9782569999999999
1630415918424,-0.053253,-0.077531,0.979294
1630415918433,-0.051972,-0.078385,0.982466
1630415918443,-0.051972,-0.080886,0.984479
1630415918452,-0.052765,-0.08418,0.985089
1630415918462,-0.052216,-0.085156,0.986126
1630415918472,-0.051057,-0.087718,0.988383
1630415918481,-0.052277,-0.08662,0.989054
1630415918491,-0.051179,-0.084607,0.987651
1630415918500,-0.050081,-0.079239,0.987163
1630415918510,-0.049593,-0.07686,0.9834419999999999
1630415918520,-0.05124,-0.07503,0.979721
1630415918529,-0.05002,-0.07564,0.976366
1630415918539,-0.048434,-0.07747,0.9721569999999999
1630415918548,-0.047214,-0.078446,0.9727669999999999
1630415918558,-0.04514,-0.079239,0.974841
1630415918568,-0.044042,-0.07710399999999999,0.978806
1630415918577,-0.042638999999999996,-0.07747,0.978684
1630415918587,-0.042578,-0.078995,0.97783
1630415918596,-0.041174999999999996,-0.083448,0.977464
1630415918606,-0.039406,-0.087291,0.977708
1630415918616,-0.037332,-0.09143899999999999,0.978806
1630415918625,-0.03538,-0.09516,0.980758
1630415918635,-0.033184,-0.098942,0.982405
1630415918644,-0.032452,-0.100772,0.982405
1630415918654,-0.031842,-0.10284599999999999,0.982588
1630415918664,-0.031964,-0.104737,0.982893
1630415918673,-0.032208,-0.10553,0.982893
1630415918683,-0.031171,-0.106811,0.983198
1630415918692,-0.032269,-0.107726,0.984174
1630415918702,-0.031171,-0.106201,0.983869
1630415918712,-0.031354,-0.10577399999999999,0.9831369999999999
1630415918721,-0.031598,-0.105591,0.982893
1630415918731,-0.031232,-0.103517,0.983991
1630415918740,-0.032085999999999996,-0.100772,0.983991
1630415918750,-0.032818,-0.097478,0.983198
1630415918760,-0.033245,-0.096197,0.982039
1630415918769,-0.033184,-0.096136,0.983503
1630415918779,-0.033489,-0.094306,0.984113
1630415918788,-0.034587,-0.093452,0.984418
1630415918798,-0.035318999999999996,-0.093513,0.98515
1630415918808,-0.03477,-0.094184,0.985516
1630415918817,-0.033854999999999996,-0.092415,0.986736
1630415918827,-0.033428,-0.091012,0.987773
1630415918836,-0.032574,-0.089487,0.988322
1630415918846,-0.032574,-0.09174399999999999,0.986858
1630415918856,-0.027816,-0.09467199999999999,0.985028
1630415918865,-0.025986,-0.093635,0.982771
1630415918875,-0.023485,-0.09333,0.9821
1630415918884,-0.023972999999999998,-0.088572,0.980758
1630415918894,-0.023363,-0.087474,0.982954
1630415918904,-0.024888,-0.081801,0.991189
1630415918913,-0.026413,-0.082594,1.00223
1630415918923,-0.035441,-0.081313,1.013759
1630415918932,-0.030866,-0.111264,1.009367
1630415918942,-0.00732,-0.157624,1.012173
1630415918952,0.013847,-0.190808,1.018212
1630415918961,0.021777,-0.184891,1.017053
1630415918971,0.023607,-0.152744,1.018212
1630415918980,0.027999,-0.1159,1.014735
1630415918990,0.02867,-0.087169,1.012966
1630415919000,0.021045,-0.067893,1.007964
1630415919009,0.019581,-0.047763,0.999424
1630415919019,0.019764,-0.031903,0.986736
1630415919028,0.018971,-0.020801,0.972523
1630415919038,0.019093,-0.002013,0.96197
1630415919048,0.020252,0.020252,0.951844
1630415919057,0.0071979999999999995,0.032208,0.9475129999999999
1630415919067,-0.00732,0.030622,0.936228
1630415919076,-0.007503,0.024034,0.92781
1630415919086,-0.003843,0.011529,0.923601
1630415919096,-0.0013419999999999999,-0.0018909999999999999,0.93025
1630415919105,0.01342,-0.027084,0.945561
1630415919115,0.014945,-0.043554,0.958005
1630415919124,0.017202,-0.055998,0.971059
1630415919134,0.031598,-0.076006,0.976305
1630415919144,0.031659,-0.079849,0.986248
1630415919153,0.024583,-0.077531,0.991677
1630415919163,0.029402,-0.079666,0.992775
1630415919172,0.026962,-0.07911699999999999,0.996618
1630415919182,0.01891,-0.081374,0.999668
1630415919192,0.022448,-0.08967,1.000339
1630415919201,0.02989,-0.108702,0.996069
1630415919211,0.034221,-0.11992599999999999,0.991494
1630415919220,0.039162,-0.120414,0.989969
1630415919230,0.037698,-0.110776,0.996008
1630415919240,0.034953,-0.099064,1.000034
1630415919249,0.032147,-0.098027,1.0004
1630415919259,0.020374,-0.087047,1.003694
1630415919268,0.020557,-0.092903,0.987712
1630415919278,0.021106,-0.097356,0.978196
1630415919288,0.019398,-0.095038,0.972584
1630415919297,0.015982,-0.091622,0.970815
1630415919307,0.009577,-0.08497299999999999,0.969473
1630415919316,0.001952,-0.07033299999999999,0.971486
1630415919326,0.008845,-0.07002799999999999,0.9627629999999999
1630415919336,-0.0050019999999999995,-0.052704,0.979294
1630415919345,-0.012261,-0.044652,0.983869
1630415919355,-0.015433,-0.050996,0.98515
1630415919364,-0.023546,-0.05795,0.98454
1630415919374,-0.021899,-0.071614,0.9822219999999999
1630415919384,-0.028975,-0.086986,0.9825269999999999
1630415919393,-0.049104999999999996,-0.074664,0.987224
1630415919403,-0.059841,-0.062586,0.989664
1630415919412,-0.068259,-0.055205,0.991067
1630415919422,-0.073932,-0.048922,0.9903959999999999
1630415919432,-0.069784,-0.05063,0.989725
1630415919441,-0.072163,-0.042456,0.992409
1630415919451,-0.066978,-0.062403,1.004792
1630415919460,-0.070516,-0.051727999999999996,1.004792
1630415919470,-0.075579,-0.040199,0.997045
1630415919480,-0.078202,-0.032269,0.990335
1630415919489,-0.078812,-0.030439,0.983625
1630415919499,-0.079788,-0.028243,0.983076
1630415919508,-0.076311,-0.031476,0.984479
1630415919518,-0.072163,-0.035318999999999996,0.988444
1630415919528,-0.070821,-0.040565,0.98698
1630415919537,-0.073444,-0.044896,0.976671
1630415919547,-0.073688,-0.041297,0.970754
1630415919556,-0.070394,-0.038979,0.970815
1630415919566,-0.064355,-0.038308,0.97539
1630415919576,-0.063257,-0.032695999999999996,0.9822219999999999
1630415919585,-0.063196,-0.029768,0.984418
1630415919595,-0.058498999999999995,-0.028059999999999998,0.982954
1630415919604,-0.051972,-0.038186,0.9800869999999999
1630415919614,-0.050263999999999996,-0.049104999999999996,0.982405
1630415919624,-0.048617,-0.053314,0.986309
1630415919633,-0.04697,-0.056119999999999996,0.984723
1630415919643,-0.040443,-0.066368,0.9733769999999999
1630415919652,-0.034526,-0.071736,0.9721569999999999
1630415919662,-0.028548,-0.076006,0.979355
1630415919672,-0.018666,-0.091256,0.985394
1630415919681,-0.015921,-0.093147,0.99308
1630415919691,-0.016592,-0.095465,0.994422
1630415919700,-0.016226,-0.091073,0.9937509999999999
1630415919710,-0.018483,-0.084546,0.992714
1630415919720,-0.019398,-0.081862,0.989969
1630415919729,-0.018666,-0.080398,0.9900909999999999
1630415919739,-0.018971,-0.083814,0.989115
1630415919748,-0.018056,-0.089548,0.988688
1630415919758,-0.016774999999999998,-0.094245,0.989054
1630415919768,-0.016409,-0.098149,0.988139
1630415919777,-0.014457,-0.099979,0.988017
1630415919787,-0.012871,-0.102907,0.987529
1630415919796,-0.010797,-0.107116,0.987407
1630415919806,-0.011773,-0.109495,0.9837469999999999
1630415919816,-0.01342,-0.11114199999999999,0.979233
1630415919825,-0.014274,-0.109983,0.975573
1630415919835,-0.015433,-0.107726,0.975878
1630415919844,-0.014701,-0.1037,0.980209
1630415919854,-0.013786,-0.099735,0.982161
1630415919864,-0.012505,-0.097722,0.9852719999999999
1630415919873,-0.012078,-0.098759,0.9861869999999999
1630415919883,-0.010553,-0.100955,0.986675
1630415919892,-0.008662,-0.10004,0.986614
1630415919902,-0.0066489999999999995,-0.09991799999999999,0.987163
1630415919912,-0.00488,-0.098942,0.9855769999999999
1630415919921,-0.0034159999999999998,-0.096502,0.9871019999999999
1630415919931,-0.005124,-0.092537,0.987712
1630415919940,-0.003172,-0.092964,0.987529
1630415919950,-0.002806,-0.092171,0.987224
1630415919960,-0.0006709999999999999,-0.097112,0.986309
1630415919969,0.001647,-0.103883,0.981978
1630415919979,0.003538,-0.10919,0.97844
1630415919988,0.0053679999999999995,-0.10675,0.975939
1630415919998,0.006771,-0.09851499999999999,0.973194
1630415920008,0.0064659999999999995,-0.085827,0.973438
1630415920017,0.0050019999999999995,-0.077958,0.97661
1630415920027,0.004209,-0.075457,0.9791719999999999
1630415920036,0.004148,-0.078568,0.9825269999999999
1630415920046,0.003172,-0.08784,0.982771
1630415920056,0.00366,-0.100894,0.9810019999999999
1630415920065,0.004026,-0.111264,0.97844
1630415920075,0.003538,-0.11669299999999999,0.979416
1630415920084,0.0017079999999999999,-0.114375,0.98088
1630415920094,0.00061,-0.110105,0.983686
1630415920104,-0.001464,-0.10406599999999999,0.99003
1630415920113,-0.0026839999999999998,-0.103517,0.992775
1630415920123,-0.0050019999999999995,-0.104737,0.995398
1630415920132,-0.005978,-0.110166,0.999058
1630415920142,-0.006344,-0.1159,1.001498
1630415920152,-0.008357,-0.116266,0.998509
1630415920161,-0.009394,-0.113399,0.995459
1630415920171,-0.011712,-0.10668899999999999,0.9922259999999999
1630415920180,-0.012931999999999999,-0.098637,0.991433
1630415920190,-0.014395999999999999,-0.092781,0.99064
1630415920200,-0.015982,-0.085461,0.989664
1630415920209,-0.017385,-0.07747,0.989237
1630415920219,-0.017629,-0.072407,0.988078
1630415920228,-0.019581,-0.068869,0.9849669999999999
1630415920238,-0.021716,-0.06222,0.9810019999999999
1630415920248,-0.021471999999999998,-0.058011,0.978379
1630415920257,-0.019032,-0.056547,0.9761219999999999
1630415920267,-0.01952,-0.055144,0.978684
1630415920276,-0.02379,-0.050752,0.978318
1630415920286,-0.025436999999999998,-0.046482,0.976488
1630415920296,-0.027572,-0.045079,0.9755119999999999
1630415920305,-0.030805,-0.044896,0.971791
1630415920315,-0.033977,-0.0427,0.9718519999999999
1630415920324,-0.036112,-0.041724,0.975024
1630415920334,-0.037942,-0.041968,0.980148
1630415920344,-0.03721,-0.047824,0.9810019999999999
1630415920353,-0.036173,-0.055022,0.980514
1630415920363,-0.037454,-0.056974,0.979904
1630415920372,-0.037576,-0.060146,0.978806
1630415920382,-0.038674,-0.061915,0.9782569999999999
1630415920392,-0.040626,-0.062342,0.978745
1630415920401,-0.040931,-0.06344,0.978745
1630415920411,-0.044712999999999996,-0.060878,0.978806
1630415920420,-0.049409999999999996,-0.0549,0.979965
1630415920430,-0.054534,-0.048129,0.9822219999999999
1630415920440,-0.057767,-0.043005,0.9816119999999999
1630415920449,-0.057401,-0.043248999999999996,0.9761219999999999
1630415920459,-0.054229,-0.04697,0.974414
1630415920468,-0.050935,-0.05063,0.980331
1630415920478,-0.050752,-0.053863,0.9846619999999999
1630415920488,-0.054595,-0.05307,0.985943
1630415920497,-0.056059,-0.053558,0.987529
1630415920507,-0.058377,-0.053009,0.9861869999999999
1630415920516,-0.061121999999999996,-0.053191999999999996,0.987468
1630415920526,-0.061549,-0.05368,0.988444
1630415920536,-0.063379,-0.054778,0.9888709999999999
1630415920545,-0.061671,-0.057401,0.987712
1630415920555,-0.061183,-0.060878,0.988688
1630415920564,-0.061121999999999996,-0.062037,0.98759
1630415920574,-0.060024,-0.06417199999999999,0.98637
1630415920584,-0.057706,-0.066002,0.985211
1630415920593,-0.058011,-0.068076,0.984235
1630415920603,-0.057034999999999995,-0.068564,0.984723
1630415920612,-0.054412,-0.070089,0.983991
1630415920622,-0.054655999999999996,-0.069662,0.9834419999999999
1630415920632,-0.052886999999999997,-0.072468,0.981978
1630415920641,-0.052277,-0.071675,0.982954
1630415920651,-0.048678,-0.073932,0.982161
1630415920660,-0.046116,-0.076067,0.981856
1630415920670,-0.044774,-0.07649399999999999,0.984723
1630415920680,-0.043005,-0.081374,0.986614
1630415920689,-0.041846,-0.08326499999999999,0.988078
1630415920699,-0.040320999999999996,-0.085644,0.98759
1630415920708,-0.037942,-0.086376,0.985638
1630415920718,-0.035258,-0.087352,0.985943
1630415920728,-0.035197,-0.087474,0.985394
1630415920737,-0.035318999999999996,-0.088084,0.983869
1630415920747,-0.035502,-0.087962,0.981429
1630415920756,-0.03477,-0.089365,0.978806
1630415920766,-0.033854999999999996,-0.088999,0.9764269999999999
1630415920776,-0.034465,-0.087352,0.9770369999999999
1630415920785,-0.033977,-0.089365,0.978989
1630415920795,-0.035563,-0.09235399999999999,0.9828319999999999
1630415920804,-0.037881,-0.094733,0.986919
1630415920814,-0.03904,-0.10052799999999999,0.986553
1630415920824,-0.037698,-0.104554,0.9849669999999999
1630415920833,-0.039528,-0.106262,0.983503
1630415920843,-0.04209,-0.10492,0.983686
1630415920852,-0.044225,-0.101809,0.985333
1630415920862,-0.043554,-0.100894,0.987468
1630415920872,-0.044102999999999996,-0.099125,0.988322
1630415920881,-0.044042,-0.098942,0.989237
1630415920891,-0.044652,-0.097722,0.988505
1630415920900,-0.045201,-0.097356,0.987712
1630415920910,-0.046726,-0.094794,0.987956
1630415920920,-0.048983,-0.095038,0.986736
1630415920929,-0.05063,-0.093696,0.983625
1630415920939,-0.049227,-0.092964,0.9816119999999999
1630415920948,-0.047945999999999996,-0.092903,0.980514
1630415920958,-0.044591,-0.09436699999999999,0.980148
1630415920968,-0.043554,-0.095709,0.9797819999999999
1630415920977,-0.042943999999999996,-0.09729499999999999,0.980575
1630415920987,-0.040687,-0.098698,0.98027
1630415920996,-0.041724,-0.09577,0.98149
1630415921006,-0.04209,-0.094611,0.983015
1630415921016,-0.041114,-0.096807,0.9810019999999999
1630415921025,-0.040748,-0.096258,0.9788669999999999
1630415921035,-0.040320999999999996,-0.097966,0.978623
1630415921044,-0.041479999999999996,-0.098149,0.9821
1630415921054,-0.039162,-0.10065,0.983198
1630415921064,-0.037087999999999996,-0.10467599999999999,0.981429
1630415921073,-0.035623999999999996,-0.105896,0.9800869999999999
1630415921083,-0.035685,-0.104615,0.981185
1630415921092,-0.034159999999999996,-0.106872,0.982954
1630415921102,-0.035623999999999996,-0.105042,0.984235
1630415921112,-0.035075,-0.103883,0.983869
1630415921121,-0.035136,-0.101077,0.985394
1630415921131,-0.035746,-0.100711,0.985333
1630415921140,-0.032879,-0.099064,0.986675
1630415921150,-0.034892,-0.099369,0.98576
1630415921160,-0.032208,-0.10022299999999999,0.985089
1630415921169,-0.033306,-0.099491,0.981124
1630415921179,-0.032574,-0.09790499999999999,0.979538
1630415921188,-0.030255999999999998,-0.098698,0.98027
1630415921198,-0.028059999999999998,-0.103395,0.9825269999999999
1630415921208,-0.028487,-0.1037,0.98332
1630415921217,-0.028182,-0.102785,0.9837469999999999
1630415921227,-0.027877,-0.10187,0.9828319999999999
1630415921236,-0.028426,-0.101016,0.9810019999999999
1630415921246,-0.029341,-0.099125,0.980575
1630415921256,-0.030134,-0.097173,0.980514
1630415921265,-0.030378,-0.095099,0.98149
1630415921275,-0.03111,-0.09497699999999999,0.982405
1630415921284,-0.030439,-0.095099,0.981795
1630415921294,-0.029402,-0.095709,0.980209
1630415921304,-0.026595999999999998,-0.09851499999999999,0.977525
1630415921313,-0.025376,-0.099064,0.978928
1630415921323,-0.026535,-0.100406,0.978379
1630415921332,-0.027511,-0.099857,0.978196
1630415921342,-0.027999,-0.098759,0.9806969999999999
1630415921352,-0.027938,-0.097783,0.98149
1630415921361,-0.027755,-0.097661,0.98271
1630415921371,-0.028304,-0.097173,0.9840519999999999
1630415921380,-0.028243,-0.097783,0.984296
1630415921390,-0.027145,-0.096807,0.983991
1630415921400,-0.027572,-0.095038,0.9819169999999999
1630415921409,-0.028731,-0.09467199999999999,0.98149
1630415921419,-0.029036,-0.095831,0.979416
1630415921428,-0.028791999999999998,-0.096319,0.978623
1630415921438,-0.028059999999999998,-0.09467199999999999,0.9782569999999999
1630415921448,-0.028304,-0.09406199999999999,0.978196
1630415921457,-0.028731,-0.094245,0.9779519999999999
1630415921467,-0.027999,-0.09406199999999999,0.978684
1630415921476,-0.029707,-0.09235399999999999,0.979538
1630415921486,-0.030927,-0.091683,0.978928
1630415921496,-0.031232,-0.093086,0.976549
1630415921505,-0.032025,-0.09528199999999999,0.976671
1630415921515,-0.032085999999999996,-0.097234,0.978318
1630415921524,-0.031842,-0.097722,0.97966
1630415921534,-0.032025,-0.099857,0.982588
1630415921544,-0.031903,-0.101992,0.983991
1630415921553,-0.031964,-0.102175,0.985028
1630415921563,-0.033184,-0.102663,0.984235
1630415921572,-0.033245,-0.10431,0.985089
1630415921582,-0.03294,-0.105408,0.985821
1630415921592,-0.032085999999999996,-0.107055,0.9849669999999999
1630415921601,-0.032208,-0.107848,0.98454
1630415921611,-0.03111,-0.108031,0.983259
1630415921620,-0.030927,-0.106811,0.982954
1630415921630,-0.031537,-0.106811,0.981734
1630415921640,-0.031049,-0.107543,0.982283
1630415921649,-0.031049,-0.10790899999999999,0.983076
1630415921659,-0.030378,-0.10699399999999999,0.984784
1630415921668,-0.030378,-0.105286,0.985638
1630415921678,-0.030866,-0.10553,0.9858819999999999
1630415921688,-0.030805,-0.10607899999999999,0.983503
1630415921697,-0.030134,-0.104188,0.982344
1630415921707,-0.029768,-0.10205299999999999,0.982039
1630415921716,-0.0305,-0.10022299999999999,0.982344
1630415921726,-0.030560999999999998,-0.098454,0.981124
1630415921736,-0.030805,-0.096258,0.9810019999999999
1630415921745,-0.030560999999999998,-0.095038,0.980941
1630415921755,-0.030683,-0.093635,0.980331
1630415921764,-0.031964,-0.094245,0.97966
1630415921774,-0.031659,-0.093086,0.9791719999999999
1630415921784,-0.030987999999999998,-0.093818,0.979355
1630415921793,-0.030439,-0.096746,0.978074
1630415921803,-0.029768,-0.098149,0.977708
1630415921812,-0.028975,-0.097417,0.979294
1630415921822,-0.028243,-0.09820999999999999,0.979599
1630415921832,-0.028731,-0.10065,0.979111
1630415921841,-0.02928,-0.101504,0.981124
1630415921851,-0.028914,-0.102358,0.982649
1630415921860,-0.029219,-0.103639,0.9840519999999999
1630415921870,-0.029036,-0.104432,0.985455
1630415921880,-0.030073,-0.105469,0.985516
1630415921889,-0.028791999999999998,-0.104859,0.986004
1630415921899,-0.029158,-0.104859,0.984296
1630415921908,-0.029219,-0.105103,0.98271
1630415921918,-0.028914,-0.103639,0.982283
1630415921928,-0.030378,-0.104493,0.981978
1630415921937,-0.0305,-0.10431,0.981856
1630415921947,-0.030683,-0.102968,0.981795
1630415921956,-0.030378,-0.103883,0.9821
1630415921966,-0.030866,-0.104188,0.9822219999999999
1630415921976,-0.031964,-0.10345599999999999,0.984418
1630415921985,-0.031964,-0.101992,0.984906
1630415921995,-0.032269,-0.10187,0.984235
1630415922004,-0.032025,-0.101016,0.9837469999999999
1630415922014,-0.03172,-0.101504,0.981124
1630415922024,-0.032757,-0.101504,0.9816119999999999
1630415922033,-0.032574,-0.102785,0.981734
1630415922043,-0.032757,-0.10248,0.9806969999999999
1630415922052,-0.033062,-0.102236,0.9794769999999999
1630415922062,-0.033794,-0.102297,0.9800869999999999
1630415922072,-0.032513,-0.103029,0.98088
1630415922081,-0.033062,-0.101809,0.9821
1630415922091,-0.032757,-0.100772,0.982649
1630415922100,-0.03294,-0.101077,0.9822219999999999
1630415922110,-0.033794,-0.100345,0.980758
1630415922120,-0.032513,-0.100894,0.979721
1630415922129,-0.03172,-0.101565,0.981124
1630415922139,-0.031842,-0.101016,0.9819169999999999
1630415922148,-0.031842,-0.10065,0.9831369999999999
1630415922158,-0.031354,-0.10065,0.982039
1630415922168,-0.030255999999999998,-0.100894,0.981429
1630415922177,-0.030866,-0.09881999999999999,0.984113
1630415922187,-0.030987999999999998,-0.099125,0.983686
1630415922196,-0.031232,-0.097783,0.98271
1630415922206,-0.029707,-0.096197,0.98332
1630415922216,-0.029768,-0.094306,0.9821
1630415922225,-0.029768,-0.094855,0.979904
1630415922235,-0.030195,-0.096746,0.977403
1630415922244,-0.030622,-0.099552,0.976061
1630415922254,-0.029036,-0.10126,0.977586
1630415922264,-0.028426,-0.10205299999999999,0.9791719999999999
1630415922273,-0.028182,-0.101992,0.9810019999999999
1630415922283,-0.026962,-0.102724,0.982039
1630415922292,-0.02867,-0.102724,0.981856
1630415922302,-0.029523999999999998,-0.103395,0.981856
1630415922312,-0.029768,-0.103822,0.9831369999999999
1630415922321,-0.029951,-0.104249,0.984418
1630415922331,-0.030866,-0.104188,0.984235
1630415922340,-0.032085999999999996,-0.102541,0.984906
1630415922350,-0.031537,-0.102419,0.986675
1630415922360,-0.032695999999999996,-0.10174799999999999,0.98637
1630415922369,-0.032574,-0.101077,0.984723
1630415922379,-0.035013999999999997,-0.099796,0.9834419999999999
1630415922388,-0.033611,-0.099552,0.983686
1630415922398,-0.033794,-0.099003,0.9822219999999999
1630415922408,-0.034526,-0.097966,0.98149
1630415922417,-0.034221,-0.09577,0.980209
1630415922427,-0.033916,-0.095038,0.980941
1630415922436,-0.033916,-0.094855,0.9810019999999999
1630415922446,-0.034953,-0.095038,0.980453
1630415922456,-0.034038,-0.09558699999999999,0.9791719999999999
1630415922465,-0.033854999999999996,-0.096014,0.9791719999999999
1630415922475,-0.034221,-0.095526,0.979904
1630415922484,-0.034159999999999996,-0.095465,0.980148
1630415922494,-0.033549999999999996,-0.094794,0.980514
1630415922504,-0.034038,-0.09467199999999999,0.9800869999999999
1630415922513,-0.034587,-0.094489,0.979843
1630415922523,-0.033733,-0.09528199999999999,0.981734
1630415922532,-0.032757,-0.096258,0.980453
1630415922542,-0.032818,-0.095953,0.9813069999999999
1630415922552,-0.032513,-0.097478,0.980514
1630415922561,-0.031964,-0.099125,0.979843
1630415922571,-0.031842,-0.101016,0.980758
1630415922580,-0.031415,-0.101504,0.981795
1630415922590,-0.030012,-0.101931,0.982466
1630415922600,-0.029646,-0.10248,0.9816119999999999
1630415922609,-0.030012,-0.10309,0.982161
1630415922619,-0.028853,-0.102419,0.9825269999999999
1630415922628,-0.029523999999999998,-0.10284599999999999,0.982588
1630415922638,-0.029523999999999998,-0.103578,0.982954
1630415922648,-0.029523999999999998,-0.103578,0.983259
1630415922657,-0.030012,-0.103334,0.984113
1630415922667,-0.030012,-0.10284599999999999,0.983564
1630415922676,-0.030012,-0.102663,0.982161
1630415922686,-0.030622,-0.10284599999999999,0.981673
1630415922696,-0.030987999999999998,-0.102236,0.9822219999999999
1630415922705,-0.031476,-0.103029,0.982344
1630415922715,-0.032513,-0.10309,0.9849669999999999
1630415922724,-0.032757,-0.102114,0.9864919999999999
1630415922734,-0.032452,-0.10187,0.986675
1630415922744,-0.033428,-0.101382,0.98515
1630415922753,-0.033916,-0.10126,0.9834419999999999
1630415922763,-0.03477,-0.101016,0.982954
1630415922772,-0.034465,-0.10126,0.981734
1630415922782,-0.034343,-0.101382,0.980453
1630415922792,-0.035013999999999997,-0.099491,0.980514
1630415922801,-0.034892,-0.10052799999999999,0.98027
1630415922811,-0.034648,-0.099491,0.980819
1630415922820,-0.034587,-0.09851499999999999,0.98149
1630415922830,-0.035685,-0.098088,0.981795
1630415922840,-0.034648,-0.098332,0.9819169999999999
1630415922849,-0.034648,-0.098881,0.982283
1630415922859,-0.033794,-0.09881999999999999,0.983991
1630415922868,-0.034831,-0.10022299999999999,0.9837469999999999
1630415922878,-0.033977,-0.101016,0.982954
1630415922888,-0.033001,-0.101199,0.982954
1630415922897,-0.033184,-0.102358,0.984845
1630415922907,-0.034221,-0.10205299999999999,0.984784
1630415922916,-0.034221,-0.100467,0.985638
1630415922926,-0.035441,-0.097112,0.987346
1630415922936,-0.035685,-0.09759999999999999,0.987041
1630415922945,-0.036661,-0.098698,0.983869
1630415922955,-0.036478,-0.10052799999999999,0.9806969999999999
1630415922964,-0.035258,-0.101626,0.977891
1630415922974,-0.035075,-0.100894,0.97844
1630415922984,-0.03477,-0.100467,0.980148
1630415922993,-0.034465,-0.09820999999999999,0.981063
1630415923003,-0.035623999999999996,-0.097783,0.98149
1630415923012,-0.035075,-0.097173,0.981551
1630415923022,-0.03538,-0.097722,0.9810019999999999
1630415923032,-0.035258,-0.099186,0.9791719999999999
1630415923041,-0.034831,-0.10205299999999999,0.978928
1630415923051,-0.032695999999999996,-0.10467599999999999,0.979355
1630415923060,-0.032574,-0.105225,0.979904
1630415923070,-0.030622,-0.107482,0.980941
1630415923080,-0.030866,-0.10900699999999999,0.9831369999999999
1630415923089,-0.029828999999999998,-0.111874,0.983076
1630415923099,-0.028731,-0.112179,0.9822219999999999
1630415923108,-0.028548,-0.112728,0.9816119999999999
1630415923118,-0.02745,-0.114131,0.982283
1630415923128,-0.027327999999999998,-0.115107,0.982039
1630415923137,-0.027938,-0.115961,0.981673
1630415923147,-0.028975,-0.115107,0.979843
1630415923156,-0.030073,-0.114253,0.98088
1630415923166,-0.027938,-0.11638799999999999,0.984845
1630415923176,-0.026291,-0.119987,0.988261
1630415923185,-0.025131999999999998,-0.12224399999999999,0.99064
1630415923195,-0.02623,-0.122366,0.990213
1630415923204,-0.027084,-0.121207,0.989542
1630415923214,-0.027084,-0.119133,0.988993
1630415923224,-0.025436999999999998,-0.119255,0.988505
1630415923233,-0.024034,-0.118279,0.987346
1630415923243,-0.025193,-0.113704,0.985333
1630415923252,-0.027327999999999998,-0.1098,0.983564
1630415923262,-0.028121,-0.107055,0.984418
1630415923272,-0.027206,-0.10553,0.987285
1630415923281,-0.025742,-0.105225,0.9903959999999999
1630415923291,-0.026168999999999998,-0.104493,0.992714
1630415923300,-0.026962,-0.102968,0.992165
1630415923310,-0.02745,-0.100345,0.989908
1630415923320,-0.028487,-0.097722,0.988688
1630415923329,-0.02867,-0.093574,0.988566
1630415923339,-0.030255999999999998,-0.089304,0.987895
1630415923348,-0.031842,-0.082594,0.985333
1630415923358,-0.034526,-0.076555,0.982405
1630415923368,-0.037881,-0.071858,0.9800869999999999
1630415923377,-0.041907,-0.066612,0.978684
1630415923387,-0.044469,-0.061975999999999996,0.979538
1630415923396,-0.046421,-0.054168,0.979294
1630415923406,-0.05002,-0.045445,0.979111
1630415923416,-0.05368,-0.037149,0.979538
1630415923425,-0.057828,-0.027938,0.978379
1630415923435,-0.060146,-0.021655,0.9764269999999999
1630415923444,-0.062708,-0.012078,0.977769
1630415923454,-0.066612,-0.0026839999999999998,0.975878
1630415923464,-0.069113,0.003965,0.969839
1630415923473,-0.072163,0.008601,0.962885
1630415923483,-0.071736,0.016287,0.962824
1630415923492,-0.075396,0.020618,0.967399
1630415923502,-0.081862,0.033306,0.97234
1630415923512,-0.08784,0.045323,0.977525
1630415923521,-0.092842,0.056852,0.980575
1630415923531,-0.094794,0.06527,0.976488
1630415923540,-0.097539,0.070577,0.970144
1630415923550,-0.100162,0.07326099999999999,0.968924
1630415923560,-0.10083299999999999,0.078263,0.970449
1630415923569,-0.100955,0.083326,0.972401
1630415923579,-0.10052799999999999,0.08967,0.978989
1630415923588,-0.100772,0.09589199999999999,0.983564
1630415923598,-0.098698,0.099308,0.985028
1630415923608,-0.09698999999999999,0.105286,0.982771
1630415923617,-0.096563,0.10858,0.981246
1630415923627,-0.09589199999999999,0.11315499999999999,0.983259
1630415923636,-0.098637,0.12023099999999999,0.984418
1630415923646,-0.100284,0.127307,0.988139
1630415923656,-0.100955,0.139019,0.990762
1630415923665,-0.100955,0.149328,0.992348
1630415923675,-0.099796,0.153842,0.987285
1630415923684,-0.095953,0.155794,0.975878
1630415923694,-0.096197,0.155489,0.9699
1630415923704,-0.0915,0.155306,0.966423
1630415923713,-0.089792,0.15677,0.967948
1630415923723,-0.089182,0.15853899999999999,0.969473
1630415923732,-0.088572,0.162992,0.967094
1630415923742,-0.08723,0.164822,0.9600179999999999
1630415923752,-0.084424,0.16591999999999998,0.957395
1630415923761,-0.07991,0.165859,0.96075
1630415923771,-0.07618899999999999,0.164029,0.965813
1630415923780,-0.070882,0.160796,0.971181
1630415923790,-0.067771,0.159393,0.975695
1630415923800,-0.062952,0.158966,0.977525
1630415923809,-0.058316,0.155489,0.975756
1630415923819,-0.053009,0.155672,0.97539
1630415923828,-0.052582,0.155916,0.978928
1630415923838,-0.053436,0.155367,0.986431
1630415923848,-0.053314,0.154574,0.989847
1630415923857,-0.052155,0.155611,0.991067
1630415923867,-0.050568999999999996,0.159088,0.994605
1630415923876,-0.048678,0.162687,0.995032
1630415923886,-0.047030999999999996,0.16652999999999998,0.993568
1630415923896,-0.046482,0.16713999999999998,0.991067
1630415923905,-0.04575,0.169214,0.991738
1630415923915,-0.045445,0.170739,0.99247
1630415923924,-0.044164,0.170617,0.992714
1630415923934,-0.041784999999999996,0.17055599999999999,0.990945
1630415923944,-0.039772,0.17177599999999998,0.988932
1630415923953,-0.038246999999999996,0.173362,0.987285
1630415923963,-0.0366,0.168848,0.983503
1630415923972,-0.035623999999999996,0.16500499999999999,0.978623
1630415923982,-0.034282,0.162504,0.976671
1630415923992,-0.034892,0.16104,0.974719
1630415924001,-0.035502,0.16165,0.97356
1630415924011,-0.036478,0.159576,0.972523
1630415924020,-0.040748,0.15616,0.969046
1630415924030,-0.045689,0.147925,0.963556
1630415924040,-0.052582,0.144875,0.967826
1630415924049,-0.058316,0.138226,0.9742919999999999
1630415924059,-0.065026,0.13237,0.9806969999999999
1630415924068,-0.07259,0.127246,0.9861869999999999
1630415924078,-0.078202,0.123098,0.9913109999999999
1630415924088,-0.083814,0.121817,0.99552
1630415924097,-0.091927,0.122915,0.998204
1630415924107,-0.098637,0.121451,0.996862
1630415924116,-0.105042,0.12017,0.992897
1630415924126,-0.11254499999999999,0.117486,0.9900909999999999
1630415924136,-0.118889,0.11529,0.98881
1630415924145,-0.12364699999999999,0.11376499999999999,0.987346
1630415924155,-0.1281,0.112301,0.982161
1630415924164,-0.13078399999999998,0.11345999999999999,0.981246
1630415924174,-0.137189,0.115046,0.98515
1630415924184,-0.14188599999999998,0.112606,0.987224
1630415924193,-0.147376,0.10760399999999999,0.986309
1630415924203,-0.15298799999999999,0.104188,0.98088
1630415924212,-0.156343,0.09729499999999999,0.971791
1630415924222,-0.157807,0.089792,0.966301
1630415924232,-0.161772,0.085827,0.9675819999999999
1630415924241,-0.167994,0.078141,0.970266
1630415924251,-0.171593,0.068198,0.970571
1630415924260,-0.171959,0.06283,0.9688019999999999
1630415924270,-0.17299599999999998,0.056791,0.971364
1630415924280,-0.176351,0.051972,0.972706
1630415924289,-0.182024,0.046665,0.9727669999999999
1630415924299,-0.186233,0.040015999999999996,0.965935
1630415924308,-0.189527,0.036417,0.955565
1630415924318,-0.19397999999999999,0.035563,0.9523929999999999
1630415924328,-0.198006,0.03477,0.956114
1630415924337,-0.201544,0.029828999999999998,0.956541
1630415924347,-0.202947,0.025986,0.952149
1630415924356,-0.207766,0.02684,0.947391
1630415924366,-0.212219,0.026168999999999998,0.943609
1630415924376,-0.217648,0.023058,0.934947
1630415924385,-0.223016,0.018605,0.9246989999999999
1630415924395,-0.223443,0.009943,0.914695
1630415924404,-0.227896,0.010675,0.914878
1630415924414,-0.229238,0.011041,0.916586
1630415924424,-0.231617,0.009271999999999999,0.922625
1630415924433,-0.2379,0.010369999999999999,0.929823
1630415924443,-0.240828,0.008662,0.933727
1630415924452,-0.244305,0.008113,0.933056
1630415924462,-0.248026,0.008601,0.933056
1630415924472,-0.251442,0.008296,0.929335
1630415924481,-0.249795,0.004026,0.921893
1630415924491,-0.24949,0.000915,0.91683
1630415924500,-0.24973399999999998,0.0013419999999999999,0.917501
1630415924510,-0.250466,0.0026839999999999998,0.919453
1630415924520,-0.253455,0.002196,0.922747
1630415924529,-0.25699299999999997,-0.0017079999999999999,0.923296
1630415924539,-0.260531,-0.003721,0.925126
1630415924548,-0.262422,-0.004392,0.927078
1630415924558,-0.265594,-0.0030499999999999998,0.930006
1630415924568,-0.266326,-0.007259,0.928603
1630415924577,-0.267851,-0.010614,0.930982
1630415924587,-0.267424,-0.01464,0.931287
1630415924596,-0.26657,-0.016836,0.9384239999999999
1630415924606,-0.264435,-0.019642,0.9496479999999999
1630415924616,-0.263276,-0.025193,0.954894
1630415924625,-0.258945,-0.028243,0.957517
1630415924635,-0.25315,-0.026779,0.9638
1630415924644,-0.248148,-0.022082,0.965996
1630415924654,-0.24540299999999998,-0.016165,0.962092
1630415924664,-0.245769,-0.008539999999999999,0.956907
1630415924673,-0.247416,0.000488,0.96075
1630415924683,-0.2501,0.008905999999999999,0.966911
1630415924692,-0.250466,0.015982,0.967033
1630415924702,-0.251259,0.02745,0.968375
1630415924712,-0.250283,0.038918,0.968619
1630415924721,-0.249612,0.053801999999999996,0.9618479999999999
1630415924731,-0.253333,0.062159,0.957029
1630415924740,-0.25729799999999997,0.067893,0.9584929999999999
1630415924750,-0.261507,0.0793,0.965386
1630415924760,-0.264862,0.094733,0.977464
1630415924769,-0.266509,0.110959,0.98637
1630415924779,-0.267546,0.127856,0.994605
1630415924788,-0.264191,0.142069,1.001681
1630415924798,-0.258274,0.152805,1.003023
1630415924808,-0.24644,0.15006,1.008086
1630415924817,-0.22875,0.14152,1.02175
1630415924827,-0.21594,0.13908,1.0307169999999999
1630415924836,-0.206729,0.131577,1.0328519999999999
1630415924846,-0.203008,0.129198,1.024434
1630415924856,-0.199897,0.121512,1.018822
1630415924865,-0.190381,0.104859,1.019066
1630415924875,-0.173362,0.072895,1.013332
1630415924884,-0.152012,0.048617,1.011563
1630415924894,-0.130357,0.030805,1.013393
1630415924904,-0.105896,0.014823,1.013759
1630415924913,-0.080764,-0.0075639999999999995,1.016077
1630415924923,-0.057523,-0.032513,1.01626
1630415924932,-0.043493,-0.047640999999999996,1.011807
1630415924942,-0.036905,-0.050142,1.010221
1630415924952,-0.034221,-0.042273,1.014369
1630415924961,-0.03172,-0.039894,1.01748
1630415924971,-0.030987999999999998,-0.038369,1.022238
1630415924980,-0.027694,-0.033245,1.028765
1630415924990,-0.024034,-0.030805,1.033035
1630415925000,-0.020984,-0.031415,1.029985
1630415925009,-0.017263,-0.023058,1.03212
1630415925019,-0.01525,-0.0060999999999999995,1.03517
1630415925028,-0.016287,0.01098,1.031998
1630415925038,-0.011833999999999999,0.022082,1.024129
1630415925048,-0.010735999999999999,0.034526,1.016138
1630415925057,-0.012199999999999999,0.04697,1.007598
1630415925067,-0.014701,0.052337999999999996,0.995093
1630415925076,-0.015493999999999999,0.052704,0.98454
1630415925086,-0.017506999999999998,0.049044,0.970266
1630415925096,-0.021471999999999998,0.048068,0.9560529999999999
1630415925105,-0.023546,0.047335999999999996,0.946476
1630415925115,-0.025681,0.040015999999999996,0.936228
1630415925124,-0.031232,0.035929,0.924333
1630415925134,-0.035075,0.022997,0.904569
1630415925144,-0.037454,0.00042699999999999997,0.885354
1630415925153,-0.037393,-0.023363,0.875899
1630415925163,-0.037271,-0.042883,0.879559
1630415925172,-0.035868,-0.051727999999999996,0.8888309999999999
1630415925182,-0.0305,-0.054655999999999996,0.9015799999999999
1630415925192,-0.036112,-0.052643,0.917196
1630415925201,-0.056303,-0.050447,0.92781
1630415925211,-0.059962999999999995,-0.051484,0.935557
1630415925220,-0.071797,-0.04636,0.944036
1630415925230,-0.0854,-0.033062,0.951112
1630415925240,-0.089975,-0.028426,0.967704
1630415925249,-0.096502,-0.028364999999999998,0.9797819999999999
1630415925259,-0.096624,-0.034831,1.001559
1630415925268,-0.102968,-0.03904,1.01504
1630415925278,-0.10345599999999999,-0.050568999999999996,1.015467
1630415925288,-0.10797,-0.051545,1.014064
1630415925297,-0.105591,-0.044407999999999996,1.024007
1630415925307,-0.106262,-0.024399999999999998,1.033828
1630415925316,-0.104615,-0.003477,1.039318
1630415925326,-0.108092,0.018727,1.041331
1630415925336,-0.107238,0.02928,1.0474919999999999
1630415925345,-0.108885,0.029036,1.052433
1630415925355,-0.119804,0.028364999999999998,1.055117
1630415925364,-0.125904,0.02013,1.061034
1630415925374,-0.12444,0.0060999999999999995,1.060851
1630415925384,-0.12017,0.0,1.053043
1630415925393,-0.114985,-0.009394,1.045418
1630415925403,-0.107665,-0.03172,1.0407819999999999
1630415925412,-0.097539,-0.063562,1.035719
1630415925422,-0.090829,-0.096502,1.02724
1630415925432,-0.081252,-0.128283,1.017968
1630415925441,-0.07442,-0.15006,1.014064
1630415925451,-0.068259,-0.171837,1.019676
1630415925460,-0.060756,-0.193431,1.039928
1630415925470,-0.052032999999999996,-0.216306,1.065731
1630415925480,-0.043798,-0.23832699999999998,1.090497
1630415925489,-0.034526,-0.258274,1.0958649999999999
1630415925499,-0.029158,-0.267912,1.076528
1630415925508,-0.02196,-0.269559,1.056154
1630415925518,-0.013054,-0.264191,1.047065
1630415925528,-0.003965,-0.259677,1.048224
1630415925537,0.005673,-0.252418,1.051457
1630415925547,0.016347999999999998,-0.248087,1.040355
1630415925556,0.023485,-0.247477,1.018456
1630415925566,0.030987999999999998,-0.251442,0.99186
1630415925576,0.037576,-0.24631799999999998,0.963434
1630415925585,0.04697,-0.240767,0.942206
1630415925595,0.044712999999999996,-0.237839,0.9213439999999999
1630415925604,0.04575,-0.246379,0.902373
1630415925614,0.051667,-0.263093,0.897676
1630415925624,0.062098,-0.276208,0.910364
1630415925633,0.07015,-0.277001,0.9298839999999999
1630415925643,0.073017,-0.274134,0.94489
1630415925652,0.07124799999999999,-0.271938,0.946354
1630415925662,0.070394,-0.273829,0.94794
1630415925672,0.076616,-0.285846,0.944524
1630415925681,0.074359,-0.290116,0.934886
1630415925691,0.071919,-0.295545,0.9243939999999999
1630415925700,0.075518,-0.299205,0.920063
1630415925710,0.08174,-0.310856,0.9119499999999999
1630415925720,0.087962,-0.318115,0.905118
1630415925729,0.096258,-0.314394,0.909632
1630415925739,0.10144299999999999,-0.31232,0.911401
1630415925748,0.102968,-0.311222,0.906338
1630415925758,0.098637,-0.308172,0.906643
1630415925768,0.092232,-0.30597599999999997,0.903593
1630415925777,0.084912,-0.308538,0.893894
1630415925787,0.07740899999999999,-0.30872099999999997,0.888038
1630415925796,0.07448099999999999,-0.31354,0.882304
1630415925806,0.07381,-0.319579,0.87901
1630415925816,0.078385,-0.323849,0.875838
1630415925825,0.081679,-0.321287,0.868579
1630415925835,0.085949,-0.31415,0.861808
1630415925844,0.082289,-0.30628099999999997,0.846924
1630415925854,0.081191,-0.307867,0.836737
1630415925864,0.074359,-0.288164,0.830271
1630415925873,0.06447699999999999,-0.275293,0.821548
1630415925883,0.055265999999999996,-0.264313,0.814167
1630415925892,0.051179,-0.25193,0.806786
1630415925902,0.044042,-0.239425,0.807457
1630415925912,0.038491,-0.235765,0.815936
1630415925921,0.03782,-0.225883,0.8235
1630415925931,0.036905,-0.219112,0.825269
1630415925940,0.030622,-0.20136099999999998,0.8221579999999999
1630415925950,0.016531,-0.183305,0.822341
1630415925960,0.0042699999999999995,-0.166103,0.828929
1630415925969,-0.003965,-0.145363,0.8395429999999999
1630415925979,-0.014213,-0.12224399999999999,0.856806
1630415925988,-0.024766,-0.101199,0.87779
1630415925998,-0.033916,-0.079849,0.905728
1630415926008,-0.044102999999999996,-0.059292,0.942206
1630415926017,-0.05978,-0.029402,0.993934
1630415926027,-0.076616,0.005856,1.054995
1630415926036,-0.093879,0.028364999999999998,1.112762
1630415926046,-0.107848,0.038125,1.153876
1630415926056,-0.114619,0.034282,1.1712
1630415926065,-0.115656,0.020069,1.171078
1630415926075,-0.114253,0.0064659999999999995,1.165466
1630415926084,-0.108275,-0.0071979999999999995,1.160525
1630415926094,-0.10376099999999999,-0.020679,1.162965
1630415926104,-0.09943,-0.025742,1.171444
1630415926113,-0.092415,-0.030012,1.1764459999999999
1630415926123,-0.083814,-0.043676,1.175897
1630415926132,-0.075396,-0.052582,1.161501
1630415926142,-0.065453,-0.059719,1.139297
1630415926152,-0.054046,-0.061671,1.108126
1630415926161,-0.045262,-0.061488,1.074088
1630415926171,-0.036295,-0.063684,1.052616
1630415926180,-0.027145,-0.07015,1.040111
1630415926190,-0.020618,-0.071187,1.034011
1630415926200,-0.013542,-0.064599,1.035048
1630415926209,-0.00976,-0.054351,1.037305
1630415926219,-0.009699,-0.040320999999999996,1.042856
1630415926228,-0.010248,-0.022509,1.04493
1630415926238,-0.010797,-0.009394,1.0309
1630415926248,-0.010309,0.006161,1.008818
1630415926257,-0.011956,0.026474,0.9961909999999999
1630415926267,-0.017385,0.047458,0.989237
1630415926276,-0.022935999999999998,0.06954,0.981185
1630415926286,-0.03599,0.098027,0.978318
1630415926296,-0.048251,0.127368,0.977464
1630415926305,-0.057523,0.155672,0.98271
1630415926315,-0.065636,0.187087,0.996862
1630415926324,-0.072346,0.214537,1.014308
1630415926334,-0.079239,0.234667,1.019432
1630415926344,-0.08588799999999999,0.248758,1.021506
1630415926353,-0.090341,0.253394,1.020225
1630415926363,-0.09558699999999999,0.24827,1.007171
1630415926372,-0.100101,0.235826,0.992043
1630415926382,-0.102968,0.220088,0.9846619999999999
1630415926392,-0.104005,0.211243,0.979538
1630415926401,-0.10467599999999999,0.205509,0.9745969999999999
1630415926411,-0.103822,0.204838,0.9767319999999999
1630415926420,-0.102785,0.205814,0.976671
1630415926430,-0.09991799999999999,0.206851,0.969168
1630415926440,-0.097417,0.20618,0.958432
1630415926449,-0.097173,0.201483,0.947757
1630415926459,-0.098881,0.194956,0.935496
1630415926468,-0.1037,0.18849,0.918843
1630415926478,-0.108519,0.185135,0.899506
1630415926488,-0.11345999999999999,0.185501,0.884622
1630415926497,-0.11834,0.187392,0.8848659999999999
1630415926507,-0.12322,0.190808,0.894443
1630415926516,-0.127185,0.194956,0.908046
1630415926526,-0.130418,0.19337,0.916342
1630415926536,-0.133468,0.185074,0.913658
1630415926545,-0.136152,0.171593,0.909998
1630415926555,-0.140788,0.161406,0.908778
1630415926564,-0.148779,0.158051,0.911157
1630415926574,-0.15921,0.157624,0.909754
1630415926584,-0.166774,0.158661,0.912499
1630415926593,-0.175924,0.170434,0.926285
1630415926603,-0.183366,0.18483,0.940071
1630415926612,-0.188978,0.193614,0.939644
1630415926622,-0.196481,0.197457,0.931287
1630415926632,-0.199653,0.19983599999999999,0.92476
1630415926641,-0.19947,0.202764,0.916891
1630415926651,-0.203618,0.204289,0.904569
1630415926660,-0.214537,0.204472,0.889746
1630415926670,-0.227957,0.203008,0.87718
1630415926680,-0.23954699999999998,0.20069,0.8638819999999999
1630415926689,-0.246989,0.194712,0.8474119999999999
1630415926699,-0.253516,0.190442,0.8313079999999999
1630415926708,-0.257664,0.189771,0.815265
1630415926718,-0.261324,0.19215,0.797941
1630415926728,-0.266326,0.21185299999999999,0.800503
1630415926737,-0.269986,0.24235299999999999,0.831674
1630415926747,-0.273402,0.268034,0.8662
1630415926756,-0.27755,0.279685,0.8827309999999999
1630415926766,-0.280783,0.278282,0.890905
1630415926776,-0.283711,0.268156,0.889075
1630415926785,-0.289323,0.254614,0.877119
1630415926795,-0.293288,0.24644,0.873154
1630415926804,-0.298046,0.24326799999999998,0.891393
1630415926814,-0.30561,0.241682,0.92232
1630415926824,-0.313967,0.24046199999999998,0.962824
1630415926833,-0.32012799999999997,0.247965,0.9995459999999999
1630415926843,-0.319701,0.248758,1.018212
1630415926852,-0.31537,0.250466,1.020347
1630415926862,-0.307257,0.250161,1.012356
1630415926872,-0.302011,0.250344,1.009062
1630415926881,-0.297802,0.253638,1.013698
1630415926891,-0.300486,0.257359,1.022421
1630415926900,-0.304817,0.25559,1.0304119999999999
1630415926910,-0.303597,0.250466,1.047553
1630415926920,-0.293288,0.23546,1.05286
1630415926929,-0.28243,0.223077,1.059143
1630415926939,-0.271267,0.215635,1.063962
1630415926948,-0.25851799999999997,0.203984,1.048712
1630415926958,-0.247172,0.18995399999999998,1.016443
1630415926968,-0.234484,0.173057,0.982039
1630415926977,-0.2196,0.160552,0.951234
1630415926987,-0.208986,0.155733,0.938668
1630415926996,-0.198128,0.151707,0.943914
1630415927006,-0.187514,0.13725,0.950441
1630415927016,-0.181658,0.128161,0.974658
1630415927025,-0.183915,0.130906,1.01077
1630415927035,-0.185501,0.130357,1.031205
1630415927044,-0.185928,0.127002,1.031571
1630415927054,-0.181841,0.127124,1.021689
1630415927064,-0.17854699999999998,0.12986899999999998,1.006317
1630415927073,-0.174826,0.139568,0.992897
1630415927083,-0.171715,0.152866,0.987895
1630415927092,-0.17019,0.167384,0.984418
1630415927102,-0.168299,0.178791,0.980209
1630415927112,-0.164517,0.187392,0.967948
1630415927121,-0.160491,0.19032,0.950502
1630415927131,-0.158722,0.194468,0.936045
1630415927140,-0.157441,0.205143,0.926346
1630415927150,-0.156526,0.219661,0.922442
1630415927160,-0.155184,0.225212,0.920917
1630415927169,-0.152134,0.223748,0.922503
1630415927179,-0.14713199999999999,0.21490299999999998,0.919758
1630415927188,-0.14152,0.202642,0.915488
1630415927198,-0.13450499999999999,0.189161,0.920978
1630415927208,-0.131821,0.179279,0.928603
1630415927217,-0.131699,0.17580199999999999,0.939156
1630415927227,-0.132675,0.176778,0.952271
1630415927236,-0.134383,0.17885199999999998,0.963617
1630415927246,-0.139934,0.185074,0.9712419999999999
1630415927256,-0.144143,0.194102,0.9712419999999999
1630415927265,-0.151219,0.209169,0.963068
1630415927275,-0.158722,0.221796,0.953125
1630415927284,-0.16591999999999998,0.230702,0.949587
1630415927294,-0.171715,0.238876,0.952942
1630415927304,-0.176046,0.244,0.962214
1630415927313,-0.18056,0.249612,0.96685
1630415927323,-0.182329,0.253211,0.962336
1630415927332,-0.181658,0.256444,0.9551379999999999
1630415927342,-0.181292,0.260104,0.943304
1630415927352,-0.182207,0.26352,0.9372039999999999
1630415927361,-0.18287799999999999,0.265777,0.931165
1630415927371,-0.182146,0.269376,0.9283589999999999
1630415927380,-0.181597,0.27327999999999997,0.929213
1630415927390,-0.181048,0.273036,0.9280539999999999
1630415927400,-0.181475,0.273707,0.923357
1630415927409,-0.182512,0.275476,0.916403
1630415927419,-0.185196,0.274988,0.910059
1630415927428,-0.188917,0.274927,0.909571
1630415927438,-0.189283,0.269437,0.900238
1630415927448,-0.189222,0.259677,0.896761
1630415927457,-0.19178399999999998,0.25376,0.905362
1630415927467,-0.190625,0.244854,0.9012749999999999
1630415927476,-0.186233,0.23308099999999998,0.892918
1630415927486,-0.182817,0.224053,0.88877
1630415927496,-0.180194,0.21459799999999998,0.885293
1630415927505,-0.17854699999999998,0.207461,0.890844
1630415927515,-0.17995,0.204411,0.907497
1630415927524,-0.181841,0.202337,0.9259189999999999
1630415927534,-0.18422,0.203984,0.945012
1630415927544,-0.183732,0.207095,0.957944
1630415927553,-0.182756,0.20752199999999998,0.96868
1630415927563,-0.183366,0.20935199999999998,0.9816119999999999
1630415927572,-0.18531799999999998,0.21276799999999998,0.993934
1630415927582,-0.190991,0.21953899999999998,1.003023
1630415927592,-0.197823,0.229848,1.007232
1630415927601,-0.20191,0.23912,1.006988
1630415927611,-0.20227599999999998,0.24705,0.9977159999999999
1630415927620,-0.20044599999999999,0.252174,0.990945
1630415927630,-0.195932,0.254309,0.987529
1630415927640,-0.18812399999999999,0.255773,0.978806
1630415927649,-0.177754,0.254492,0.969229
1630415927659,-0.166713,0.255773,0.963312
1630415927668,-0.15823399999999999,0.256261,0.955077
1630415927678,-0.153232,0.255041,0.941352
1630415927688,-0.148596,0.253272,0.9237839999999999
1630415927697,-0.144387,0.249246,0.902983
1630415927707,-0.140117,0.247233,0.883585
1630415927716,-0.136274,0.248331,0.87718
1630415927726,-0.134322,0.250161,0.881084
1630415927736,-0.132858,0.247111,0.881084
1630415927745,-0.128222,0.244122,0.883768
1630415927755,-0.12456199999999999,0.24278,0.896639
1630415927764,-0.116022,0.232288,0.9085949999999999
1630415927774,-0.10553,0.218502,0.913292
1630415927784,-0.098454,0.210267,0.922503
1630415927793,-0.09467199999999999,0.209596,0.932568
1630415927803,-0.093086,0.209108,0.941047
1630415927812,-0.090524,0.205753,0.945561
1630415927822,-0.088572,0.20227599999999998,0.953064
1630415927832,-0.087535,0.198128,0.965508
1630415927841,-0.088999,0.19733499999999998,0.981856
1630415927851,-0.090768,0.195688,0.99674
1630415927860,-0.092537,0.194468,1.013332
1630415927870,-0.096014,0.191967,1.022421
1630415927880,-0.098881,0.187087,1.023519
1630415927889,-0.103822,0.185379,1.020286
1630415927899,-0.109373,0.18781899999999999,1.01809
1630415927908,-0.11577799999999999,0.192272,1.011563
1630415927918,-0.122793,0.196908,1.005646
1630415927928,-0.132065,0.199592,1.001986
1630415927937,-0.137921,0.201178,0.998265
1630415927947,-0.14152,0.20227599999999998,0.995215
1630415927956,-0.143716,0.205936,0.994605
1630415927966,-0.146644,0.208315,0.98881
1630415927976,-0.149511,0.209474,0.978989
1630415927985,-0.15067,0.214354,0.9684969999999999
1630415927995,-0.153476,0.220637,0.963495
1630415928004,-0.156587,0.223687,0.959225
1630415928014,-0.161406,0.224846,0.950624
1630415928024,-0.15982,0.222528,0.9332389999999999
1630415928033,-0.158905,0.224724,0.9213439999999999
1630415928043,-0.158661,0.226554,0.912804
1630415928052,-0.161589,0.22813999999999998,0.901946
1630415928062,-0.16469999999999999,0.236131,0.899262
1630415928072,-0.166103,0.244732,0.900116
1630415928081,-0.166774,0.251686,0.899079
1630415928091,-0.167689,0.25973799999999997,0.903227
1630415928100,-0.168726,0.268339,0.905301
1630415928110,-0.169214,0.274561,0.904447
1630415928120,-0.17238599999999998,0.276391,0.8982249999999999
1630415928129,-0.17629,0.281515,0.895297
1630415928139,-0.179218,0.291397,0.904691
1630415928148,-0.180682,0.29768,0.918477
1630415928158,-0.180926,0.30256,0.9344589999999999
1630415928168,-0.178913,0.307989,0.9478179999999999
1630415928177,-0.174155,0.31171,0.956785
1630415928187,-0.170312,0.316102,0.962336
1630415928196,-0.165554,0.31842,0.966789
1630415928206,-0.16097899999999998,0.31707799999999997,0.969229
1630415928216,-0.157441,0.314272,0.966301
1630415928225,-0.155672,0.312442,0.963434
1630415928235,-0.152744,0.311893,0.959286
1630415928244,-0.149511,0.310063,0.9523929999999999
1630415928254,-0.147986,0.310063,0.948794
1630415928264,-0.144082,0.307135,0.943365
1630415928273,-0.141703,0.304634,0.93879
1630415928283,-0.138653,0.303109,0.93574
1630415928292,-0.135664,0.300913,0.9317139999999999
1630415928302,-0.134139,0.298778,0.93147
1630415928312,-0.13450499999999999,0.295362,0.929396
1630415928321,-0.13298,0.290726,0.9280539999999999
1630415928331,-0.132309,0.289872,0.92842
1630415928340,-0.130723,0.28609,0.925858
1630415928350,-0.130113,0.282918,0.922808
1630415928360,-0.13176,0.28426,0.919758
1630415928369,-0.136762,0.287005,0.916464
1630415928379,-0.138592,0.2867,0.914268
1630415928388,-0.139751,0.286334,0.914024
1630415928398,-0.143228,0.289323,0.914024
1630415928408,-0.145912,0.292678,0.916464
1630415928417,-0.147559,0.295728,0.917806
1630415928427,-0.149938,0.298778,0.920063
1630415928436,-0.152195,0.30073,0.920612
1630415928446,-0.154391,0.302377,0.922381
1630415928456,-0.155672,0.303292,0.920551
1630415928465,-0.156892,0.30561,0.9189039999999999
1630415928475,-0.16097899999999998,0.30866,0.922198
1630415928484,-0.163175,0.31171,0.9311039999999999
1630415928494,-0.16561499999999998,0.312381,0.93757
1630415928504,-0.167689,0.313601,0.943609
1630415928513,-0.167384,0.31232,0.944585
1630415928523,-0.169214,0.307928,0.943487
1630415928532,-0.17055599999999999,0.304512,0.939766
1630415928542,-0.17177599999999998,0.30744,0.940376
1630415928552,-0.172569,0.30567099999999997,0.941657
1630415928561,-0.174643,0.30841599999999997,0.948001
1630415928571,-0.178059,0.305732,0.955199
1630415928580,-0.179523,0.301889,0.956724
1630415928590,-0.179828,0.302316,0.9560529999999999
1630415928600,-0.179279,0.299937,0.952637
1630415928609,-0.17751,0.297863,0.952149
1630415928619,-0.175985,0.297741,0.945927
1630415928628,-0.171898,0.29334899999999997,0.936838
1630415928638,-0.167933,0.288286,0.9298839999999999
1630415928648,-0.167872,0.282064,0.930006
1630415928657,-0.170495,0.28072199999999997,0.933178
1630415928667,-0.172874,0.282979,0.936533
1630415928676,-0.175619,0.286578,0.941169
1630415928686,-0.175497,0.293227,0.94428
1630415928696,-0.177998,0.300974,0.9453779999999999
1630415928705,-0.18196299999999999,0.306464,0.9455
1630415928715,-0.18727,0.305793,0.94672
1630415928724,-0.19056399999999998,0.304024,0.948184
1630415928734,-0.195078,0.302987,0.955382
1630415928744,-0.198677,0.302499,0.969229
1630415928753,-0.201178,0.302255,0.983564
1630415928763,-0.20014099999999999,0.301828,0.988932
1630415928772,-0.19825,0.302316,0.988139
1630415928782,-0.195993,0.300303,0.9794769999999999
1630415928792,-0.196298,0.29853399999999997,0.97051
1630415928801,-0.19550499999999998,0.299205,0.965996
1630415928811,-0.195993,0.295606,0.958005
1630415928820,-0.194651,0.290787,0.941291
1630415928830,-0.192699,0.293105,0.9274439999999999
1630415928840,-0.19086899999999998,0.297253,0.922991
1630415928849,-0.1891,0.299022,0.915732
1630415928859,-0.189466,0.300974,0.913353
1630415928868,-0.18812399999999999,0.304634,0.914695
1630415928878,-0.187453,0.311283,0.918965
1630415928888,-0.186538,0.312259,0.91866
1630415928897,-0.187331,0.30963599999999997,0.9116449999999999
1630415928907,-0.188368,0.308355,0.903654
1630415928916,-0.188368,0.310795,0.898164
1630415928926,-0.187758,0.314089,0.8939549999999999
1630415928936,-0.19086899999999998,0.3172,0.8942599999999999
1630415928945,-0.192943,0.31799299999999997,0.889502
1630415928955,-0.197091,0.32104299999999997,0.881023
1630415928964,-0.199348,0.32025,0.8757159999999999
1630415928974,-0.200019,0.323056,0.874923
1630415928984,-0.200385,0.324276,0.881084
1630415928993,-0.198616,0.322629,0.885598
1630415929003,-0.196542,0.318664,0.887367
1630415929012,-0.193553,0.315492,0.885537
1630415929022,-0.188612,0.310124,0.8805959999999999
1630415929032,-0.184586,0.303048,0.873703
1630415929041,-0.180804,0.297375,0.868091
1630415929051,-0.178974,0.294081,0.8647969999999999
1630415929060,-0.178181,0.29304399999999997,0.860954
1630415929070,-0.178669,0.29463,0.859978
1630415929080,-0.180011,0.297131,0.860588
1630415929089,-0.187331,0.297558,0.86376
1630415929099,-0.194163,0.296582,0.870897
1630415929108,-0.197274,0.294996,0.882914
1630415929118,-0.197152,0.289689,0.896517
1630415929128,-0.195078,0.281454,0.906704
1630415929137,-0.19215,0.271694,0.915122
1630415929147,-0.19032,0.265716,0.921893
1630415929156,-0.189161,0.26352,0.9295789999999999
1630415929166,-0.188185,0.259189,0.938668
1630415929176,-0.189283,0.25803,0.948977
1630415929185,-0.189527,0.255895,0.956419
1630415929195,-0.190137,0.253333,0.962214
1630415929204,-0.19276,0.252662,0.96624
1630415929214,-0.190198,0.248636,0.972889
1630415929224,-0.189283,0.242597,0.978013
1630415929233,-0.187514,0.234911,0.98088
1630415929243,-0.18422,0.229177,0.981246
1630415929252,-0.180804,0.224358,0.981185
1630415929262,-0.176046,0.22014899999999998,0.9791719999999999
1630415929272,-0.170068,0.21801399999999999,0.976549
1630415929281,-0.166774,0.217587,0.973621
1630415929291,-0.162565,0.215391,0.97051
1630415929300,-0.159332,0.212829,0.967216
1630415929310,-0.156038,0.209413,0.96441
1630415929320,-0.153354,0.206363,0.962214
1630415929329,-0.149755,0.20252,0.962092
1630415929339,-0.147376,0.199714,0.963617
1630415929348,-0.14396,0.195993,0.964715
1630415929358,-0.140544,0.193187,0.964044
1630415929368,-0.139141,0.192516,0.96258
1630415929377,-0.136579,0.191906,0.959164
1630415929387,-0.135786,0.19337,0.9575779999999999
1630415929396,-0.134932,0.196298,0.954284
1630415929406,-0.133712,0.198494,0.954101
1630415929416,-0.132248,0.19947,0.9539179999999999
1630415929425,-0.130601,0.19794499999999998,0.951417
1630415929435,-0.13115,0.198494,0.954406
1630415929444,-0.131394,0.199592,0.953735
1630415929454,-0.131516,0.201239,0.9526979999999999
1630415929464,-0.133346,0.20227599999999998,0.951661
1630415929473,-0.133712,0.203069,0.9511729999999999
1630415929483,-0.13541999999999998,0.205936,0.95099
1630415929492,-0.13663999999999998,0.20691199999999998,0.949892
1630415929502,-0.136091,0.205326,0.950441
1630415929512,-0.135298,0.201788,0.9499529999999999
1630415929521,-0.13298,0.197396,0.9508679999999999
1630415929531,-0.131882,0.194102,0.9526979999999999
1630415929540,-0.12956399999999998,0.18903899999999998,0.952881
1630415929550,-0.127978,0.182695,0.953674
1630415929560,-0.126392,0.17763199999999998,0.957395
1630415929569,-0.125843,0.172508,0.962702
1630415929579,-0.124318,0.168909,0.9654469999999999
1630415929588,-0.125538,0.166164,0.968741
1630415929598,-0.125721,0.16439499999999999,0.971425
1630415929608,-0.12749,0.162565,0.971303
1630415929617,-0.128588,0.160613,0.9699
1630415929627,-0.13054,0.161162,0.9699
1630415929636,-0.132492,0.16128399999999998,0.97051
1630415929646,-0.133712,0.160796,0.971974
1630415929656,-0.133224,0.160125,0.9727669999999999
1630415929665,-0.133712,0.160491,0.97539
1630415929675,-0.134627,0.16067399999999998,0.9773419999999999
1630415929684,-0.135542,0.16043,0.980331
1630415929694,-0.13572499999999998,0.160186,0.980026
1630415929704,-0.13602999999999998,0.162321,0.98149
1630415929713,-0.136396,0.16348,0.981124
1630415929723,-0.137616,0.167506,0.97783
1630415929732,-0.139446,0.17263,0.97722
1630415929742,-0.142252,0.18257299999999999,0.979233
1630415929752,-0.143411,0.186111,0.97905
1630415929761,-0.14219099999999998,0.18727,0.973804
1630415929771,-0.143472,0.188917,0.972218
1630415929780,-0.143655,0.19178399999999998,0.9706319999999999
1630415929790,-0.14249599999999998,0.19458999999999999,0.969534
1630415929800,-0.14249599999999998,0.198067,0.964288
1630415929809,-0.141825,0.20435,0.9591029999999999
1630415929819,-0.14066599999999999,0.20874199999999998,0.9572729999999999
1630415929828,-0.138836,0.210755,0.954467
1630415929838,-0.136884,0.213927,0.9536129999999999
1630415929848,-0.13663999999999998,0.215696,0.952027
1630415929857,-0.136457,0.21892899999999998,0.953247
1630415929867,-0.134871,0.220942,0.95404
1630415929876,-0.132553,0.22228399999999998,0.950136
1630415929886,-0.131882,0.22204,0.946354
1630415929896,-0.130601,0.223992,0.943121
1630415929905,-0.130052,0.224602,0.939034
1630415929915,-0.130052,0.225944,0.936167
1630415929924,-0.129198,0.228323,0.9341539999999999
1630415929934,-0.129686,0.233752,0.934886
1630415929944,-0.130662,0.238205,0.933422
1630415929953,-0.13078399999999998,0.240035,0.934398
1630415929963,-0.13176,0.242414,0.932812
1630415929972,-0.131821,0.242414,0.92903
1630415929982,-0.131638,0.239425,0.92537
1630415929992,-0.131455,0.239486,0.9243939999999999
1630415930001,-0.131882,0.238815,0.927688
1630415930011,-0.131028,0.238388,0.934947
1630415930020,-0.129137,0.235277,0.940254
1630415930030,-0.127429,0.233874,0.944951
1630415930040,-0.124379,0.23460599999999998,0.952271
1630415930049,-0.122488,0.233874,0.958554
1630415930059,-0.120048,0.232044,0.961665
1630415930068,-0.120109,0.23155599999999998,0.964593
1630415930078,-0.119804,0.229482,0.9699
1630415930088,-0.119255,0.22691999999999998,0.972828
1630415930097,-0.12163399999999999,0.225456,0.9739869999999999
1630415930107,-0.121451,0.220637,0.9721569999999999
1630415930116,-0.12254899999999999,0.21770899999999999,0.967704
1630415930126,-0.123037,0.215574,0.966911
1630415930136,-0.123464,0.212402,0.971486
1630415930145,-0.122,0.208193,0.976915
1630415930155,-0.120963,0.205753,0.980819
1630415930164,-0.11956,0.203008,0.982466
1630415930174,-0.119804,0.20313,0.9825269999999999
1630415930184,-0.12017,0.205631,0.9810019999999999
1630415930193,-0.120475,0.20782699999999998,0.977464
1630415930203,-0.122183,0.21154799999999999,0.972706
1630415930212,-0.123464,0.215025,0.9688019999999999
1630415930222,-0.12285399999999999,0.215025,0.965935
1630415930232,-0.122671,0.214659,0.964898
1630415930241,-0.12163399999999999,0.213744,0.965874
1630415930251,-0.120963,0.212097,0.967521
1630415930260,-0.119987,0.211487,0.96807
1630415930270,-0.118157,0.211609,0.968314
1630415930280,-0.118523,0.213012,0.966789
1630415930289,-0.117608,0.21215799999999999,0.9638
1630415930299,-0.117608,0.211426,0.960079
1630415930308,-0.11699799999999999,0.211731,0.9581879999999999
1630415930318,-0.118035,0.213561,0.959652
1630415930328,-0.118523,0.212097,0.960994
1630415930337,-0.119377,0.211365,0.960079
1630415930347,-0.12017,0.210511,0.958859
1630415930356,-0.12071899999999999,0.211243,0.956602
1630415930366,-0.121817,0.210023,0.9569679999999999
1630415930376,-0.121512,0.209291,0.956297
1630415930385,-0.121756,0.210084,0.955992
1630415930395,-0.123403,0.209718,0.9557479999999999
1630415930404,-0.122366,0.209901,0.956419
1630415930414,-0.122976,0.210389,0.956785
1630415930424,-0.12315899999999999,0.209474,0.9577
1630415930433,-0.123403,0.209169,0.956419
1630415930443,-0.124684,0.20752199999999998,0.956114
1630415930452,-0.124196,0.20599699999999999,0.9566629999999999
1630415930462,-0.12456199999999999,0.204472,0.9569679999999999
1630415930472,-0.125172,0.203252,0.958432
1630415930481,-0.124806,0.202947,0.959591
1630415930491,-0.12566,0.204411,0.959957
1630415930500,-0.126026,0.206424,0.960689
1630415930510,-0.127124,0.207888,0.9609329999999999
1630415930520,-0.128893,0.210023,0.961787
1630415930529,-0.129625,0.210938,0.960079
1630415930539,-0.129625,0.21167,0.958066
1630415930548,-0.13115,0.213866,0.959347
1630415930558,-0.13047899999999998,0.214964,0.960262
1630415930568,-0.130967,0.215635,0.960872
1630415930577,-0.13017399999999998,0.216367,0.961604
1630415930587,-0.129808,0.215391,0.962275
1630415930596,-0.128832,0.215025,0.960994
1630415930606,-0.128405,0.21368299999999998,0.961909
1630415930616,-0.128222,0.213927,0.9624579999999999
1630415930625,-0.128527,0.21411,0.962275
1630415930635,-0.127795,0.214842,0.96319
1630415930644,-0.127246,0.21398799999999998,0.963129
1630415930654,-0.127795,0.213805,0.9624579999999999
1630415930664,-0.127734,0.212707,0.962702
1630415930673,-0.12627,0.21167,0.96136
1630415930683,-0.125904,0.210755,0.961116
1630415930692,-0.126026,0.20984,0.9594079999999999
1630415930702,-0.12566,0.207705,0.957456
1630415930712,-0.125294,0.206973,0.957822
1630415930721,-0.124684,0.207278,0.956724
1630415930731,-0.125233,0.207278,0.9569679999999999
1630415930740,-0.125965,0.206973,0.956297
1630415930750,-0.126636,0.207278,0.956175
1630415930760,-0.127368,0.206729,0.9551379999999999
1630415930769,-0.127856,0.20630199999999999,0.95526
1630415930779,-0.1281,0.207095,0.9557479999999999
1630415930788,-0.128161,0.206851,0.9551379999999999
1630415930798,-0.128832,0.207461,0.953979
1630415930808,-0.129686,0.208803,0.952454
1630415930817,-0.130418,0.20965699999999998,0.952576
1630415930827,-0.131638,0.20935199999999998,0.953491
1630415930836,-0.132919,0.208864,0.953735
1630415930846,-0.133956,0.207766,0.954345
1630415930856,-0.133285,0.20721699999999998,0.95526
1630415930865,-0.134444,0.205326,0.9557479999999999
1630415930875,-0.135786,0.204533,0.956724
1630415930884,-0.13480999999999999,0.203679,0.958005
1630415930894,-0.135847,0.202825,0.957639
1630415930904,-0.135054,0.20191,0.9577
1630415930913,-0.135237,0.200324,0.958615
1630415930923,-0.136152,0.199226,0.960384
1630415930932,-0.135542,0.199348,0.961116
1630415930942,-0.135054,0.197213,0.962702
1630415930952,-0.13480999999999999,0.195688,0.963312
1630415930961,-0.136213,0.194407,0.962336
1630415930971,-0.135237,0.192882,0.962519
1630415930980,-0.135298,0.19337,0.9618479999999999
1630415930990,-0.134322,0.195322,0.9609329999999999
1630415931000,-0.134871,0.196969,0.960994
1630415931009,-0.13511499999999999,0.19794499999999998,0.962336
1630415931019,-0.135603,0.197152,0.961299
1630415931028,-0.135237,0.194163,0.9603229999999999
1630415931038,-0.134627,0.191662,0.959896
1630415931048,-0.133834,0.189222,0.959042
1630415931057,-0.134322,0.187392,0.960262
1630415931067,-0.133834,0.186538,0.962824
1630415931076,-0.133651,0.185196,0.963983
1630415931086,-0.132553,0.182939,0.964959
1630415931096,-0.133468,0.181048,0.96563
1630415931105,-0.133773,0.17976699999999998,0.9657519999999999
1630415931115,-0.13359,0.178425,0.96624
1630415931124,-0.134261,0.1769,0.96502
1630415931134,-0.134139,0.17580199999999999,0.9651419999999999
1630415931144,-0.13419999999999999,0.175131,0.965386
1630415931153,-0.134688,0.173667,0.9660569999999999
1630415931163,-0.135237,0.17330099999999998,0.965386
1630415931172,-0.135542,0.172752,0.967033
1630415931182,-0.135908,0.172874,0.967643
1630415931192,-0.135847,0.172264,0.967826
1630415931201,-0.13602999999999998,0.172813,0.967521
1630415931211,-0.135359,0.172569,0.968741
1630415931220,-0.135908,0.172203,0.968558
1630415931230,-0.135176,0.171349,0.968253
1630415931240,-0.134444,0.17141,0.966728
1630415931249,-0.135359,0.172142,0.966179
1630415931259,-0.13480999999999999,0.173057,0.965325
1630415931268,-0.13480999999999999,0.17330099999999998,0.963922
1630415931278,-0.135237,0.174887,0.962214
1630415931288,-0.134749,0.175009,0.963312
1630415931297,-0.134078,0.174094,0.962824
1630415931307,-0.13450499999999999,0.172203,0.962031
1630415931316,-0.134383,0.172325,0.963861
1630415931326,-0.134566,0.170617,0.963739
1630415931336,-0.134566,0.169336,0.963678
1630415931345,-0.133895,0.168238,0.963617
1630415931355,-0.13419999999999999,0.167689,0.964166
1630415931364,-0.134566,0.16713999999999998,0.9663619999999999
1630415931374,-0.133529,0.165493,0.9675819999999999
1630415931384,-0.13359,0.162992,0.969168
1630415931393,-0.132919,0.161772,0.969168
1630415931403,-0.132492,0.160857,0.9703269999999999
1630415931412,-0.132736,0.160613,0.970266
1630415931422,-0.131943,0.160186,0.969473
1630415931432,-0.13047899999999998,0.158783,0.968741
1630415931441,-0.131089,0.158173,0.968375
1630415931451,-0.131455,0.157807,0.968436
1630415931460,-0.132065,0.15823399999999999,0.968924
1630415931470,-0.131577,0.157502,0.9700219999999999
1630415931480,-0.130845,0.157014,0.969656
1630415931489,-0.12956399999999998,0.156831,0.971364
1630415931499,-0.130601,0.155489,0.970388
1630415931508,-0.129808,0.155489,0.969351
1630415931518,-0.12932,0.153964,0.967948
1630415931528,-0.129808,0.153415,0.968253
1630415931537,-0.129503,0.15433,0.96929
1630415931547,-0.12864899999999999,0.154269,0.9697169999999999
1630415931556,-0.129747,0.154086,0.9700219999999999
1630415931566,-0.129198,0.154147,0.9703269999999999
1630415931576,-0.129625,0.15329299999999998,0.9699
1630415931585,-0.129076,0.1525,0.969961
1630415931595,-0.12925899999999999,0.152317,0.969839
1630415931604,-0.129076,0.15207299999999999,0.9688019999999999
1630415931614,-0.128466,0.150853,0.967826
1630415931624,-0.129198,0.15128,0.967765
1630415931633,-0.129137,0.151402,0.968558
1630415931643,-0.12932,0.151768,0.969168
1630415931652,-0.128893,0.150792,0.968924
1630415931662,-0.12834399999999999,0.152012,0.9684969999999999
1630415931672,-0.129442,0.154086,0.96868
1630415931681,-0.128771,0.153964,0.969046
1630415931691,-0.12956399999999998,0.15420799999999998,0.968558
1630415931700,-0.13017399999999998,0.154452,0.968558
1630415931710,-0.12932,0.153171,0.968558
1630415931720,-0.128222,0.150304,0.968985
1630415931729,-0.128283,0.149572,0.970144
1630415931739,-0.12864899999999999,0.15006,0.970266
1630415931748,-0.127429,0.15128,0.970815
1630415931758,-0.12627,0.154574,0.971669
1630415931768,-0.128222,0.157136,0.9715469999999999
1630415931777,-0.1281,0.155672,0.9700219999999999
1630415931787,-0.127307,0.15420799999999998,0.967155
1630415931796,-0.127429,0.151036,0.966728
1630415931806,-0.125965,0.149999,0.967765
1630415931816,-0.125477,0.147925,0.967033
1630415931825,-0.124379,0.14865699999999998,0.968741
1630415931835,-0.12486699999999999,0.14835199999999998,0.970266
1630415931844,-0.125111,0.147803,0.9721569999999999
1630415931854,-0.125538,0.14804699999999998,0.971791
1630415931864,-0.126392,0.145363,0.971974
1630415931873,-0.127307,0.144814,0.972584
1630415931883,-0.127551,0.143411,0.9724619999999999
1630415931892,-0.127246,0.141825,0.974048
1630415931902,-0.125904,0.140117,0.9770369999999999
1630415931912,-0.125782,0.1403,0.9776469999999999
1630415931921,-0.126453,0.140239,0.977403
1630415931931,-0.127002,0.140849,0.975939
1630415931940,-0.126026,0.141947,0.975146
1630415931950,-0.12688,0.143411,0.97417
1630415931960,-0.127246,0.145302,0.972584
1630415931969,-0.127429,0.147986,0.97112
1630415931979,-0.128405,0.14926699999999998,0.970144
1630415931988,-0.129686,0.15067,0.96929
1630415931998,-0.128161,0.150426,0.969473
1630415932008,-0.126758,0.15067,0.967948
1630415932017,-0.126941,0.15189,0.968558
1630415932027,-0.126697,0.154147,0.9675819999999999
1630415932036,-0.126575,0.15481799999999998,0.965813
1630415932046,-0.126209,0.155794,0.965264
1630415932056,-0.125782,0.156221,0.964105
1630415932065,-0.12688,0.157014,0.962946
1630415932075,-0.126636,0.15738,0.962336
1630415932084,-0.12627,0.157258,0.9638
1630415932094,-0.125843,0.156953,0.965813
1630415932104,-0.125782,0.155428,0.967033
1630415932113,-0.125233,0.154696,0.968436
1630415932123,-0.125111,0.1525,0.969046
1630415932132,-0.124806,0.151036,0.970266
1630415932142,-0.123708,0.150792,0.97112
1630415932152,-0.124318,0.150426,0.971486
1630415932161,-0.124196,0.149816,0.971486
1630415932171,-0.124318,0.149633,0.97234
1630415932180,-0.12383,0.149938,0.972706
1630415932190,-0.124074,0.149816,0.9718519999999999
1630415932200,-0.122488,0.148718,0.97173
1630415932209,-0.122976,0.147864,0.970693
1630415932219,-0.12285399999999999,0.147498,0.97051
1630415932228,-0.123403,0.14713199999999999,0.971181
1630415932238,-0.122061,0.14713199999999999,0.971486
1630415932248,-0.122122,0.146461,0.970998
1630415932257,-0.121756,0.145912,0.971364
1630415932267,-0.121756,0.145668,0.970876
1630415932276,-0.12261,0.146156,0.969839
1630415932286,-0.123525,0.144997,0.970388
1630415932296,-0.123464,0.144204,0.9700219999999999
1630415932305,-0.12444,0.145546,0.970449
1630415932315,-0.124745,0.145485,0.970693
1630415932324,-0.125538,0.146034,0.971364
1630415932334,-0.126575,0.14743699999999998,0.970693
1630415932344,-0.126392,0.147803,0.970998
1630415932353,-0.127551,0.149328,0.970449
1630415932363,-0.128222,0.149999,0.9700219999999999
1630415932372,-0.128588,0.15189,0.968985
1630415932382,-0.130296,0.15359799999999998,0.96807
1630415932392,-0.13078399999999998,0.15433,0.967338
1630415932401,-0.13176,0.15481799999999998,0.965813
1630415932411,-0.132126,0.155306,0.963739
1630415932420,-0.132004,0.156465,0.963861
1630415932430,-0.133346,0.157014,0.964227
1630415932440,-0.133346,0.157685,0.963922
1630415932449,-0.132614,0.157136,0.964471
1630415932459,-0.132797,0.15799,0.9654469999999999
1630415932468,-0.13298,0.15792899999999999,0.967765
1630415932478,-0.132675,0.158478,0.968314
1630415932488,-0.133468,0.157258,0.969351
1630415932497,-0.132797,0.155794,0.97051
1630415932507,-0.132492,0.155367,0.970754
1630415932516,-0.13298,0.155489,0.97173
1630415932526,-0.133163,0.155916,0.971364
1630415932536,-0.132492,0.157441,0.9718519999999999
1630415932545,-0.131516,0.158356,0.9736819999999999
1630415932555,-0.130418,0.157258,0.9739869999999999
1630415932564,-0.12956399999999998,0.15372,0.972035
1630415932574,-0.127612,0.150975,0.969473
1630415932584,-0.126819,0.150182,0.971486
1630415932593,-0.125538,0.149206,0.971791
1630415932603,-0.124928,0.148718,0.971181
1630415932612,-0.12505,0.148779,0.971364
1630415932622,-0.124806,0.149206,0.971974
1630415932632,-0.124196,0.147986,0.9718519999999999
1630415932641,-0.123891,0.14743699999999998,0.9718519999999999
1630415932651,-0.123586,0.14518,0.972401
1630415932660,-0.124196,0.14249599999999998,0.972401
1630415932670,-0.122671,0.1403,0.972584
1630415932680,-0.122488,0.139202,0.972035
1630415932689,-0.122122,0.138836,0.971425
1630415932699,-0.12254899999999999,0.139263,0.970998
1630415932708,-0.12254899999999999,0.139812,0.971608
1630415932718,-0.12285399999999999,0.141215,0.9724619999999999
1630415932728,-0.123891,0.142679,0.972096
1630415932737,-0.124196,0.145546,0.971791
1630415932747,-0.124501,0.146766,0.9703269999999999
1630415932756,-0.125477,0.147986,0.968558
1630415932766,-0.125355,0.149633,0.968314
1630415932776,-0.125477,0.151158,0.9660569999999999
1630415932785,-0.125904,0.15268299999999999,0.964593
1630415932795,-0.126392,0.154086,0.965325
1630415932804,-0.125965,0.15390299999999998,0.964288
1630415932814,-0.12566,0.154147,0.964349
1630415932824,-0.125233,0.154696,0.964471
1630415932833,-0.12505,0.155062,0.96441
1630415932843,-0.125294,0.15451299999999998,0.965264
1630415932852,-0.12505,0.154757,0.9651419999999999
1630415932862,-0.12566,0.153842,0.964288
1630415932872,-0.124989,0.153232,0.965081
1630415932881,-0.125477,0.152744,0.966484
1630415932891,-0.124806,0.15237799999999999,0.968436
1630415932900,-0.124318,0.150731,0.970083
1630415932910,-0.124684,0.150243,0.9718519999999999
1630415932920,-0.125294,0.149084,0.970815
1630415932929,-0.126087,0.14945,0.9718519999999999
1630415932939,-0.126026,0.148718,0.97173
1630415932948,-0.125782,0.149389,0.972584
1630415932958,-0.125477,0.149206,0.970876
1630415932968,-0.126087,0.14823,0.970266
1630415932977,-0.125538,0.147559,0.970754
1630415932987,-0.125416,0.146766,0.9715469999999999
1630415932996,-0.12322,0.144875,0.972218
1630415933006,-0.123281,0.14396,0.97356
1630415933016,-0.121085,0.14274,0.9745969999999999
1630415933025,-0.12102399999999999,0.141215,0.97417
1630415933035,-0.121512,0.140178,0.974231
1630415933044,-0.12078,0.138592,0.97356
1630415933054,-0.120292,0.137006,0.974109
1630415933064,-0.119987,0.13572499999999998,0.975024
1630415933073,-0.120353,0.13450499999999999,0.975146
1630415933083,-0.119743,0.133468,0.974536
1630415933092,-0.119804,0.133468,0.975024
1630415933102,-0.119499,0.13237,0.9755119999999999
1630415933112,-0.119499,0.131638,0.975695
1630415933121,-0.119499,0.131394,0.976366
1630415933131,-0.11956,0.132309,0.976183
1630415933140,-0.12017,0.133224,0.97539
1630415933150,-0.119743,0.133956,0.97417
1630415933160,-0.121268,0.13450499999999999,0.9730719999999999
1630415933169,-0.122,0.135847,0.972035
1630415933179,-0.122488,0.137067,0.970754
1630415933188,-0.123464,0.138043,0.969229
1630415933198,-0.12364699999999999,0.139263,0.9684969999999999
1630415933208,-0.124013,0.139873,0.968314
1630415933217,-0.12456199999999999,0.140178,0.96868
1630415933227,-0.125843,0.1403,0.9691069999999999
1630415933236,-0.125843,0.141032,0.9694119999999999
1630415933246,-0.125782,0.1403,0.970205
1630415933256,-0.126514,0.139568,0.970815
1630415933265,-0.127185,0.138409,0.970754
1630415933275,-0.127246,0.137799,0.9709369999999999
1630415933284,-0.127795,0.137189,0.970083
1630415933294,-0.127673,0.136274,0.9709369999999999
1630415933304,-0.127612,0.138287,0.972035
1630415933313,-0.127185,0.14066599999999999,0.972401
1630415933323,-0.127307,0.139934,0.97234
1630415933332,-0.129015,0.13908,0.971181
1630415933342,-0.127917,0.136518,0.96807
1630415933352,-0.126758,0.133712,0.96624
1630415933361,-0.126453,0.133468,0.967765
1630415933371,-0.126636,0.133041,0.969595
1630415933380,-0.127429,0.132858,0.972096
1630415933390,-0.128039,0.133285,0.973499
1630415933400,-0.128771,0.132919,0.974719
1630415933409,-0.12932,0.132736,0.973926
1630415933419,-0.13047899999999998,0.131455,0.9736819999999999
1630415933428,-0.131089,0.130052,0.974475
1630415933438,-0.13047899999999998,0.1281,0.9758169999999999
1630415933448,-0.129991,0.126697,0.9752069999999999
1630415933457,-0.128771,0.125294,0.976854
1630415933467,-0.12895399999999999,0.125904,0.978989
1630415933476,-0.128893,0.125904,0.979111
1630415933486,-0.127673,0.127002,0.978806
1630415933496,-0.12688,0.127246,0.979416
1630415933505,-0.126697,0.128039,0.977159
1630415933515,-0.126941,0.130052,0.976305
1630415933524,-0.12566,0.129686,0.975634
1630415933534,-0.124806,0.128771,0.975878
1630415933544,-0.122,0.128466,0.975329
1630415933553,-0.120292,0.127673,0.972706
1630415933563,-0.120109,0.127856,0.972706
1630415933572,-0.118645,0.129137,0.972218
1630415933582,-0.117974,0.1281,0.971364
1630415933592,-0.116266,0.12871,0.970998
1630415933601,-0.115107,0.12895399999999999,0.970693
1630415933611,-0.11577799999999999,0.128832,0.9697169999999999
1630415933620,-0.115412,0.129015,0.971181
1630415933630,-0.11486299999999999,0.127734,0.97051
1630415933640,-0.114497,0.126087,0.970876
1630415933649,-0.114802,0.126758,0.970998
1630415933659,-0.11529,0.127673,0.971181
1630415933668,-0.115229,0.127063,0.971974
1630415933678,-0.115229,0.12688,0.9727669999999999
1630415933688,-0.116327,0.126819,0.972706
1630415933697,-0.116571,0.128222,0.973133
1630415933707,-0.11699799999999999,0.128832,0.97356
1630415933716,-0.117242,0.129076,0.973255
1630415933726,-0.118523,0.129503,0.974475
1630415933736,-0.11931599999999999,0.130906,0.973255
1630415933745,-0.120048,0.131211,0.972401
1630415933755,-0.120902,0.132248,0.971486
1630415933764,-0.122,0.133041,0.971486
1630415933774,-0.123403,0.134261,0.971913
1630415933784,-0.123708,0.135786,0.972523
1630415933793,-0.124806,0.136518,0.972035
1630415933803,-0.125721,0.135298,0.9721569999999999
1630415933812,-0.126819,0.135176,0.971486
1630415933822,-0.127429,0.13541999999999998,0.973133
1630415933832,-0.127429,0.13419999999999999,0.975451
1630415933841,-0.126819,0.134566,0.976793
1630415933851,-0.126819,0.134688,0.978684
1630415933860,-0.12749,0.133285,0.979843
1630415933870,-0.127307,0.132492,0.9800869999999999
1630415933880,-0.126331,0.131394,0.979538
1630415933889,-0.125782,0.131577,0.97905
1630415933899,-0.12486699999999999,0.13047899999999998,0.9776469999999999
1630415933908,-0.122915,0.13078399999999998,0.976671
1630415933918,-0.121512,0.130723,0.974353
1630415933928,-0.119072,0.131089,0.973743
1630415933937,-0.116632,0.131089,0.97295
1630415933947,-0.115961,0.130113,0.973926
1630415933956,-0.114009,0.130357,0.974048
1630415933966,-0.112911,0.13017399999999998,0.9742919999999999
1630415933976,-0.112118,0.131821,0.973316
1630415933985,-0.11102,0.131455,0.97234
1630415933995,-0.110654,0.132126,0.971913
1630415934004,-0.108824,0.132126,0.971425
1630415934014,-0.107543,0.133834,0.971059
1630415934024,-0.107116,0.133102,0.970144
1630415934033,-0.107482,0.132675,0.970388
1630415934043,-0.106872,0.132858,0.970449
1630415934052,-0.106506,0.132431,0.971181
1630415934062,-0.10467599999999999,0.135298,0.970144
1630415934072,-0.10376099999999999,0.137799,0.968558
1630415934081,-0.103578,0.139873,0.968009
1630415934091,-0.103639,0.14066599999999999,0.9651419999999999
1630415934100,-0.10498099999999999,0.140422,0.960201
1630415934110,-0.106872,0.139263,0.957761
1630415934120,-0.108946,0.139446,0.960567
1630415934129,-0.109068,0.137982,0.964532
1630415934139,-0.109434,0.136762,0.969534
1630415934148,-0.109373,0.135298,0.9742919999999999
1630415934158,-0.108031,0.132065,0.9764269999999999
1630415934168,-0.109251,0.131028,0.977586
1630415934177,-0.109129,0.128588,0.97905
1630415934187,-0.11254499999999999,0.126209,0.9779519999999999
1630415934196,-0.114497,0.124928,0.9785619999999999
1630415934206,-0.115656,0.124318,0.97966
1630415934216,-0.115412,0.125904,0.9810019999999999
1630415934225,-0.114985,0.12456199999999999,0.9803919999999999
1630415934235,-0.115534,0.12456199999999999,0.9806969999999999
1630415934244,-0.11547299999999999,0.125416,0.9785619999999999
1630415934254,-0.114375,0.125782,0.9791719999999999
1630415934264,-0.113948,0.125721,0.978013
1630415934273,-0.113399,0.124745,0.976915
1630415934283,-0.113277,0.124623,0.975329
1630415934292,-0.113521,0.12444,0.974963
1630415934302,-0.112606,0.12425699999999999,0.975756
1630415934312,-0.11163,0.124623,0.974475
1630415934321,-0.112606,0.125538,0.976793
1630415934331,-0.112484,0.126026,0.976488
1630415934340,-0.111752,0.126392,0.976
1630415934350,-0.111203,0.126392,0.976671
1630415934360,-0.11041,0.124623,0.9770369999999999
1630415934369,-0.110166,0.12444,0.9770369999999999
1630415934379,-0.10961699999999999,0.123464,0.976183
1630415934388,-0.109434,0.123281,0.976
1630415934398,-0.10858,0.12261,0.9761219999999999
1630415934408,-0.108336,0.12322,0.9764269999999999
1630415934417,-0.10797,0.124501,0.9767319999999999
1630415934427,-0.107116,0.123708,0.978135
1630415934436,-0.108092,0.122671,0.976915
1630415934446,-0.10736,0.122732,0.975085
1630415934456,-0.107848,0.12383,0.976
1630415934465,-0.107055,0.123342,0.975756
1630415934475,-0.10638399999999999,0.122427,0.9758169999999999
1630415934484,-0.105835,0.123281,0.977891
1630415934494,-0.105225,0.123525,0.9770369999999999
1630415934504,-0.104493,0.123281,0.977769
1630415934513,-0.104005,0.12254899999999999,0.978013
1630415934523,-0.1037,0.123098,0.977769
1630415934532,-0.102724,0.121817,0.9773419999999999
1630415934542,-0.101687,0.12163399999999999,0.977525
1630415934552,-0.101382,0.120414,0.975939
1630415934561,-0.101687,0.116632,0.975024
1630415934571,-0.10126,0.113277,0.975634
1630415934580,-0.100772,0.10961699999999999,0.977098
1630415934590,-0.100284,0.107726,0.978074
1630415934600,-0.10083299999999999,0.104798,0.979233
1630415934609,-0.099003,0.106323,0.981429
1630415934619,-0.096746,0.113338,0.98576
1630415934628,-0.096014,0.11834,0.990518
1630415934638,-0.094489,0.12224399999999999,0.992714
1630415934648,-0.094428,0.124745,0.993202
1630415934657,-0.094855,0.126148,0.9916159999999999
1630415934667,-0.096014,0.125233,0.988993
1630415934676,-0.097478,0.124135,0.984296
1630415934686,-0.098332,0.123342,0.982039
1630415934696,-0.097417,0.12444,0.979538
1630415934705,-0.09729499999999999,0.126026,0.97783
1630415934715,-0.096441,0.128405,0.97539
1630415934724,-0.095831,0.130296,0.973316
1630415934734,-0.09577,0.131699,0.97295
1630415934744,-0.094916,0.133468,0.97173
1630415934753,-0.094184,0.134078,0.9718519999999999
1630415934763,-0.093757,0.133041,0.971303
1630415934772,-0.09272,0.134322,0.969961
1630415934782,-0.092293,0.134383,0.96929
1630415934792,-0.091561,0.134261,0.969656
1630415934801,-0.0915,0.136823,0.970266
1630415934811,-0.091622,0.139507,0.969534
1630415934820,-0.091683,0.140544,0.969778
1630415934830,-0.091927,0.14066599999999999,0.968009
1630415934840,-0.091866,0.13908,0.967521
1630415934849,-0.091012,0.138409,0.9675819999999999
1630415934859,-0.08881599999999999,0.137616,0.969778
1630415934868,-0.087596,0.137067,0.973438
1630415934878,-0.086132,0.13663999999999998,0.976549
1630415934888,-0.08479,0.135847,0.9767319999999999
1630415934897,-0.083936,0.132797,0.976
1630415934907,-0.083875,0.13017399999999998,0.975024
1630415934916,-0.084241,0.127307,0.973194
1630415934926,-0.083936,0.12486699999999999,0.973255
1630415934936,-0.08356999999999999,0.124074,0.974841
1630415934945,-0.083204,0.12486699999999999,0.976183
1630415934955,-0.083936,0.124379,0.977464
1630415934964,-0.081862,0.123769,0.9776469999999999
1630415934974,-0.082289,0.124989,0.977769
1630415934984,-0.08204499999999999,0.125294,0.978318
1630415934993,-0.082533,0.124623,0.979294
1630415935003,-0.083204,0.124013,0.978501
1630415935012,-0.083692,0.123037,0.9770369999999999
1630415935022,-0.084851,0.123281,0.9779519999999999
1630415935032,-0.086071,0.122183,0.9779519999999999
1630415935041,-0.085644,0.122976,0.9779519999999999
1630415935051,-0.0854,0.12315899999999999,0.978074
1630415935060,-0.087169,0.124074,0.978684
1630415935070,-0.088023,0.125294,0.979294
1630415935080,-0.087474,0.124501,0.9776469999999999
1630415935089,-0.087535,0.124623,0.977708
1630415935099,-0.088328,0.125904,0.978806
1630415935108,-0.088145,0.126026,0.979294
1630415935118,-0.08967,0.124989,0.978135
1630415935128,-0.089792,0.124745,0.977891
1630415935137,-0.089975,0.125294,0.978684
1630415935147,-0.090036,0.126636,0.978501
1630415935156,-0.09028,0.126636,0.979538
1630415935166,-0.091073,0.128161,0.979538
1630415935176,-0.091927,0.128039,0.979233
1630415935185,-0.09211,0.129015,0.9794769999999999
1630415935195,-0.091866,0.12834399999999999,0.978745
1630415935204,-0.091866,0.127917,0.978501
1630415935214,-0.092293,0.129381,0.9785619999999999
1630415935224,-0.092964,0.129198,0.978196
1630415935233,-0.091805,0.129686,0.978501
1630415935243,-0.092415,0.129015,0.977098
1630415935252,-0.092964,0.130296,0.976366
1630415935262,-0.094123,0.130601,0.975573
1630415935272,-0.094916,0.131211,0.974475
1630415935281,-0.09516,0.133102,0.97356
1630415935291,-0.095953,0.133773,0.973255
1630415935300,-0.09577,0.134932,0.972523
1630415935310,-0.097356,0.13572499999999998,0.9727669999999999
1630415935320,-0.097173,0.136396,0.973865
1630415935329,-0.097844,0.136579,0.973865
1630415935339,-0.097966,0.135786,0.974963
1630415935348,-0.097051,0.134871,0.974719
1630415935358,-0.097051,0.133346,0.975024
1630415935368,-0.096685,0.132919,0.9755119999999999
1630415935377,-0.09729499999999999,0.131638,0.9764269999999999
1630415935387,-0.096075,0.131638,0.975695
1630415935396,-0.096441,0.13176,0.976
1630415935406,-0.097051,0.130967,0.975756
1630415935416,-0.09820999999999999,0.131882,0.976
1630415935425,-0.097722,0.13237,0.975329
1630415935435,-0.096807,0.132004,0.975939
1630415935444,-0.096624,0.13237,0.975695
1630415935454,-0.09638,0.131638,0.9770369999999999
1630415935464,-0.095404,0.131821,0.9773419999999999
1630415935473,-0.094794,0.130723,0.9770369999999999
1630415935483,-0.09436699999999999,0.13078399999999998,0.976854
1630415935492,-0.09394,0.129442,0.978013
1630415935502,-0.093818,0.12932,0.978684
1630415935512,-0.092842,0.129015,0.978684
1630415935521,-0.09211,0.130357,0.978989
1630415935531,-0.091622,0.131882,0.978318
1630415935540,-0.092415,0.131272,0.977464
1630415935550,-0.091378,0.13047899999999998,0.976244
1630415935560,-0.089792,0.127856,0.973621
1630415935569,-0.090036,0.127612,0.9730719999999999
1630415935579,-0.088389,0.126758,0.9742919999999999
1630415935588,-0.089304,0.127673,0.975878
1630415935598,-0.08845,0.127917,0.9773419999999999
1630415935608,-0.08881599999999999,0.127612,0.978318
1630415935617,-0.08967,0.12627,0.978806
1630415935627,-0.090097,0.125904,0.977464
1630415935636,-0.090646,0.12444,0.9776469999999999
1630415935646,-0.090524,0.12322,0.976854
1630415935656,-0.090341,0.12322,0.977525
1630415935665,-0.089487,0.122427,0.978318
1630415935675,-0.089853,0.122732,0.979599
1630415935684,-0.090585,0.12383,0.978501
1630415935694,-0.09174399999999999,0.125355,0.979111
1630415935704,-0.091195,0.125843,0.977586
1630415935713,-0.092476,0.127429,0.977464
1630415935723,-0.09265899999999999,0.127673,0.976488
1630415935732,-0.093025,0.129015,0.975451
1630415935742,-0.094001,0.129625,0.975085
1630415935752,-0.094306,0.131394,0.974841
1630415935761,-0.093391,0.131394,0.973926
1630415935771,-0.094428,0.13237,0.97417
1630415935780,-0.094733,0.133346,0.973865
1630415935790,-0.094611,0.133468,0.974048
1630415935800,-0.09467199999999999,0.133834,0.973621
1630415935809,-0.094611,0.13450499999999999,0.974109
1630415935819,-0.093635,0.13450499999999999,0.975085
1630415935828,-0.093757,0.133346,0.976366
1630415935838,-0.093574,0.13237,0.9745969999999999
1630415935848,-0.093818,0.132492,0.974536
1630415935857,-0.093696,0.13054,0.974963
1630415935867,-0.09394,0.130296,0.975939
1630415935876,-0.094184,0.13047899999999998,0.976366
1630415935886,-0.093818,0.12986899999999998,0.975695
1630415935896,-0.093574,0.129503,0.976549
1630415935905,-0.094123,0.129198,0.977586
1630415935915,-0.094306,0.127673,0.977769
1630415935924,-0.093696,0.128222,0.977464
1630415935934,-0.094001,0.12688,0.9767319999999999
1630415935944,-0.09436699999999999,0.127246,0.9770369999999999
1630415935953,-0.094733,0.127124,0.97783
1630415935963,-0.094916,0.126819,0.976244
1630415935972,-0.09516,0.127612,0.9755119999999999
1630415935982,-0.09558699999999999,0.128039,0.976244
1630415935992,-0.096258,0.1281,0.977403
1630415936001,-0.096319,0.127734,0.978501
1630415936011,-0.096014,0.127185,0.979538
1630415936020,-0.096624,0.127002,0.9794769999999999
1630415936030,-0.096075,0.126392,0.978989
1630415936040,-0.097356,0.126026,0.978989
1630415936049,-0.097051,0.125843,0.979904
1630415936059,-0.097661,0.126758,0.9803919999999999
1630415936068,-0.09790499999999999,0.126697,0.978928
1630415936078,-0.098271,0.126575,0.978318
1630415936088,-0.098027,0.127124,0.977525
1630415936097,-0.097722,0.12627,0.975695
1630415936107,-0.097966,0.126697,0.9755119999999999
1630415936116,-0.09820999999999999,0.127856,0.975024
1630415936126,-0.098149,0.12864899999999999,0.975329
1630415936136,-0.09820999999999999,0.12895399999999999,0.976488
1630415936145,-0.097966,0.12956399999999998,0.9761219999999999
