timestamp,ax,ay,az
1630574211726,-0.355203,-0.832162,-0.415715
1630574211736,-0.356362,-0.834419,-0.417606
1630574211745,-0.35648399999999997,-0.83875,-0.419253
1630574211755,-0.357216,-0.843569,-0.420717
1630574211765,-0.355813,-0.8471069999999999,-0.420595
1630574211774,-0.356118,-0.847168,-0.419131
1630574211784,-0.355142,-0.846741,-0.414556
1630574211793,-0.35441,-0.845826,-0.411872
1630574211803,-0.354532,-0.845765,-0.410042
1630574211813,-0.35434899999999997,-0.845338,-0.41053
1630574211822,-0.35495899999999997,-0.845338,-0.411262
1630574211832,-0.355813,-0.843813,-0.41321399999999997
1630574211841,-0.35563,-0.842166,-0.413763
1630574211851,-0.356362,-0.839787,-0.415837
1630574211861,-0.357765,-0.837835,-0.417911
1630574211870,-0.358802,-0.8364929999999999,-0.418765
1630574211880,-0.359412,-0.834419,-0.418643
1630574211889,-0.359412,-0.8306979999999999,-0.416996
1630574211899,-0.360449,-0.827831,-0.41809399999999997
1630574211909,-0.361303,-0.825269,-0.421266
1630574211918,-0.362523,-0.82289,-0.425353
1630574211928,-0.361242,-0.818864,-0.42828099999999997
1630574211937,-0.360693,-0.813557,-0.43066
1630574211947,-0.360083,-0.807945,-0.433954
1630574211957,-0.359412,-0.804041,-0.43633299999999997
1630574211966,-0.358802,-0.800991,-0.436516
1630574211976,-0.35617899999999997,-0.79849,-0.437736
1630574211985,-0.352885,-0.798673,-0.438285
1630574211995,-0.347822,-0.802455,-0.435784
1630574212005,-0.341478,-0.812276,-0.426878
1630574212014,-0.337696,-0.822036,-0.418216
1630574212024,-0.336171,-0.830454,-0.412848
1630573698884,-0.43615,-0.653188,-0.615368
1630573698894,-0.435784,-0.653127,-0.6143919999999999
1630573698903,-0.436211,-0.653493,-0.614575
1630573698913,-0.43663799999999997,-0.65453,-0.614453
1630573698923,-0.43737,-0.654347,-0.61488
1630573698932,-0.436211,-0.655506,-0.6150019999999999
1630573698942,-0.436394,-0.655689,-0.615246
1630573698951,-0.43615,-0.655201,-0.614148
1630573698961,-0.435479,-0.6557499999999999,-0.614514
1630573698971,-0.436211,-0.655262,-0.615368
1630573698980,-0.43554,-0.655018,-0.614819
1630573698990,-0.43541799999999997,-0.655872,-0.615124
1630573698999,-0.435601,-0.654896,-0.6150019999999999
1630573699009,-0.436516,-0.654835,-0.615185
1630573699019,-0.436577,-0.654225,-0.6161
1630573699028,-0.436272,-0.653371,-0.6161
1630573699038,-0.435967,-0.653615,-0.616588
1630573699047,-0.435174,-0.652822,-0.615246
1630573699057,-0.435296,-0.652456,-0.6161
1630573699067,-0.43511299999999997,-0.650626,-0.6159169999999999
1630573699076,-0.435906,-0.651053,-0.615734
1630573699086,-0.436394,-0.651114,-0.61671
1630573699095,-0.43724799999999997,-0.650321,-0.616466
1630573699105,-0.437065,-0.649772,-0.615551
1630573699115,-0.436821,-0.648552,-0.615978
1630573699124,-0.438346,-0.648064,-0.617259
1630573699134,-0.438285,-0.648125,-0.618174
1630573699143,-0.438834,-0.646722,-0.61732
1630573699153,-0.437675,-0.645868,-0.617076
1630573699163,-0.438346,-0.644465,-0.618296
1630573699172,-0.438041,-0.645868,-0.618845
1630573699182,-0.437797,-0.645868,-0.619333
1630573699191,-0.43859,-0.646478,-0.6189669999999999
1630573699201,-0.438102,-0.646234,-0.6186619999999999
1630573699211,-0.43724799999999997,-0.646844,-0.618845
1630573699220,-0.437736,-0.646966,-0.618418
1630573699230,-0.43816299999999997,-0.648064,-0.618479
1630573699239,-0.43663799999999997,-0.648918,-0.618174
1630573699249,-0.436211,-0.649894,-0.619638
1630573699259,-0.435296,-0.651114,-0.620126
1630573699268,-0.43615,-0.651663,-0.620614
1630573699278,-0.436089,-0.650687,-0.620431
1630573699287,-0.434076,-0.650748,-0.619516
1630573699297,-0.433344,-0.652212,-0.618174
1630573699307,-0.432368,-0.651358,-0.617259
1630573699316,-0.432063,-0.651236,-0.61671
1630573699326,-0.43371,-0.651602,-0.616954
1630573699335,-0.431453,-0.651846,-0.617808
1630573699345,-0.430782,-0.651724,-0.617564
1630573699355,-0.431392,-0.652578,-0.617686
1630573699364,-0.432307,-0.652639,-0.61732
1630573699374,-0.432185,-0.651602,-0.618235
1630573699383,-0.432368,-0.651785,-0.6183569999999999
1630573699393,-0.432307,-0.651175,-0.620126
1630573699403,-0.432856,-0.651297,-0.620065
1630573699412,-0.43255099999999996,-0.65026,-0.620431
1630573699422,-0.43249,-0.648674,-0.61976
1630573699431,-0.433832,-0.648369,-0.619821
1630573699441,-0.433161,-0.647759,-0.620065
1630573699451,-0.433344,-0.647698,-0.620248
1630573699460,-0.433222,-0.646417,-0.621285
1630573699470,-0.433283,-0.646112,-0.62281
1630573699479,-0.433527,-0.64599,-0.622078
1630573699489,-0.433588,-0.646112,-0.622322
1630573699499,-0.433405,-0.645563,-0.622017
1630573699508,-0.433039,-0.646234,-0.620736
1630573699518,-0.432856,-0.647454,-0.619516
1630573699527,-0.43224599999999996,-0.646966,-0.620309
1630573699537,-0.432612,-0.647454,-0.6198819999999999
1630573699547,-0.431758,-0.647576,-0.620736
1630573699556,-0.432124,-0.646844,-0.6207969999999999
1630573699566,-0.432429,-0.647576,-0.620431
1630573699575,-0.432734,-0.646844,-0.620675
1630573699585,-0.431575,-0.647881,-0.620736
1630573699595,-0.432185,-0.648796,-0.621224
1630573699604,-0.432002,-0.649589,-0.620675
1630573699614,-0.432673,-0.649772,-0.620919
1630573699623,-0.432734,-0.65026,-0.620919
1630573699633,-0.432368,-0.64904,-0.621285
1630573699643,-0.430904,-0.648979,-0.62159
1630573699652,-0.431514,-0.647027,-0.621346
1630573699662,-0.43066,-0.646417,-0.621163
1630573699671,-0.429928,-0.646478,-0.620614
1630573699681,-0.430294,-0.645563,-0.621163
1630573699691,-0.43102599999999996,-0.646234,-0.620614
1630573699700,-0.43066,-0.646356,-0.620309
1630573699710,-0.43133099999999996,-0.646356,-0.620248
1630573699719,-0.432002,-0.647454,-0.621529
1630573699729,-0.43163599999999996,-0.647759,-0.620248
1630573699739,-0.430965,-0.649284,-0.6189669999999999
1630573699748,-0.432124,-0.650504,-0.619028
1630573699758,-0.432185,-0.651785,-0.619638
1630573699767,-0.43249,-0.652212,-0.620126
1630573699777,-0.43255099999999996,-0.652517,-0.6195769999999999
1630573699787,-0.43224599999999996,-0.652883,-0.618723
1630573699796,-0.433161,-0.652883,-0.618906
1630573699806,-0.432673,-0.652639,-0.618479
1630573699815,-0.433832,-0.652456,-0.61854
1630573699825,-0.433283,-0.653249,-0.618418
1630573699835,-0.434015,-0.652822,-0.61854
1630573699844,-0.433954,-0.651968,-0.61732
1630573699854,-0.434198,-0.65209,-0.61732
1630573699863,-0.434381,-0.653371,-0.61793
1630573699873,-0.43541799999999997,-0.653188,-0.617015
1630573699883,-0.43554,-0.653432,-0.616405
1630573699892,-0.435967,-0.653005,-0.617198
1630573699902,-0.436455,-0.6527,-0.616039
1630573699911,-0.43663799999999997,-0.652395,-0.617625
1630573699921,-0.43572299999999997,-0.652578,-0.617259
1630573699931,-0.43633299999999997,-0.652456,-0.616039
1630573699940,-0.436272,-0.652944,-0.615734
1630573699950,-0.435845,-0.653188,-0.6156119999999999
1630573699959,-0.43511299999999997,-0.653066,-0.6153069999999999
1630573699969,-0.435174,-0.652517,-0.6143919999999999
1630573699979,-0.43493,-0.651968,-0.6137819999999999
1630573699988,-0.435052,-0.652395,-0.612928
1630573699998,-0.43554,-0.652517,-0.6140869999999999
1630573700007,-0.435235,-0.652578,-0.614819
1630573700017,-0.435357,-0.651236,-0.6156119999999999
1630573700027,-0.43633299999999997,-0.650931,-0.615124
1630573700036,-0.43676,-0.650321,-0.615246
1630573700046,-0.436516,-0.650138,-0.614575
1630573700055,-0.435235,-0.650138,-0.614148
1630573700065,-0.43615,-0.650748,-0.614026
1630573700075,-0.435296,-0.650626,-0.614148
1630573700084,-0.434808,-0.650199,-0.612135
1630573700094,-0.435784,-0.65087,-0.6134769999999999
1630573700103,-0.43663799999999997,-0.651663,-0.613904
1630573700113,-0.436821,-0.651053,-0.613416
1630573700123,-0.436699,-0.65148,-0.6140869999999999
1630573700132,-0.437492,-0.650626,-0.61427
1630573700142,-0.438224,-0.649284,-0.613416
1630573700151,-0.439505,-0.649162,-0.6146969999999999
1630573700161,-0.43968799999999997,-0.65026,-0.613355
1630573700171,-0.439749,-0.651114,-0.6143919999999999
1630573700180,-0.440054,-0.652151,-0.615246
1630573700190,-0.439017,-0.653615,-0.616039
1630573700199,-0.44090799999999997,-0.652273,-0.615734
1630573700209,-0.44090799999999997,-0.65209,-0.614636
1630573700219,-0.440054,-0.653188,-0.614758
1630573700228,-0.439627,-0.653676,-0.6146969999999999
1630573700238,-0.43846799999999997,-0.653188,-0.614148
1630573700247,-0.43785799999999997,-0.653188,-0.612989
1630573700257,-0.437797,-0.654286,-0.614209
1630573700267,-0.437004,-0.655079,-0.6134769999999999
1630573700276,-0.43724799999999997,-0.655567,-0.614514
1630573700286,-0.437126,-0.653798,-0.613904
1630573700295,-0.436577,-0.65453,-0.613294
1630573700305,-0.437004,-0.65453,-0.613111
1630573700315,-0.436882,-0.653371,-0.613355
1630573700324,-0.436455,-0.6527,-0.612745
1630573700334,-0.437919,-0.653188,-0.613965
1630573700343,-0.438529,-0.651846,-0.61427
1630573700353,-0.43798,-0.650687,-0.615734
1630573700363,-0.438224,-0.649711,-0.6156119999999999
1630573700372,-0.438041,-0.64782,-0.616588
1630573700382,-0.438407,-0.647454,-0.617015
1630573700391,-0.43816299999999997,-0.646844,-0.617808
1630573700401,-0.437126,-0.645929,-0.617015
1630573700411,-0.43846799999999997,-0.647271,-0.618296
1630573700420,-0.43676,-0.645258,-0.618906
1630573700430,-0.43785799999999997,-0.644343,-0.616161
1630573700439,-0.439017,-0.6442209999999999,-0.617686
1630573700449,-0.437126,-0.644709,-0.6177469999999999
1630573700459,-0.437004,-0.64477,-0.617869
1630573700468,-0.43572299999999997,-0.644648,-0.61854
1630573700478,-0.437614,-0.644892,-0.620126
1630573700487,-0.43755299999999997,-0.6454409999999999,-0.620919
1630573700497,-0.436821,-0.644282,-0.62037
1630573700507,-0.43737,-0.645319,-0.620126
1630573700516,-0.43859,-0.645868,-0.61915
1630573700526,-0.437614,-0.645502,-0.618479
1630573700535,-0.437309,-0.645685,-0.6189669999999999
1630573700545,-0.437919,-0.645868,-0.619821
1630573700555,-0.436211,-0.646234,-0.6201869999999999
1630573700564,-0.437004,-0.647271,-0.619699
1630573700574,-0.43602799999999997,-0.646234,-0.62037
1630573700583,-0.43676,-0.647698,-0.621285
1630573700593,-0.43554,-0.648796,-0.619943
1630573700603,-0.435357,-0.649711,-0.620004
1630573700612,-0.433893,-0.650992,-0.61976
1630573700622,-0.434259,-0.651785,-0.618723
1630573700631,-0.433893,-0.651419,-0.618601
1630573700641,-0.433405,-0.652639,-0.61854
1630573700651,-0.43224599999999996,-0.651785,-0.6192719999999999
1630573700660,-0.43224599999999996,-0.652578,-0.61976
1630573700670,-0.432368,-0.652273,-0.6189669999999999
1630573700679,-0.43255099999999996,-0.651419,-0.620004
1630573700689,-0.43224599999999996,-0.650504,-0.620309
1630573700699,-0.43249,-0.649467,-0.620065
1630573700708,-0.432429,-0.651297,-0.619638
1630573700718,-0.431392,-0.651114,-0.619699
1630573700727,-0.431148,-0.651785,-0.619028
1630573700737,-0.43163599999999996,-0.650077,-0.617991
1630573700747,-0.43188,-0.651175,-0.618235
1630573700756,-0.431392,-0.652761,-0.617564
1630573700766,-0.430782,-0.6527,-0.6161
1630573700775,-0.43127,-0.652334,-0.6161
1630573700785,-0.431758,-0.651846,-0.615368
1630573700795,-0.43255099999999996,-0.651907,-0.614941
1630573700804,-0.433405,-0.652822,-0.615124
1630573700814,-0.432612,-0.652273,-0.61549
1630573700823,-0.432795,-0.65209,-0.614758
1630573700833,-0.433222,-0.652212,-0.615185
1630573700843,-0.433527,-0.653188,-0.614636
1630573700852,-0.433405,-0.6527,-0.614758
1630573700862,-0.432124,-0.6527,-0.614331
1630573700871,-0.433405,-0.65392,-0.6143919999999999
1630573700881,-0.434076,-0.654591,-0.6137819999999999
1630573700891,-0.434198,-0.655201,-0.614026
1630573700900,-0.433039,-0.655079,-0.614148
1630573700910,-0.432368,-0.655689,-0.614148
1630573700919,-0.432368,-0.6557499999999999,-0.612623
1630573700929,-0.431453,-0.656604,-0.6131719999999999
1630573700939,-0.431453,-0.656848,-0.612684
1630573700948,-0.43188,-0.656726,-0.6125619999999999
1630573700958,-0.430904,-0.6578849999999999,-0.611708
1630573700967,-0.431514,-0.658556,-0.612013
1630573700977,-0.43102599999999996,-0.658007,-0.6125619999999999
1630573700987,-0.431575,-0.658068,-0.61244
1630573700996,-0.43102599999999996,-0.658861,-0.611891
1630573701006,-0.431087,-0.658434,-0.6116469999999999
1630573701015,-0.430355,-0.657824,-0.6125619999999999
1630573701025,-0.430843,-0.6594099999999999,-0.6128669999999999
1630573701035,-0.429379,-0.658861,-0.613965
1630573701044,-0.429379,-0.659471,-0.613111
1630573701054,-0.429257,-0.659166,-0.612379
1630573701063,-0.42944,-0.659166,-0.611769
1630573701073,-0.430538,-0.659532,-0.611891
1630573701083,-0.430233,-0.659349,-0.611708
1630573701092,-0.430538,-0.6581899999999999,-0.613416
1630573701102,-0.430233,-0.657458,-0.61366
1630573701111,-0.431514,-0.656299,-0.61488
1630573701121,-0.431148,-0.655384,-0.614575
1630573701131,-0.432307,-0.65453,-0.6140869999999999
1630573701140,-0.432307,-0.653737,-0.613416
1630573701150,-0.432368,-0.653188,-0.61488
1630573701159,-0.432002,-0.653554,-0.6165269999999999
1630573701169,-0.431758,-0.653981,-0.616954
1630573701179,-0.432063,-0.654408,-0.61671
1630573701188,-0.432429,-0.653493,-0.616466
1630573701198,-0.432063,-0.653859,-0.6165269999999999
1630573701207,-0.432124,-0.653981,-0.614758
1630573701217,-0.431209,-0.653737,-0.615124
1630573701227,-0.43188,-0.654591,-0.6161
1630573701236,-0.43188,-0.65453,-0.616283
1630573701246,-0.432002,-0.656116,-0.617076
1630573701255,-0.43133099999999996,-0.655384,-0.6174419999999999
1630573701265,-0.43133099999999996,-0.655689,-0.6177469999999999
1630573701275,-0.431087,-0.655201,-0.615978
1630573701284,-0.430904,-0.655262,-0.615856
1630573701294,-0.430294,-0.654408,-0.615429
1630573701303,-0.43041599999999997,-0.654286,-0.615063
1630573701313,-0.43041599999999997,-0.653859,-0.615368
1630573701323,-0.42980599999999997,-0.653676,-0.61549
1630573701332,-0.43133099999999996,-0.65331,-0.61549
1630573701342,-0.42950099999999997,-0.652578,-0.6156119999999999
1630573701351,-0.429867,-0.652151,-0.616283
1630573701361,-0.430599,-0.652822,-0.616649
1630573701371,-0.43127,-0.651419,-0.616405
1630573701380,-0.431575,-0.65209,-0.617076
1630573701390,-0.431758,-0.653554,-0.618418
1630573701399,-0.430477,-0.652944,-0.617625
1630573701409,-0.432185,-0.651968,-0.616771
1630573701419,-0.432795,-0.652273,-0.6174419999999999
1630573701428,-0.432368,-0.652883,-0.617015
1630573701438,-0.431819,-0.652578,-0.61671
1630573701447,-0.43255099999999996,-0.651541,-0.617076
1630573701457,-0.432978,-0.651358,-0.618235
1630573701467,-0.432795,-0.650504,-0.6198819999999999
1630573701476,-0.431758,-0.649772,-0.6198819999999999
1630573701486,-0.433588,-0.650077,-0.619943
1630573701495,-0.433405,-0.651053,-0.6186619999999999
1630573701505,-0.432856,-0.650626,-0.617625
1630573701515,-0.43249,-0.650687,-0.617625
1630573701524,-0.432002,-0.650504,-0.61793
1630573701534,-0.432002,-0.651602,-0.6180519999999999
1630573701543,-0.431514,-0.651358,-0.618296
1630573701553,-0.432185,-0.65087,-0.6186619999999999
1630573701563,-0.432124,-0.65209,-0.619333
1630573701572,-0.43194099999999996,-0.653066,-0.6189669999999999
1630573701582,-0.43188,-0.6527,-0.619089
1630573701591,-0.43255099999999996,-0.652517,-0.618235
1630573701601,-0.43224599999999996,-0.653066,-0.617869
1630573701611,-0.432368,-0.6527,-0.617015
1630573701620,-0.431209,-0.652822,-0.616893
1630573701630,-0.431148,-0.653066,-0.616466
1630573701639,-0.43163599999999996,-0.65392,-0.616588
1630573701649,-0.43102599999999996,-0.653554,-0.61671
1630573701659,-0.431819,-0.652456,-0.616588
1630573701668,-0.43127,-0.652151,-0.617564
1630573701678,-0.430965,-0.653066,-0.617076
1630573701687,-0.431514,-0.652639,-0.617625
1630573701697,-0.431819,-0.652151,-0.616893
1630573701707,-0.430538,-0.6527,-0.6162219999999999
1630573701716,-0.43102599999999996,-0.652212,-0.616405
1630573701726,-0.430538,-0.652944,-0.6171369999999999
1630573701735,-0.430782,-0.652944,-0.6162219999999999
1630573701745,-0.430233,-0.653127,-0.615856
1630573701755,-0.429867,-0.65331,-0.6150019999999999
1630573701764,-0.43072099999999997,-0.65331,-0.615856
1630573701774,-0.429379,-0.653127,-0.614331
1630573701783,-0.429623,-0.653798,-0.614575
1630573701793,-0.42950099999999997,-0.65331,-0.615795
1630573701803,-0.42883,-0.654469,-0.6159169999999999
1630573701812,-0.428464,-0.654896,-0.6153069999999999
1630573701822,-0.428647,-0.655628,-0.615063
1630573701831,-0.42889099999999997,-0.656482,-0.61488
1630573701841,-0.428342,-0.657336,-0.615185
1630573701851,-0.42858599999999997,-0.6560549999999999,-0.615551
1630573701860,-0.428525,-0.657641,-0.613416
1630573701870,-0.429013,-0.6581899999999999,-0.613843
1630573701879,-0.428464,-0.658068,-0.613416
1630573701889,-0.429318,-0.659471,-0.6137819999999999
1630573701899,-0.428708,-0.659654,-0.6131719999999999
1630573701908,-0.429074,-0.660386,-0.612684
1630573701918,-0.428464,-0.6594099999999999,-0.612135
1630573701927,-0.42858599999999997,-0.6603249999999999,-0.612318
1630573701937,-0.42919599999999997,-0.661057,-0.612928
1630573701947,-0.42828099999999997,-0.6609349999999999,-0.612684
1630573701956,-0.428464,-0.661423,-0.612684
1630573701966,-0.428159,-0.661728,-0.612806
1630573701975,-0.427732,-0.660874,-0.611891
1630573701985,-0.427915,-0.660874,-0.611464
1630573701995,-0.427854,-0.6618499999999999,-0.611403
1630573702004,-0.427183,-0.662826,-0.612135
1630573702014,-0.42761,-0.661667,-0.61244
1630573702023,-0.427122,-0.661667,-0.612074
1630573702033,-0.426878,-0.6612399999999999,-0.61305
1630573702043,-0.426512,-0.661301,-0.611891
1630573702052,-0.427122,-0.662033,-0.612318
1630573702062,-0.42639,-0.661423,-0.611586
1630573702071,-0.426207,-0.6612399999999999,-0.611403
1630573702081,-0.426817,-0.661911,-0.6116469999999999
1630573702091,-0.426268,-0.662521,-0.610549
1630573702100,-0.42639,-0.662521,-0.610488
1630573702110,-0.427,-0.661728,-0.609939
1630573702119,-0.42828099999999997,-0.662338,-0.610366
1630573702129,-0.428403,-0.661667,-0.61122
1630573702139,-0.428464,-0.6603249999999999,-0.611098
1630573702148,-0.429562,-0.660386,-0.610305
1630573702158,-0.429379,-0.658922,-0.611464
1630573702167,-0.42797599999999997,-0.659776,-0.611891
1630573702177,-0.429257,-0.659532,-0.612623
1630573702187,-0.428464,-0.660386,-0.61183
1630573702196,-0.428952,-0.6606299999999999,-0.6119519999999999
1630573702206,-0.429562,-0.660569,-0.611403
1630573702215,-0.428098,-0.6615449999999999,-0.61122
1630573702225,-0.42797599999999997,-0.662338,-0.612013
1630573702235,-0.427915,-0.661667,-0.612074
1630573702244,-0.427244,-0.661606,-0.611525
1630573702254,-0.426817,-0.663131,-0.6128669999999999
1630573702263,-0.425719,-0.662826,-0.6116469999999999
1630573702273,-0.426024,-0.663863,-0.611098
1630573702283,-0.425048,-0.663131,-0.61122
1630573702292,-0.424865,-0.663436,-0.6092069999999999
1630573702302,-0.42401099999999997,-0.664046,-0.609451
1630573702311,-0.424377,-0.664107,-0.608963
1630573702321,-0.424804,-0.6639849999999999,-0.609085
1630573702331,-0.42523099999999997,-0.6633749999999999,-0.609146
1630573702340,-0.425658,-0.663558,-0.609878
1630573702350,-0.42517,-0.6630699999999999,-0.608963
1630573702359,-0.425414,-0.662094,-0.608963
1630573702369,-0.426573,-0.661972,-0.6101219999999999
1630573702379,-0.42578,-0.661728,-0.610366
1630573702388,-0.42645099999999997,-0.661179,-0.61
1630573702398,-0.426695,-0.6618499999999999,-0.610854
1630573702407,-0.426024,-0.661484,-0.611708
1630573702417,-0.427122,-0.660264,-0.6113419999999999
1630573702427,-0.428769,-0.660447,-0.610854
1630573702436,-0.428708,-0.660203,-0.610183
1630573702446,-0.428403,-0.6594099999999999,-0.610244
1630573702455,-0.428403,-0.659532,-0.6116469999999999
1630573702465,-0.429257,-0.659288,-0.6122569999999999
1630573702475,-0.428708,-0.6587999999999999,-0.61305
1630573702484,-0.429257,-0.658861,-0.612928
1630573702494,-0.429074,-0.659288,-0.613111
1630573702503,-0.429074,-0.658312,-0.613538
1630573702513,-0.42919599999999997,-0.659288,-0.612196
1630573702523,-0.429135,-0.659654,-0.613233
1630573702532,-0.429745,-0.660813,-0.612684
1630573702542,-0.42944,-0.660203,-0.61244
1630573702551,-0.42883,-0.660752,-0.6128669999999999
1630573702561,-0.428464,-0.659349,-0.612501
1630573702571,-0.428037,-0.6600199999999999,-0.612928
1630573702580,-0.427854,-0.660142,-0.6143919999999999
1630573702590,-0.42761,-0.659776,-0.614636
1630573702599,-0.428952,-0.658068,-0.6146969999999999
1630573702609,-0.430172,-0.6572749999999999,-0.6156119999999999
1630573702619,-0.42919599999999997,-0.6557499999999999,-0.615978
1630573702628,-0.430599,-0.655018,-0.616161
1630573702638,-0.429257,-0.65392,-0.616893
1630573702647,-0.429867,-0.65209,-0.619333
1630573702657,-0.429562,-0.653066,-0.625616
1630573702667,-0.42797599999999997,-0.653859,-0.629642
1630573702676,-0.43102599999999996,-0.650077,-0.627568
1630573702686,-0.432124,-0.648613,-0.622688
1630573702695,-0.433649,-0.646783,-0.6192719999999999
1630573702705,-0.433832,-0.64416,-0.6183569999999999
1630573702715,-0.434381,-0.64233,-0.61732
1630573702724,-0.43371,-0.64294,-0.615063
1630573702734,-0.431575,-0.643794,-0.611403
1630573702743,-0.431697,-0.64538,-0.6098169999999999
1630573702753,-0.429684,-0.646539,-0.6095119999999999
1630573702763,-0.43041599999999997,-0.647454,-0.610488
1630573702772,-0.430172,-0.649711,-0.6104269999999999
1630573702782,-0.429928,-0.652395,-0.610366
1630573702791,-0.430355,-0.654835,-0.608475
1630573702801,-0.42883,-0.656482,-0.608231
1630573702811,-0.428342,-0.658556,-0.60695
1630573702820,-0.430294,-0.660386,-0.607621
1630573702830,-0.43066,-0.660386,-0.606279
1630573702839,-0.43011099999999997,-0.6612399999999999,-0.60634
1630573702849,-0.431453,-0.663253,-0.605608
1630573702859,-0.432612,-0.662582,-0.605547
1630573702868,-0.433771,-0.661118,-0.604327
1630573702878,-0.435357,-0.661179,-0.603961
1630573702887,-0.43615,-0.659654,-0.603229
1630573702897,-0.436699,-0.658922,-0.601338
1630573702907,-0.43798,-0.659776,-0.598288
1630573702916,-0.439566,-0.6603249999999999,-0.5964579999999999
1630573702926,-0.439566,-0.660752,-0.595909
1630573702935,-0.440969,-0.661301,-0.596275
1630573702945,-0.439932,-0.662216,-0.594872
1630573702955,-0.440176,-0.662521,-0.594689
1630573702964,-0.441091,-0.663314,-0.593835
1630573702974,-0.441579,-0.663253,-0.593652
1630573702983,-0.442372,-0.663192,-0.59414
1630573702993,-0.44243299999999997,-0.663924,-0.5934079999999999
1630573703003,-0.441762,-0.6648999999999999,-0.59109
1630573703012,-0.443836,-0.6676449999999999,-0.5903579999999999
1630573703022,-0.444751,-0.667279,-0.5894429999999999
1630573703031,-0.446093,-0.668438,-0.587369
1630573703041,-0.446398,-0.669353,-0.58682
1630573703051,-0.447252,-0.668987,-0.585844
1630573703060,-0.448472,-0.670024,-0.584197
1630573703070,-0.449692,-0.671732,-0.583221
1630573703079,-0.449997,-0.67222,-0.581269
1630573703089,-0.45170499999999997,-0.672342,-0.578585
1630573703099,-0.451766,-0.674355,-0.576084
1630573703108,-0.452864,-0.67527,-0.576694
1630573703118,-0.453657,-0.676185,-0.578036
1630573703127,-0.45414499999999997,-0.677649,-0.577914
1630573703137,-0.456402,-0.676612,-0.577121
1630573703147,-0.458415,-0.676856,-0.577121
1630573703156,-0.459391,-0.675819,-0.575413
1630573703166,-0.46116,-0.67527,-0.574559
1630573703175,-0.46097699999999997,-0.675087,-0.573461
1630573703185,-0.461343,-0.676429,-0.572241
1630573703195,-0.46219699999999997,-0.677527,-0.572485
1630573703204,-0.463356,-0.678564,-0.571753
1630573703214,-0.464393,-0.678503,-0.571875
1630573703223,-0.465735,-0.678747,-0.572668
1630573703233,-0.46646699999999996,-0.67588,-0.573827
1630573703243,-0.466955,-0.670939,-0.573156
1630573703252,-0.46787,-0.667462,-0.573156
1630573703262,-0.469151,-0.666303,-0.572241
1630573703271,-0.470066,-0.663863,-0.572668
1630573703281,-0.470493,-0.663558,-0.573644
1630573703291,-0.470737,-0.664473,-0.5721189999999999
1630573703300,-0.47153,-0.664656,-0.571143
1630573703310,-0.473787,-0.664229,-0.5690689999999999
1630573703319,-0.474336,-0.665144,-0.5660189999999999
1630573703329,-0.47702,-0.6642899999999999,-0.56486
1630573703339,-0.478423,-0.664656,-0.56303
1630573703348,-0.479765,-0.664412,-0.561688
1630573703358,-0.481717,-0.663924,-0.562115
1630573703367,-0.481412,-0.664534,-0.562481
1630573703377,-0.48287599999999997,-0.664168,-0.561688
1630573703387,-0.48470599999999997,-0.663314,-0.56303
1630573703396,-0.48653599999999997,-0.663009,-0.563152
1630573703406,-0.487207,-0.664534,-0.561261
1630573703415,-0.489098,-0.664168,-0.560712
1630573703425,-0.490623,-0.663802,-0.558943
1630573703435,-0.492087,-0.664046,-0.558272
1630573703444,-0.494466,-0.665144,-0.556991
1630573703454,-0.49580799999999997,-0.665083,-0.556442
1630573703463,-0.49715,-0.665144,-0.553453
1630573703473,-0.49824799999999997,-0.664656,-0.554246
1630573703483,-0.499285,-0.666059,-0.554307
1630573703492,-0.49959,-0.666242,-0.552843
1630573703502,-0.500078,-0.665632,-0.553331
1630573703511,-0.501176,-0.665693,-0.551684
1630573703521,-0.503433,-0.665388,-0.549549
1630573703531,-0.504409,-0.664778,-0.549061
1630573703540,-0.505629,-0.664717,-0.549671
1630573703550,-0.507581,-0.664717,-0.54961
1630573703559,-0.508191,-0.665083,-0.548634
1630573703569,-0.508435,-0.6655099999999999,-0.548329
1630573703579,-0.509472,-0.666669,-0.5462549999999999
1630573703588,-0.509777,-0.665571,-0.5471699999999999
1630573703598,-0.509594,-0.666852,-0.548512
1630573703607,-0.510204,-0.666608,-0.546682
1630573703617,-0.5124,-0.666059,-0.547841
1630573703627,-0.513559,-0.6648999999999999,-0.547109
1630573703636,-0.514047,-0.663802,-0.547109
1630573703646,-0.514962,-0.664107,-0.5465599999999999
1630573703655,-0.5155109999999999,-0.663253,-0.546377
1630573703665,-0.51667,-0.662094,-0.546438
1630573703675,-0.516792,-0.660447,-0.546987
1630573703684,-0.517463,-0.659959,-0.547048
1630573703694,-0.516914,-0.658617,-0.546621
1630573703703,-0.5164259999999999,-0.657092,-0.546743
1630573703713,-0.5164259999999999,-0.654835,-0.546072
1630573703723,-0.5176459999999999,-0.652395,-0.5465599999999999
1630573703732,-0.51789,-0.65148,-0.5468649999999999
1630573703742,-0.517585,-0.651358,-0.546987
1630573703751,-0.518195,-0.650809,-0.546377
1630573703761,-0.518988,-0.650992,-0.546011
1630573703771,-0.519354,-0.651175,-0.5450349999999999
1630573703780,-0.5185609999999999,-0.651602,-0.544852
1630573703790,-0.519354,-0.651297,-0.5441199999999999
1630573703799,-0.5203909999999999,-0.651358,-0.543693
1630573703809,-0.51972,-0.651724,-0.543022
1630573703819,-0.520208,-0.653737,-0.543327
1630573703828,-0.520269,-0.654103,-0.5435099999999999
1630573703838,-0.521062,-0.654103,-0.543876
1630573703847,-0.52094,-0.654042,-0.542717
1630573703857,-0.521977,-0.655018,-0.5428999999999999
1630573703867,-0.5225259999999999,-0.654652,-0.543022
1630573703876,-0.52216,-0.654713,-0.542656
1630573703886,-0.52338,-0.655262,-0.542229
1630573703895,-0.523075,-0.65392,-0.5425949999999999
1630573703905,-0.522648,-0.654713,-0.5425949999999999
1630573703915,-0.52338,-0.654225,-0.5422899999999999
1630573703924,-0.5246,-0.654957,-0.542168
1630573703934,-0.522953,-0.654774,-0.541802
1630573703943,-0.52338,-0.655018,-0.542656
1630573703953,-0.523014,-0.654469,-0.540826
1630573703963,-0.52338,-0.65453,-0.539667
1630573703972,-0.522953,-0.655506,-0.5407649999999999
1630573703982,-0.5228309999999999,-0.6572749999999999,-0.541253
1630573703991,-0.522587,-0.657214,-0.540338
1630573704001,-0.521489,-0.657458,-0.539362
1630573704011,-0.5213059999999999,-0.657458,-0.539301
1630573704020,-0.521489,-0.6578849999999999,-0.539179
1630573704030,-0.5213059999999999,-0.658434,-0.5401549999999999
1630573704039,-0.521062,-0.658373,-0.539606
1630573704049,-0.521794,-0.659166,-0.539423
1630573704059,-0.521489,-0.660203,-0.539301
1630573704068,-0.521794,-0.6597149999999999,-0.5398499999999999
1630573704078,-0.520452,-0.6594099999999999,-0.538203
1630573704087,-0.521062,-0.658739,-0.539423
1630573704097,-0.520818,-0.659349,-0.539484
1630573704107,-0.520452,-0.658617,-0.538752
1630573704116,-0.520452,-0.658617,-0.538264
1630573704126,-0.518439,-0.657641,-0.540094
1630573704135,-0.519415,-0.6569699999999999,-0.539728
1630573704145,-0.520452,-0.655079,-0.539911
1630573704155,-0.521123,-0.656116,-0.5392399999999999
1630573704164,-0.520818,-0.655994,-0.538264
1630573704174,-0.519842,-0.655872,-0.539972
1630573704183,-0.520208,-0.656787,-0.540338
1630573704193,-0.519842,-0.658129,-0.5401549999999999
1630573704203,-0.520879,-0.659044,-0.539911
1630573704212,-0.5206959999999999,-0.658556,-0.540582
1630573704222,-0.520757,-0.658617,-0.540399
1630573704231,-0.5203909999999999,-0.658922,-0.540399
1630573704241,-0.520513,-0.658739,-0.540643
1630573704251,-0.52033,-0.658678,-0.539911
1630573704260,-0.519415,-0.657153,-0.540399
1630573704270,-0.5194759999999999,-0.6581899999999999,-0.540826
1630573704279,-0.5191709999999999,-0.658129,-0.540216
1630573704289,-0.519232,-0.657153,-0.540216
1630573704299,-0.519964,-0.657763,-0.540094
1630573704308,-0.519354,-0.6575799999999999,-0.5398499999999999
1630573704318,-0.518622,-0.6572749999999999,-0.540094
1630573704327,-0.519415,-0.657336,-0.539972
1630573704337,-0.519842,-0.657092,-0.541131
1630573704347,-0.518439,-0.656909,-0.541558
1630573704356,-0.518622,-0.657092,-0.541863
1630573704366,-0.517585,-0.656482,-0.5419849999999999
1630573704375,-0.5170359999999999,-0.657519,-0.542229
1630573704385,-0.51789,-0.6569699999999999,-0.543144
1630573704395,-0.518012,-0.656909,-0.5422899999999999
1630573704404,-0.517524,-0.657153,-0.542534
1630573704414,-0.517463,-0.656482,-0.542046
1630573704423,-0.516182,-0.656116,-0.5435099999999999
1630573704433,-0.518317,-0.654469,-0.543144
1630573704443,-0.518317,-0.654591,-0.543632
1630573704452,-0.518073,-0.653676,-0.543083
1630573704462,-0.5167309999999999,-0.653127,-0.5435099999999999
1630573704471,-0.5167309999999999,-0.654713,-0.543449
1630573704481,-0.517097,-0.653493,-0.544303
1630573704491,-0.517402,-0.652578,-0.543937
1630573704500,-0.517097,-0.652822,-0.545218
1630573704510,-0.517829,-0.652883,-0.5447299999999999
1630573704519,-0.517402,-0.6527,-0.5450349999999999
1630573704529,-0.519232,-0.652395,-0.544669
1630573704539,-0.518439,-0.652639,-0.5453399999999999
1630573704548,-0.517463,-0.653737,-0.544852
1630573704558,-0.518683,-0.653981,-0.544059
1630573704567,-0.5185609999999999,-0.654896,-0.544486
1630573704577,-0.518988,-0.6566649999999999,-0.5444249999999999
1630573704587,-0.518134,-0.656421,-0.543327
1630573704596,-0.517524,-0.657092,-0.543754
1630573704606,-0.516792,-0.6584949999999999,-0.542839
1630573704615,-0.517768,-0.658007,-0.542534
1630573704625,-0.5179509999999999,-0.657336,-0.5428999999999999
1630573704635,-0.517768,-0.6587999999999999,-0.541924
1630573704644,-0.5176459999999999,-0.6591049999999999,-0.5428999999999999
1630573704654,-0.518195,-0.659532,-0.5428999999999999
1630573704663,-0.518134,-0.659776,-0.542839
1630573704673,-0.517585,-0.658068,-0.542229
1630573704683,-0.5182559999999999,-0.6594099999999999,-0.542778
1630573704692,-0.518012,-0.659959,-0.542656
1630573704702,-0.518073,-0.6597149999999999,-0.543266
1630573704711,-0.518134,-0.6591049999999999,-0.5428999999999999
1630573704721,-0.51728,-0.658739,-0.543144
1630573704731,-0.517524,-0.6591049999999999,-0.542839
1630573704740,-0.5170359999999999,-0.6591049999999999,-0.542717
1630573704750,-0.516304,-0.658617,-0.5422899999999999
1630573704759,-0.51667,-0.658739,-0.5419849999999999
1630573704769,-0.515755,-0.658251,-0.5410699999999999
1630573704779,-0.515999,-0.6575799999999999,-0.5413749999999999
1630573704788,-0.515145,-0.657031,-0.5398499999999999
1630573704798,-0.515877,-0.6572749999999999,-0.540582
1630573704807,-0.516609,-0.656848,-0.540338
1630573704817,-0.517158,-0.656726,-0.540826
1630573704827,-0.516792,-0.656848,-0.540948
1630573704836,-0.516548,-0.656238,-0.541192
1630573704846,-0.518012,-0.6566649999999999,-0.541314
1630573704855,-0.517097,-0.6560549999999999,-0.540521
1630573704865,-0.517707,-0.657153,-0.540216
1630573704875,-0.519049,-0.6563599999999999,-0.540216
1630573704884,-0.51789,-0.656909,-0.540704
1630573704894,-0.518012,-0.657336,-0.540582
1630573704903,-0.5182559999999999,-0.656848,-0.541009
1630573704913,-0.518134,-0.6575799999999999,-0.542351
1630573704923,-0.518195,-0.656604,-0.541497
1630573704932,-0.517829,-0.6572749999999999,-0.540704
1630573704942,-0.5185,-0.656604,-0.5407649999999999
1630573704951,-0.5179509999999999,-0.657092,-0.540704
1630573704961,-0.518805,-0.657397,-0.540216
1630573704971,-0.518622,-0.6578849999999999,-0.539972
1630573704980,-0.518195,-0.6581899999999999,-0.540582
1630573704990,-0.518378,-0.658434,-0.5395449999999999
1630573704999,-0.518805,-0.658373,-0.539728
1630573705009,-0.519232,-0.659532,-0.540399
1630573705019,-0.520025,-0.6603249999999999,-0.5401549999999999
1630573705028,-0.519842,-0.6600199999999999,-0.540033
1630573705038,-0.520513,-0.660569,-0.540826
1630573705047,-0.519659,-0.661057,-0.5392399999999999
1630573705057,-0.520208,-0.659959,-0.539301
1630573705067,-0.519903,-0.660508,-0.540094
1630573705076,-0.51972,-0.6609349999999999,-0.541009
1630573705086,-0.519232,-0.660081,-0.540216
1630573705095,-0.519049,-0.659532,-0.539667
1630573705105,-0.519537,-0.657214,-0.540948
1630573705115,-0.520635,-0.657641,-0.5419849999999999
1630573705124,-0.519964,-0.656848,-0.541924
1630573705134,-0.520208,-0.655628,-0.5413749999999999
1630573705143,-0.520574,-0.655323,-0.540887
1630573705153,-0.520574,-0.655079,-0.541924
1630573705163,-0.5203909999999999,-0.657336,-0.541741
1630573705172,-0.519903,-0.656909,-0.541497
1630573705182,-0.521245,-0.656299,-0.540948
1630573705191,-0.520208,-0.656421,-0.5404599999999999
1630573705201,-0.520635,-0.656848,-0.540826
1630573705211,-0.520879,-0.656482,-0.540704
1630573705220,-0.521062,-0.6554449999999999,-0.541497
1630573705230,-0.5206959999999999,-0.6563599999999999,-0.542778
1630573705239,-0.520147,-0.656482,-0.542656
1630573705249,-0.520208,-0.655994,-0.542961
1630573705259,-0.518927,-0.656787,-0.542168
1630573705268,-0.517768,-0.656482,-0.5416799999999999
1630573705278,-0.5182559999999999,-0.6560549999999999,-0.541192
1630573705287,-0.5185609999999999,-0.655689,-0.539362
1630573705297,-0.5194759999999999,-0.656299,-0.540033
1630573705307,-0.518073,-0.656726,-0.540033
1630573705316,-0.5185,-0.656238,-0.541192
1630573705326,-0.5179509999999999,-0.655628,-0.541131
1630573705335,-0.5173409999999999,-0.656116,-0.541253
1630573705345,-0.518073,-0.656116,-0.5413749999999999
1630573705355,-0.517463,-0.6563599999999999,-0.541253
1630573705364,-0.5179509999999999,-0.655201,-0.5413749999999999
1630573705374,-0.518622,-0.655201,-0.542168
1630573705383,-0.518439,-0.654164,-0.5416799999999999
1630573705393,-0.5179509999999999,-0.654164,-0.542107
1630573705403,-0.518317,-0.653066,-0.541253
1630573705412,-0.518744,-0.653798,-0.541802
1630573705422,-0.520635,-0.654469,-0.542168
1630573705431,-0.520818,-0.655018,-0.542656
1630573705441,-0.521367,-0.655262,-0.542229
1630573705451,-0.521367,-0.654286,-0.543388
1630573705460,-0.521672,-0.654591,-0.544242
1630573705470,-0.522038,-0.654835,-0.545584
1630573705479,-0.5216109999999999,-0.654774,-0.546194
1630573705489,-0.52094,-0.654469,-0.544547
1630573705499,-0.521733,-0.653981,-0.543327
1630573705508,-0.522648,-0.653981,-0.543266
1630573705518,-0.522038,-0.652883,-0.5425949999999999
1630573705527,-0.522038,-0.652029,-0.542961
1630573705537,-0.5228309999999999,-0.652578,-0.5432049999999999
1630573705547,-0.522953,-0.65331,-0.543632
1630573705556,-0.522465,-0.652456,-0.544791
1630573705566,-0.523197,-0.65331,-0.5453399999999999
1630573705575,-0.522709,-0.654408,-0.544486
1630573705585,-0.522404,-0.654652,-0.543693
1630573705595,-0.521977,-0.65514,-0.543327
1630573705604,-0.5225259999999999,-0.6554449999999999,-0.542839
1630573705614,-0.522038,-0.654957,-0.542778
1630573705623,-0.52216,-0.654774,-0.543327
1630573705633,-0.521733,-0.654896,-0.541863
1630573705643,-0.521489,-0.654896,-0.541863
1630573705652,-0.521489,-0.654591,-0.5419849999999999
1630573705662,-0.520025,-0.65514,-0.543022
1630573705671,-0.52094,-0.654103,-0.543266
1630573705681,-0.520269,-0.65453,-0.5432049999999999
1630573705691,-0.520574,-0.654164,-0.5416799999999999
1630573705700,-0.51911,-0.654042,-0.5422899999999999
1630573705710,-0.520025,-0.653859,-0.5425949999999999
1630573705719,-0.52033,-0.654164,-0.5419849999999999
1630573705729,-0.519964,-0.65392,-0.541924
1630573705739,-0.5194759999999999,-0.654347,-0.541558
1630573705748,-0.5188659999999999,-0.654774,-0.540338
1630573705758,-0.519598,-0.65514,-0.5407649999999999
1630573705767,-0.520025,-0.655872,-0.540338
1630573705777,-0.518622,-0.655811,-0.541314
1630573705787,-0.519415,-0.655994,-0.540704
1630573705796,-0.5197809999999999,-0.655933,-0.540826
1630573705806,-0.520269,-0.655506,-0.540887
1630573705815,-0.519964,-0.6560549999999999,-0.540826
1630573705825,-0.52033,-0.656726,-0.541314
1630573705835,-0.520635,-0.6572749999999999,-0.541253
1630573705844,-0.520574,-0.657641,-0.540033
1630573705854,-0.52033,-0.6575799999999999,-0.540033
1630573705863,-0.520635,-0.6566649999999999,-0.540277
1630573705873,-0.520574,-0.656909,-0.539789
1630573705883,-0.520818,-0.657824,-0.540338
1630573705892,-0.521367,-0.658068,-0.539301
1630573705902,-0.520208,-0.658129,-0.540094
1630573705911,-0.5200859999999999,-0.657946,-0.539057
1630573705921,-0.520269,-0.657153,-0.540704
1630573705931,-0.5210009999999999,-0.657336,-0.539118
1630573705940,-0.521794,-0.657641,-0.539423
1630573705950,-0.520452,-0.658129,-0.538813
1630573705959,-0.520635,-0.6575799999999999,-0.540216
1630573705969,-0.520635,-0.657519,-0.539911
1630573705979,-0.521123,-0.657702,-0.540033
1630573705988,-0.52155,-0.6578849999999999,-0.539789
1630573705998,-0.5213059999999999,-0.6578849999999999,-0.540887
1630573706007,-0.521062,-0.657153,-0.540887
1630573706017,-0.52155,-0.6572749999999999,-0.540399
1630573706027,-0.521489,-0.6572749999999999,-0.541131
1630573706036,-0.520513,-0.657153,-0.5410699999999999
1630573706046,-0.521489,-0.6557499999999999,-0.542412
1630573706055,-0.520574,-0.655628,-0.541253
1630573706065,-0.520025,-0.65514,-0.541802
1630573706075,-0.520208,-0.654713,-0.541619
1630573706084,-0.520208,-0.654957,-0.541314
1630573706094,-0.5213059999999999,-0.655994,-0.540948
1630573706103,-0.52094,-0.655018,-0.540582
1630573706113,-0.5197809999999999,-0.654103,-0.540826
1630573706123,-0.520818,-0.654652,-0.542656
1630573706132,-0.521184,-0.654286,-0.5435099999999999
1630573706142,-0.5225259999999999,-0.654042,-0.543937
1630573706151,-0.522404,-0.653188,-0.543388
1630573706161,-0.522892,-0.651358,-0.542778
1630573706171,-0.52094,-0.651602,-0.543632
1630573706180,-0.520513,-0.652761,-0.542717
1630573706190,-0.52216,-0.653066,-0.543266
1630573706199,-0.521672,-0.652029,-0.5432049999999999
1630573706209,-0.5222209999999999,-0.652395,-0.542778
1630573706219,-0.5213059999999999,-0.653554,-0.542717
1630573706228,-0.522282,-0.652029,-0.543693
1630573706238,-0.521977,-0.651663,-0.543998
1630573706247,-0.5225259999999999,-0.652151,-0.545584
1630573706257,-0.521428,-0.653676,-0.545767
1630573706267,-0.522892,-0.654713,-0.545279
1630573706276,-0.521184,-0.655201,-0.545218
1630573706286,-0.520208,-0.655079,-0.544364
1630573706295,-0.5203909999999999,-0.654225,-0.5432049999999999
1630573706305,-0.520208,-0.655262,-0.542839
1630573706315,-0.52094,-0.655262,-0.541192
1630573706324,-0.519964,-0.654286,-0.541192
1630573706334,-0.51972,-0.654042,-0.541741
1630573706343,-0.52033,-0.654896,-0.541802
1630573706353,-0.5191709999999999,-0.655506,-0.542168
1630573706363,-0.5200859999999999,-0.654469,-0.542168
1630573706372,-0.519415,-0.654896,-0.542534
1630573706382,-0.519659,-0.654591,-0.543083
1630573706391,-0.519903,-0.653127,-0.5416799999999999
1630573706401,-0.5188659999999999,-0.653798,-0.542778
1630573706411,-0.518988,-0.653493,-0.543754
1630573706420,-0.519415,-0.652822,-0.5435099999999999
1630573706430,-0.5206959999999999,-0.652029,-0.542778
1630573706439,-0.521428,-0.653798,-0.5441199999999999
1630573706449,-0.520513,-0.653005,-0.543754
1630573706459,-0.521062,-0.652212,-0.543388
1630573706468,-0.520879,-0.651968,-0.544364
1630573706478,-0.522099,-0.65148,-0.5444249999999999
1630573706487,-0.522282,-0.651602,-0.5453399999999999
1630573706497,-0.521794,-0.6527,-0.544669
1630573706507,-0.521855,-0.652822,-0.5447299999999999
1630573706516,-0.52094,-0.652639,-0.543449
1630573706526,-0.521428,-0.651968,-0.542839
1630573706535,-0.52216,-0.65209,-0.543449
1630573706545,-0.521794,-0.652883,-0.544608
1630573706555,-0.52277,-0.653188,-0.544242
1630573706564,-0.522038,-0.653859,-0.543449
1630573706574,-0.522404,-0.653432,-0.543022
1630573706583,-0.522282,-0.654225,-0.543388
1630573706593,-0.522343,-0.654774,-0.543388
1630573706603,-0.522282,-0.655628,-0.544242
1630573706612,-0.522343,-0.655262,-0.5435099999999999
1630573706622,-0.522282,-0.6557499999999999,-0.542961
1630573706631,-0.521428,-0.6560549999999999,-0.541436
1630573706641,-0.521794,-0.6554449999999999,-0.540948
1630573706651,-0.521794,-0.655872,-0.540216
1630573706660,-0.5213059999999999,-0.654896,-0.540826
1630573706670,-0.5213059999999999,-0.655018,-0.541436
1630573706679,-0.521062,-0.655567,-0.5410699999999999
1630573706689,-0.520574,-0.655262,-0.542351
1630573706699,-0.5213059999999999,-0.654957,-0.541619
1630573706708,-0.519842,-0.655201,-0.542168
1630573706718,-0.520025,-0.654896,-0.542168
1630573706727,-0.521672,-0.655201,-0.541192
1630573706737,-0.52094,-0.655262,-0.542412
1630573706747,-0.521184,-0.654469,-0.541924
1630573706756,-0.52155,-0.653798,-0.541253
1630573706766,-0.521367,-0.654286,-0.541253
1630573706775,-0.521794,-0.65331,-0.5407649999999999
1630573706785,-0.521367,-0.653737,-0.5401549999999999
1630573706795,-0.521062,-0.65453,-0.541009
1630573706804,-0.52094,-0.655079,-0.540948
1630573706814,-0.520147,-0.654225,-0.5410699999999999
1630573706823,-0.520757,-0.65392,-0.5413749999999999
1630573706833,-0.521672,-0.65392,-0.5416799999999999
1630573706843,-0.52155,-0.654042,-0.541131
1630573706852,-0.520879,-0.654286,-0.541192
1630573706862,-0.52155,-0.655811,-0.5395449999999999
1630573706871,-0.5206959999999999,-0.655079,-0.539972
1630573706881,-0.521794,-0.6557499999999999,-0.539789
1630573706891,-0.521733,-0.6560549999999999,-0.539972
1630573706900,-0.5219159999999999,-0.656238,-0.540399
1630573706910,-0.522648,-0.656848,-0.539911
1630573706919,-0.5216109999999999,-0.6569699999999999,-0.540399
1630573706929,-0.522465,-0.656787,-0.540521
1630573706939,-0.5219159999999999,-0.657519,-0.540643
1630573706948,-0.521489,-0.657824,-0.540094
1630573706958,-0.522709,-0.6572749999999999,-0.539606
1630573706967,-0.522038,-0.657031,-0.540277
1630573706977,-0.521123,-0.656482,-0.539789
1630573706987,-0.521733,-0.657519,-0.5389349999999999
1630573706996,-0.521977,-0.657153,-0.538813
1630573707006,-0.521733,-0.655994,-0.540704
1630573707015,-0.52094,-0.656787,-0.540033
1630573707025,-0.521672,-0.657336,-0.5398499999999999
1630573707035,-0.52155,-0.657641,-0.541009
1630573707044,-0.5216109999999999,-0.657397,-0.541192
1630573707054,-0.52094,-0.6569699999999999,-0.5407649999999999
1630573707063,-0.522038,-0.656116,-0.540948
1630573707073,-0.521062,-0.655811,-0.5413749999999999
1630573707083,-0.5210009999999999,-0.655262,-0.541436
1630573707092,-0.521062,-0.654896,-0.541741
1630573707102,-0.520452,-0.655323,-0.542046
1630573707111,-0.521062,-0.655323,-0.540948
1630573707121,-0.5206959999999999,-0.65514,-0.5407649999999999
1630573707131,-0.52094,-0.65514,-0.5407649999999999
1630573707140,-0.521245,-0.655994,-0.540521
1630573707150,-0.521184,-0.6557499999999999,-0.541253
1630573707159,-0.520635,-0.655201,-0.540582
1630573707169,-0.522038,-0.655018,-0.542839
1630573707179,-0.5228309999999999,-0.655567,-0.5435099999999999
1630573707188,-0.522648,-0.655018,-0.542717
1630573707198,-0.523075,-0.654652,-0.541192
1630573707207,-0.522892,-0.653127,-0.542168
1630573707217,-0.521977,-0.653859,-0.5425949999999999
1630573707227,-0.52216,-0.654225,-0.542656
1630573707236,-0.522587,-0.654103,-0.542168
1630573707246,-0.522587,-0.653188,-0.542351
1630573707255,-0.5213059999999999,-0.651968,-0.543022
1630573707265,-0.522282,-0.652212,-0.5422899999999999
1630573707275,-0.522648,-0.653066,-0.541497
1630573707284,-0.522404,-0.653554,-0.542046
1630573707294,-0.52094,-0.654042,-0.542961
1630573707303,-0.520635,-0.6557499999999999,-0.544791
1630573707313,-0.520635,-0.657214,-0.5447299999999999
1630573707323,-0.520208,-0.657641,-0.5456449999999999
1630573707332,-0.520269,-0.657519,-0.544242
1630573707342,-0.519598,-0.656238,-0.543022
1630573707351,-0.5191709999999999,-0.656604,-0.541619
1630573707361,-0.519537,-0.656116,-0.541741
1630573707371,-0.518134,-0.655689,-0.541192
1630573707380,-0.517829,-0.655018,-0.541192
1630573707390,-0.518134,-0.654225,-0.542778
1630573707399,-0.517829,-0.65453,-0.5438149999999999
1630573707409,-0.517463,-0.654164,-0.5435099999999999
1630573707419,-0.518012,-0.653066,-0.543571
1630573707428,-0.51789,-0.652273,-0.544364
1630573707438,-0.51728,-0.652212,-0.544486
1630573707447,-0.517829,-0.652212,-0.544913
1630573707457,-0.517402,-0.651785,-0.545706
1630573707467,-0.517829,-0.650687,-0.545706
1630573707476,-0.518805,-0.650748,-0.545462
1630573707486,-0.519293,-0.651419,-0.545462
1630573707495,-0.518439,-0.65026,-0.545218
1630573707505,-0.518927,-0.649955,-0.546621
1630573707515,-0.51911,-0.651541,-0.548512
1630573707524,-0.518378,-0.651724,-0.549366
1630573707534,-0.519049,-0.650992,-0.549305
1630573707543,-0.519354,-0.65148,-0.547658
1630573707553,-0.519354,-0.651541,-0.5459499999999999
1630573707563,-0.5191709999999999,-0.650504,-0.545462
1630573707572,-0.518927,-0.651114,-0.545584
1630573707582,-0.518378,-0.651663,-0.546682
1630573707591,-0.519537,-0.652517,-0.546011
1630573707601,-0.518134,-0.6527,-0.545096
1630573707611,-0.518317,-0.653554,-0.545157
1630573707620,-0.519842,-0.653981,-0.545279
1630573707630,-0.518317,-0.654835,-0.545401
1630573707639,-0.518927,-0.655323,-0.5459499999999999
1630573707649,-0.519232,-0.656848,-0.546011
1630573707659,-0.518988,-0.656421,-0.5444249999999999
1630573707668,-0.518988,-0.656787,-0.544852
1630573707678,-0.520208,-0.655994,-0.5453399999999999
1630573707687,-0.519293,-0.656543,-0.545523
1630573707697,-0.518744,-0.656482,-0.545584
1630573707707,-0.517829,-0.655628,-0.545218
1630573707716,-0.517707,-0.654957,-0.544669
1630573707726,-0.517158,-0.6557499999999999,-0.544608
1630573707735,-0.5176459999999999,-0.655079,-0.5444249999999999
1630573707745,-0.5170359999999999,-0.655567,-0.5441199999999999
1630573707755,-0.517158,-0.654835,-0.544364
1630573707764,-0.51728,-0.654713,-0.5441199999999999
1630573707774,-0.517402,-0.654896,-0.544608
1630573707783,-0.517219,-0.65453,-0.543754
1630573707793,-0.516487,-0.654835,-0.543266
1630573707803,-0.517402,-0.654957,-0.543693
1630573707812,-0.516853,-0.65514,-0.543327
1630573707822,-0.516853,-0.655323,-0.542717
1630573707831,-0.517097,-0.6554449999999999,-0.543022
1630573707841,-0.517585,-0.655018,-0.542778
1630573707851,-0.517097,-0.654896,-0.5425949999999999
1630573707860,-0.517768,-0.6560549999999999,-0.543449
1630573707870,-0.517585,-0.656299,-0.542656
1630573707879,-0.51728,-0.655384,-0.543388
1630573707889,-0.518073,-0.655811,-0.543083
1630573707899,-0.518317,-0.656421,-0.542351
1630573707908,-0.5191709999999999,-0.655384,-0.542778
1630573707918,-0.5182559999999999,-0.655567,-0.540704
1630573707927,-0.518988,-0.655628,-0.540948
1630573707937,-0.518988,-0.656604,-0.5416799999999999
1630573707947,-0.519354,-0.657214,-0.542229
1630573707956,-0.519659,-0.6578849999999999,-0.541192
1630573707966,-0.5185609999999999,-0.657702,-0.5416799999999999
1630573707975,-0.5176459999999999,-0.658068,-0.541741
1630573707985,-0.518317,-0.658434,-0.541802
1630573707995,-0.518927,-0.658434,-0.5413749999999999
1630573708004,-0.5182559999999999,-0.6597149999999999,-0.5410699999999999
1630573708014,-0.5185609999999999,-0.659288,-0.540277
1630573708023,-0.519293,-0.659044,-0.540399
1630573708033,-0.518927,-0.658617,-0.5401549999999999
1630573708043,-0.517829,-0.658373,-0.539667
1630573708052,-0.5185,-0.659227,-0.5404599999999999
1630573708062,-0.520147,-0.6587999999999999,-0.541436
1630573708071,-0.5206959999999999,-0.657946,-0.542351
1630573708081,-0.519964,-0.657458,-0.5410699999999999
1630573708091,-0.519415,-0.657336,-0.542351
1630573708100,-0.5200859999999999,-0.657763,-0.5419849999999999
1630573708110,-0.520025,-0.658007,-0.542656
1630573708119,-0.519232,-0.657824,-0.5407649999999999
1630573708129,-0.518622,-0.657031,-0.540948
1630573708139,-0.518073,-0.656421,-0.5425949999999999
1630573708148,-0.518744,-0.6557499999999999,-0.541497
1630573708158,-0.51911,-0.6554449999999999,-0.541863
1630573708167,-0.519354,-0.654896,-0.543327
1630573708177,-0.5188659999999999,-0.654164,-0.543998
1630573708187,-0.51972,-0.653371,-0.5441199999999999
1630573708196,-0.520757,-0.652456,-0.543876
1630573708206,-0.520025,-0.652151,-0.543266
1630573708215,-0.5206959999999999,-0.65209,-0.544608
1630573708225,-0.521123,-0.653981,-0.545096
1630573708235,-0.52033,-0.654652,-0.544608
1630573708244,-0.52033,-0.654286,-0.5447299999999999
1630573708254,-0.520818,-0.653493,-0.543449
1630573708263,-0.520635,-0.653554,-0.544181
1630573708273,-0.520025,-0.653005,-0.543083
1630573708283,-0.5200859999999999,-0.651907,-0.5435099999999999
1630573708292,-0.520147,-0.653554,-0.543327
1630573708302,-0.520757,-0.655262,-0.543327
1630573708311,-0.519964,-0.657153,-0.543266
1630573708321,-0.520147,-0.656848,-0.5428999999999999
1630573708331,-0.5194759999999999,-0.655994,-0.542778
1630573708340,-0.5200859999999999,-0.656604,-0.542107
1630573708350,-0.5194759999999999,-0.656604,-0.542534
1630573708359,-0.518927,-0.655201,-0.541741
1630573708369,-0.519354,-0.65514,-0.541314
1630573708379,-0.519293,-0.654469,-0.5432049999999999
1630573708388,-0.5182559999999999,-0.65514,-0.544486
1630573708398,-0.518744,-0.655567,-0.5441199999999999
1630573708407,-0.518988,-0.653981,-0.544608
1630573708417,-0.518195,-0.653005,-0.5435099999999999
1630573708427,-0.517707,-0.65331,-0.544608
1630573708436,-0.518012,-0.653188,-0.544852
1630573708446,-0.516792,-0.65331,-0.545218
1630573708455,-0.51667,-0.653066,-0.545096
1630573708465,-0.516487,-0.651846,-0.544242
1630573708475,-0.518134,-0.651663,-0.545523
1630573708484,-0.517585,-0.653188,-0.546011
1630573708494,-0.517585,-0.652517,-0.545279
1630573708503,-0.517768,-0.651358,-0.545828
1630573708513,-0.518134,-0.652334,-0.545828
1630573708523,-0.518073,-0.652456,-0.546194
1630573708532,-0.518378,-0.652212,-0.547414
1630573708542,-0.519049,-0.651541,-0.546621
1630573708551,-0.51911,-0.650748,-0.546682
1630573708561,-0.5194759999999999,-0.651663,-0.546377
1630573708571,-0.519659,-0.651724,-0.546072
1630573708580,-0.518195,-0.651846,-0.5459499999999999
1630573708590,-0.518378,-0.652395,-0.546316
1630573708599,-0.5182559999999999,-0.652883,-0.547292
1630573708609,-0.518134,-0.653798,-0.546804
1630573708619,-0.5176459999999999,-0.653493,-0.5471699999999999
1630573708628,-0.51789,-0.653859,-0.546438
1630573708638,-0.5182559999999999,-0.654591,-0.544974
1630573708647,-0.517585,-0.655323,-0.5447299999999999
1630573708657,-0.517768,-0.65514,-0.544669
1630573708667,-0.517402,-0.656299,-0.5450349999999999
1630573708676,-0.518134,-0.657214,-0.545706
1630573708686,-0.517524,-0.657214,-0.545584
1630573708695,-0.517585,-0.657092,-0.5456449999999999
1630573708705,-0.517219,-0.6569699999999999,-0.5438149999999999
1630573708715,-0.5164259999999999,-0.656604,-0.545279
1630573708724,-0.5173409999999999,-0.6569699999999999,-0.545096
1630573708734,-0.517097,-0.656726,-0.545706
1630573708743,-0.51728,-0.656116,-0.5453399999999999
1630573708753,-0.51728,-0.655384,-0.544974
1630573708763,-0.516914,-0.655689,-0.544547
1630573708772,-0.516914,-0.655506,-0.545157
1630573708782,-0.5170359999999999,-0.655933,-0.544974
1630573708791,-0.516792,-0.656299,-0.5453399999999999
1630573708801,-0.5173409999999999,-0.655079,-0.5444249999999999
1630573708811,-0.516487,-0.655628,-0.544791
1630573708820,-0.51667,-0.656482,-0.543937
1630573708830,-0.516243,-0.655323,-0.5441199999999999
1630573708839,-0.516853,-0.655079,-0.545279
1630573708849,-0.516975,-0.655262,-0.544974
1630573708859,-0.51545,-0.654591,-0.544059
1630573708868,-0.5161209999999999,-0.654164,-0.543754
1630573708878,-0.516182,-0.654713,-0.543327
1630573708887,-0.515755,-0.654469,-0.543266
1630573708897,-0.515999,-0.654042,-0.5432049999999999
1630573708907,-0.516365,-0.654286,-0.543449
1630573708916,-0.516914,-0.654286,-0.5425949999999999
1630573708926,-0.518073,-0.654957,-0.5428999999999999
1630573708935,-0.518134,-0.655628,-0.542534
1630573708945,-0.5179509999999999,-0.655506,-0.5438149999999999
1630573708955,-0.517524,-0.6557499999999999,-0.543388
1630573708964,-0.518927,-0.656299,-0.542778
1630573708974,-0.518378,-0.656543,-0.543022
1630573708983,-0.518805,-0.656787,-0.542778
1630573708993,-0.5182559999999999,-0.657641,-0.543998
1630573709003,-0.518805,-0.658129,-0.542839
1630573709012,-0.5182559999999999,-0.658312,-0.542656
1630573709022,-0.518317,-0.658434,-0.543022
1630573709031,-0.517585,-0.659044,-0.543266
1630573709041,-0.517768,-0.658739,-0.542412
1630573709051,-0.517402,-0.658251,-0.542107
1630573709060,-0.51728,-0.658373,-0.542351
1630573709070,-0.516243,-0.658861,-0.5416799999999999
1630573709079,-0.516853,-0.6587999999999999,-0.541436
1630573709089,-0.5164259999999999,-0.658739,-0.541192
1630573709099,-0.516792,-0.659654,-0.541558
1630573709108,-0.518744,-0.6600199999999999,-0.5416799999999999
1630573709118,-0.517463,-0.660386,-0.543083
1630573709127,-0.517707,-0.659227,-0.542961
1630573709137,-0.518317,-0.6581899999999999,-0.543083
1630573709147,-0.519598,-0.657031,-0.544242
1630573709156,-0.519659,-0.6563599999999999,-0.543571
1630573709166,-0.518988,-0.656116,-0.543632
1630573709175,-0.518622,-0.653737,-0.5435099999999999
1630573709185,-0.517707,-0.654225,-0.5444249999999999
1630573709195,-0.518378,-0.654164,-0.544242
1630573709204,-0.5188659999999999,-0.654835,-0.543266
1630573709214,-0.518988,-0.655628,-0.543022
1630573709223,-0.518744,-0.65453,-0.543266
1630573709233,-0.519354,-0.654591,-0.543998
1630573709243,-0.518683,-0.655506,-0.543754
1630573709252,-0.519049,-0.655079,-0.544852
1630573709262,-0.519049,-0.65514,-0.545157
1630573709271,-0.518378,-0.656482,-0.544791
1630573709281,-0.517463,-0.656299,-0.543754
1630573709291,-0.518805,-0.657092,-0.544608
1630573709300,-0.517402,-0.655994,-0.542778
1630573709310,-0.516853,-0.655811,-0.542656
1630573709319,-0.5158159999999999,-0.655506,-0.542656
1630573709329,-0.516243,-0.655628,-0.542168
1630573709339,-0.516792,-0.65514,-0.543998
1630573709348,-0.51667,-0.655384,-0.544364
1630573709358,-0.5164259999999999,-0.655628,-0.543632
1630573709367,-0.517463,-0.6554449999999999,-0.543266
1630573709377,-0.5158159999999999,-0.655323,-0.544242
1630573709387,-0.515877,-0.655323,-0.543632
1630573709396,-0.516243,-0.656177,-0.5441199999999999
1630573709406,-0.516548,-0.656116,-0.543449
1630573709415,-0.515999,-0.656238,-0.543632
1630573709425,-0.515877,-0.656848,-0.543632
1630573709435,-0.516182,-0.655262,-0.543449
1630573709444,-0.516914,-0.655384,-0.5447299999999999
1630573709454,-0.517585,-0.655994,-0.544486
1630573709463,-0.517829,-0.6557499999999999,-0.544486
1630573709473,-0.5188659999999999,-0.655201,-0.544547
1630573709483,-0.5185609999999999,-0.655933,-0.544486
1630573709492,-0.518744,-0.656238,-0.546072
1630573709502,-0.517768,-0.655628,-0.5471699999999999
1630573709511,-0.517402,-0.655628,-0.5468649999999999
1630573709521,-0.5185609999999999,-0.655323,-0.545279
1630573709531,-0.517707,-0.655384,-0.544303
1630573709540,-0.51789,-0.654835,-0.5438149999999999
1630573709550,-0.518927,-0.655201,-0.5435099999999999
1630573709559,-0.518195,-0.655323,-0.544669
1630573709569,-0.518317,-0.655933,-0.5459499999999999
1630573709579,-0.518012,-0.656238,-0.545279
1630573709588,-0.517829,-0.656787,-0.544974
1630573709598,-0.517097,-0.656604,-0.544791
1630573709607,-0.517158,-0.657092,-0.545828
1630573709617,-0.517524,-0.656116,-0.544547
1630573709627,-0.5182559999999999,-0.6566649999999999,-0.5441199999999999
1630573709636,-0.518622,-0.656543,-0.5435099999999999
1630573709646,-0.5176459999999999,-0.656909,-0.543449
1630573709655,-0.5173409999999999,-0.656238,-0.544242
1630573709665,-0.5182559999999999,-0.656482,-0.5441199999999999
1630573709675,-0.516853,-0.655567,-0.544791
1630573709684,-0.516975,-0.654713,-0.5444249999999999
1630573709694,-0.516853,-0.654896,-0.545584
1630573709703,-0.517097,-0.653005,-0.545523
1630573709713,-0.516853,-0.653859,-0.5447299999999999
1630573709723,-0.5158159999999999,-0.654652,-0.545767
1630573709732,-0.516792,-0.653859,-0.544791
1630573709742,-0.516609,-0.654225,-0.544852
1630573709751,-0.516548,-0.6554449999999999,-0.544669
1630573709761,-0.515999,-0.654957,-0.543937
1630573709771,-0.515633,-0.655384,-0.543388
1630573709780,-0.515694,-0.655506,-0.543876
1630573709790,-0.5158159999999999,-0.6563599999999999,-0.542473
1630573709799,-0.515694,-0.656299,-0.542961
1630573709809,-0.516548,-0.657031,-0.543266
1630573709819,-0.51545,-0.6566649999999999,-0.5432049999999999
1630573709828,-0.516914,-0.657031,-0.543144
1630573709838,-0.516548,-0.6575799999999999,-0.543022
1630573709847,-0.51667,-0.656848,-0.544242
1630573709857,-0.517402,-0.656848,-0.5432049999999999
1630573709867,-0.5164259999999999,-0.657336,-0.542961
1630573709876,-0.517097,-0.657397,-0.542107
1630573709886,-0.51728,-0.657397,-0.542351
1630573709895,-0.517707,-0.659166,-0.5416799999999999
1630573709905,-0.517463,-0.658678,-0.5413749999999999
1630573709915,-0.5179509999999999,-0.658983,-0.542473
1630573709924,-0.51789,-0.6603249999999999,-0.541802
1630573709934,-0.517158,-0.660813,-0.542473
1630573709943,-0.517524,-0.659593,-0.542351
1630573709953,-0.517768,-0.6594099999999999,-0.5416799999999999
1630573709963,-0.517402,-0.659898,-0.541497
1630573709972,-0.517219,-0.659776,-0.541314
1630573709982,-0.5176459999999999,-0.658922,-0.5419849999999999
1630573709991,-0.517768,-0.659166,-0.5425949999999999
1630573710001,-0.5173409999999999,-0.658129,-0.542168
1630573710011,-0.515938,-0.6572749999999999,-0.543083
1630573710020,-0.51545,-0.6578849999999999,-0.543144
1630573710030,-0.515755,-0.657153,-0.542961
1630573710039,-0.515877,-0.656787,-0.5435099999999999
1630573710049,-0.516243,-0.657336,-0.543083
1630573710059,-0.5161209999999999,-0.657336,-0.543083
1630573710068,-0.51484,-0.658068,-0.543693
1630573710078,-0.515084,-0.657458,-0.542961
1630573710087,-0.515145,-0.657824,-0.5425949999999999
1630573710097,-0.5161209999999999,-0.658129,-0.541314
1630573710107,-0.515694,-0.658678,-0.5416799999999999
1630573710116,-0.514352,-0.658739,-0.541192
1630573710126,-0.515389,-0.658068,-0.5416799999999999
1630573710135,-0.516487,-0.658129,-0.542412
1630573710145,-0.5167309999999999,-0.657824,-0.543266
1630573710155,-0.517524,-0.657702,-0.544669
1630573710164,-0.516548,-0.6578849999999999,-0.544669
1630573710174,-0.5164259999999999,-0.655506,-0.5428999999999999
1630573710183,-0.5170359999999999,-0.6554449999999999,-0.5441199999999999
1630573710193,-0.516365,-0.6563599999999999,-0.544242
1630573710203,-0.515999,-0.655689,-0.5444249999999999
1630573710212,-0.517158,-0.655201,-0.543571
1630573710222,-0.516792,-0.655811,-0.543937
1630573710231,-0.517829,-0.6557499999999999,-0.543876
1630573710241,-0.51728,-0.656116,-0.544242
1630573710251,-0.517463,-0.657092,-0.5447299999999999
1630573710260,-0.51728,-0.657702,-0.544364
1630573710270,-0.516548,-0.658678,-0.545096
1630573710279,-0.516853,-0.659532,-0.5444249999999999
1630573710289,-0.5161209999999999,-0.661484,-0.544486
1630573710299,-0.515389,-0.660874,-0.544242
1630573710308,-0.515145,-0.660752,-0.543632
1630573710318,-0.513925,-0.6606299999999999,-0.542412
1630573710327,-0.5139859999999999,-0.660447,-0.541619
1630573710337,-0.514779,-0.6606299999999999,-0.542351
1630573710347,-0.5145959999999999,-0.660996,-0.542351
1630573710356,-0.513742,-0.660508,-0.543144
1630573710366,-0.513742,-0.659959,-0.543266
1630573710375,-0.51423,-0.659288,-0.543754
1630573710385,-0.514108,-0.658556,-0.543266
1630573710395,-0.513498,-0.657946,-0.543083
1630573710404,-0.5127659999999999,-0.6572749999999999,-0.543327
1630573710414,-0.5133759999999999,-0.6569699999999999,-0.542656
1630573710423,-0.514413,-0.656543,-0.543937
1630573710433,-0.51362,-0.654713,-0.5447299999999999
1630573710443,-0.514535,-0.655201,-0.544791
1630573710452,-0.5145959999999999,-0.656726,-0.545462
1630573710462,-0.514352,-0.656177,-0.545218
1630573710471,-0.5149009999999999,-0.655384,-0.544669
1630573710481,-0.514108,-0.655384,-0.545462
1630573710491,-0.5139859999999999,-0.6554449999999999,-0.5462549999999999
1630573710500,-0.5139859999999999,-0.655567,-0.5456449999999999
1630573710510,-0.51423,-0.656482,-0.545584
1630573710519,-0.515084,-0.657336,-0.545523
1630573710529,-0.514718,-0.655811,-0.5453399999999999
1630573710539,-0.513925,-0.655506,-0.544242
1630573710548,-0.51606,-0.655506,-0.545218
1630573710558,-0.5155109999999999,-0.656299,-0.545584
1630573710567,-0.5149009999999999,-0.657153,-0.545828
1630573710577,-0.5139859999999999,-0.657458,-0.545218
1630573710587,-0.5158159999999999,-0.658434,-0.544608
1630573710596,-0.515328,-0.658739,-0.545767
1630573710606,-0.515694,-0.659593,-0.545401
1630573710615,-0.5155109999999999,-0.660386,-0.544669
1630573710625,-0.515572,-0.660386,-0.5438149999999999
1630573710635,-0.514962,-0.659166,-0.543693
1630573710644,-0.515328,-0.660447,-0.543022
1630573710654,-0.515572,-0.6600199999999999,-0.544059
1630573710663,-0.514718,-0.659898,-0.5444249999999999
1630573710673,-0.515084,-0.659471,-0.543754
1630573710683,-0.51484,-0.658861,-0.543449
1630573710692,-0.5145959999999999,-0.6584949999999999,-0.544608
1630573710702,-0.514169,-0.658861,-0.5441199999999999
1630573710711,-0.513498,-0.657336,-0.543693
1630573710721,-0.514108,-0.6575799999999999,-0.544364
1630573710731,-0.513742,-0.6569699999999999,-0.544852
1630573710740,-0.51301,-0.657336,-0.544242
1630573710750,-0.5133759999999999,-0.656238,-0.544303
1630573710759,-0.5139859999999999,-0.657031,-0.543876
1630573710769,-0.513864,-0.656482,-0.543876
1630573710779,-0.513498,-0.656726,-0.5441199999999999
1630573710788,-0.5133759999999999,-0.657153,-0.543632
1630573710798,-0.513498,-0.6569699999999999,-0.544181
1630573710807,-0.513864,-0.657214,-0.5428999999999999
1630573710817,-0.513803,-0.6575799999999999,-0.543022
1630573710827,-0.513803,-0.6575799999999999,-0.543144
1630573710836,-0.513742,-0.6575799999999999,-0.543632
1630573710846,-0.514169,-0.657946,-0.542778
1630573710855,-0.514047,-0.657824,-0.5435099999999999
1630573710865,-0.5142909999999999,-0.657946,-0.543327
1630573710875,-0.5145959999999999,-0.657214,-0.543388
1630573710884,-0.514657,-0.657702,-0.542778
1630573710894,-0.514108,-0.657824,-0.542717
1630573710903,-0.515023,-0.658556,-0.543571
1630573710913,-0.51545,-0.658861,-0.5425949999999999
1630573710923,-0.515145,-0.658739,-0.542229
1630573710932,-0.5155109999999999,-0.6597149999999999,-0.542717
1630573710942,-0.51545,-0.659593,-0.543083
1630573710951,-0.515572,-0.660203,-0.543754
1630573710961,-0.5149009999999999,-0.660264,-0.5422899999999999
1630573710971,-0.514047,-0.661484,-0.542473
1630573710980,-0.5145959999999999,-0.660813,-0.5416799999999999
1630573710990,-0.514779,-0.6609349999999999,-0.540948
1630573710999,-0.51484,-0.660996,-0.542107
1630573711009,-0.515389,-0.660386,-0.541802
1630573711019,-0.514657,-0.660874,-0.5425949999999999
1630573711028,-0.514657,-0.661057,-0.543632
1630573711038,-0.515084,-0.661301,-0.543144
1630573711047,-0.5145959999999999,-0.660447,-0.543632
1630573711057,-0.514169,-0.660142,-0.5425949999999999
1630573711067,-0.5142909999999999,-0.660264,-0.5432049999999999
1630573711076,-0.514108,-0.6603249999999999,-0.542839
1630573711086,-0.514535,-0.659593,-0.542412
1630573711095,-0.5139859999999999,-0.659654,-0.544242
1630573711105,-0.513742,-0.658861,-0.543754
1630573711115,-0.514718,-0.6587999999999999,-0.543327
1630573711124,-0.513132,-0.658556,-0.5432049999999999
1630573711134,-0.5124,-0.659044,-0.542168
1630573711143,-0.513315,-0.660264,-0.541863
1630573711153,-0.513864,-0.659288,-0.5413749999999999
1630573711163,-0.513254,-0.659898,-0.541619
1630573711172,-0.51301,-0.6581899999999999,-0.542473
1630573711182,-0.51484,-0.658556,-0.543388
1630573711191,-0.5155109999999999,-0.658861,-0.544242
1630573711201,-0.51606,-0.6584949999999999,-0.543937
1630573711211,-0.516304,-0.657031,-0.5435099999999999
1630573711220,-0.5158159999999999,-0.657092,-0.544669
1630573711230,-0.515694,-0.657946,-0.5441199999999999
1630573711239,-0.5158159999999999,-0.657153,-0.543998
1630573711249,-0.516365,-0.656848,-0.5435099999999999
1630573711259,-0.5164259999999999,-0.656177,-0.544242
1630573711268,-0.515267,-0.6563599999999999,-0.544486
1630573711278,-0.515572,-0.656482,-0.544608
1630573711287,-0.5155109999999999,-0.656116,-0.545096
1630573711297,-0.5149009999999999,-0.6569699999999999,-0.544181
1630573711307,-0.514474,-0.657336,-0.545096
1630573711316,-0.514169,-0.658556,-0.5453399999999999
1630573711326,-0.51423,-0.660447,-0.545523
1630573711335,-0.512888,-0.660813,-0.544669
1630573711345,-0.513742,-0.660752,-0.542961
1630573711355,-0.5136809999999999,-0.661423,-0.5428999999999999
1630573711364,-0.513315,-0.661423,-0.541802
1630573711374,-0.512644,-0.661057,-0.5410699999999999
1630573711383,-0.5124609999999999,-0.660874,-0.542046
1630573711393,-0.51301,-0.6603249999999999,-0.541802
1630573711403,-0.5130709999999999,-0.6597149999999999,-0.542473
1630573711412,-0.512644,-0.659593,-0.541802
1630573711422,-0.512583,-0.6581899999999999,-0.542839
1630573711431,-0.512034,-0.658251,-0.543083
1630573711441,-0.514108,-0.658129,-0.543754
1630573711451,-0.513803,-0.658068,-0.5435099999999999
1630573711460,-0.514352,-0.657336,-0.543571
1630573711470,-0.513254,-0.657214,-0.543876
1630573711479,-0.514108,-0.6563599999999999,-0.543449
1630573711489,-0.515267,-0.657519,-0.544303
1630573711499,-0.514535,-0.658434,-0.543449
1630573711508,-0.513803,-0.658556,-0.542351
1630573711518,-0.514169,-0.658617,-0.543388
1630573711527,-0.513803,-0.658556,-0.543754
1630573711537,-0.514474,-0.6591049999999999,-0.544608
1630573711547,-0.51545,-0.659166,-0.544974
1630573711556,-0.514657,-0.658739,-0.543937
1630573711566,-0.51484,-0.658617,-0.543022
1630573711575,-0.5152059999999999,-0.658861,-0.542778
1630573711585,-0.515938,-0.659776,-0.5438149999999999
1630573711595,-0.515694,-0.6597149999999999,-0.544486
1630573711604,-0.515999,-0.6594099999999999,-0.543754
1630573711614,-0.515999,-0.659044,-0.543144
1630573711623,-0.5155109999999999,-0.659959,-0.543754
1630573711633,-0.515328,-0.660264,-0.5438149999999999
1630573711643,-0.5152059999999999,-0.6609349999999999,-0.5441199999999999
1630573711652,-0.5155109999999999,-0.660508,-0.543998
1630573711662,-0.515694,-0.660752,-0.543632
1630573711671,-0.515755,-0.6612399999999999,-0.543266
1630573711681,-0.516243,-0.6606299999999999,-0.543693
1630573711691,-0.515694,-0.659532,-0.543876
1630573711700,-0.5149009999999999,-0.659593,-0.5435099999999999
1630573711710,-0.515267,-0.6581899999999999,-0.5435099999999999
1630573711719,-0.513925,-0.656787,-0.543327
1630573711729,-0.514169,-0.6566649999999999,-0.544242
1630573711739,-0.513742,-0.655811,-0.544791
1630573711748,-0.513925,-0.655384,-0.545401
1630573711758,-0.514169,-0.654408,-0.545767
1630573711767,-0.5145959999999999,-0.65392,-0.546133
1630573711777,-0.5139859999999999,-0.654713,-0.545584
1630573711787,-0.513925,-0.6554449999999999,-0.545584
1630573711796,-0.513254,-0.6557499999999999,-0.544852
1630573711806,-0.513925,-0.655689,-0.544852
1630573711815,-0.513193,-0.656604,-0.5441199999999999
1630573711825,-0.5130709999999999,-0.655994,-0.543388
1630573711835,-0.513498,-0.656177,-0.543571
1630573711844,-0.5139859999999999,-0.656421,-0.542778
1630573711854,-0.514474,-0.656299,-0.543876
1630573711863,-0.515572,-0.656787,-0.543937
1630573711873,-0.514169,-0.657092,-0.544303
1630573711883,-0.515328,-0.655994,-0.543266
1630573711892,-0.515694,-0.657336,-0.544608
1630573711902,-0.514962,-0.655872,-0.543876
1630573711911,-0.515999,-0.657031,-0.543571
1630573711921,-0.51606,-0.6575799999999999,-0.543388
1630573711931,-0.514962,-0.658434,-0.542778
1630573711940,-0.515633,-0.6587999999999999,-0.5432049999999999
1630573711950,-0.516182,-0.6594099999999999,-0.543144
1630573711959,-0.515755,-0.659044,-0.542534
1630573711969,-0.51606,-0.659349,-0.542839
1630573711979,-0.516548,-0.6603249999999999,-0.542351
1630573711988,-0.516304,-0.6597149999999999,-0.542107
1630573711998,-0.51728,-0.660386,-0.542717
1630573712007,-0.516182,-0.660447,-0.542351
1630573712017,-0.515877,-0.661057,-0.541436
1630573712027,-0.5155109999999999,-0.661972,-0.540704
1630573712036,-0.516365,-0.662033,-0.541314
1630573712046,-0.5161209999999999,-0.661606,-0.540826
1630573712055,-0.516182,-0.6618499999999999,-0.5416799999999999
1630573712065,-0.5158159999999999,-0.661911,-0.541314
1630573712075,-0.515572,-0.661484,-0.542168
1630573712084,-0.515999,-0.660752,-0.541741
1630573712094,-0.514718,-0.6606299999999999,-0.541192
1630573712103,-0.5152059999999999,-0.660386,-0.540582
1630573712113,-0.5152059999999999,-0.659959,-0.541192
1630573712123,-0.515145,-0.659166,-0.540826
1630573712132,-0.5152059999999999,-0.658922,-0.5404599999999999
1630573712142,-0.515938,-0.659349,-0.540277
1630573712151,-0.516182,-0.660386,-0.541924
1630573712161,-0.515328,-0.659898,-0.540704
1630573712171,-0.514535,-0.659471,-0.541863
1630573712180,-0.51545,-0.660203,-0.542778
1630573712190,-0.5164259999999999,-0.658983,-0.541863
1630573712199,-0.516304,-0.6587999999999999,-0.541924
1630573712209,-0.5155109999999999,-0.6575799999999999,-0.542046
1630573712219,-0.514047,-0.657214,-0.541497
1630573712228,-0.515023,-0.6566649999999999,-0.541436
1630573712238,-0.5152059999999999,-0.657092,-0.540887
1630573712247,-0.515877,-0.656726,-0.540948
1630573712257,-0.5158159999999999,-0.657519,-0.542412
1630573712267,-0.516182,-0.659227,-0.5428999999999999
1630573712276,-0.515877,-0.659898,-0.541558
1630573712286,-0.517219,-0.659044,-0.542534
1630573712295,-0.516487,-0.659593,-0.542656
1630573712305,-0.516914,-0.658861,-0.542412
1630573712315,-0.515938,-0.659044,-0.5407649999999999
1630573712324,-0.5152059999999999,-0.659898,-0.5407649999999999
1630573712334,-0.515755,-0.660996,-0.541497
1630573712343,-0.515328,-0.661606,-0.5413749999999999
1630573712353,-0.514535,-0.661972,-0.541314
1630573712363,-0.51423,-0.662277,-0.540826
1630573712372,-0.513925,-0.6624599999999999,-0.539484
1630573712382,-0.514352,-0.661728,-0.539484
1630573712391,-0.5142909999999999,-0.662277,-0.538874
1630573712401,-0.51423,-0.6615449999999999,-0.538691
1630573712411,-0.513315,-0.660996,-0.5398499999999999
1630573712420,-0.5136809999999999,-0.660203,-0.541497
1630573712430,-0.51423,-0.660264,-0.541009
1630573712439,-0.5133759999999999,-0.659532,-0.541253
1630573712449,-0.51362,-0.659898,-0.542839
1630573712459,-0.51423,-0.6600199999999999,-0.543083
1630573712468,-0.514718,-0.659288,-0.542961
1630573712478,-0.514352,-0.659593,-0.542046
1630573712487,-0.514047,-0.659288,-0.541619
1630573712497,-0.51423,-0.658312,-0.541741
1630573712507,-0.515023,-0.657519,-0.5413749999999999
1630573712516,-0.515389,-0.656604,-0.542107
1630573712526,-0.514657,-0.6572749999999999,-0.542351
1630573712535,-0.5149009999999999,-0.658861,-0.542229
1630573712545,-0.514352,-0.658739,-0.5419849999999999
1630573712555,-0.514962,-0.658129,-0.543144
1630573712564,-0.514962,-0.658434,-0.5428999999999999
1630573712574,-0.515755,-0.658312,-0.543449
1630573712583,-0.515999,-0.658312,-0.544791
1630573712593,-0.517158,-0.658678,-0.543388
1630573712603,-0.516182,-0.658068,-0.542107
1630573712612,-0.517097,-0.658678,-0.542107
1630573712622,-0.5170359999999999,-0.658861,-0.543327
1630573712631,-0.5158159999999999,-0.659044,-0.5428999999999999
1630573712641,-0.5158159999999999,-0.659837,-0.543449
1630573712651,-0.51606,-0.661484,-0.543571
1630573712660,-0.515999,-0.662277,-0.544608
1630573712670,-0.516365,-0.661972,-0.543998
1630573712679,-0.515999,-0.660508,-0.543632
1630573712689,-0.515633,-0.659776,-0.542778
1630573712699,-0.515694,-0.659593,-0.5425949999999999
1630573712708,-0.51545,-0.658678,-0.542168
1630573712718,-0.51484,-0.658251,-0.543632
1630573712727,-0.515145,-0.657153,-0.542473
1630573712737,-0.515084,-0.656482,-0.544059
1630573712747,-0.515938,-0.6560549999999999,-0.5444249999999999
1630573712756,-0.515389,-0.656177,-0.5444249999999999
1630573712766,-0.51423,-0.6554449999999999,-0.544486
1630573712775,-0.5158159999999999,-0.655628,-0.544486
1630573712785,-0.515267,-0.654774,-0.543266
1630573712795,-0.514474,-0.655933,-0.544303
1630573712804,-0.513925,-0.655262,-0.544242
1630573712814,-0.513925,-0.656177,-0.5435099999999999
1630573712823,-0.513193,-0.656543,-0.542778
1630573712833,-0.512949,-0.656238,-0.542412
1630573712843,-0.512888,-0.658312,-0.5422899999999999
1630573712852,-0.513559,-0.657763,-0.541924
1630573712862,-0.51301,-0.657824,-0.541863
1630573712871,-0.513193,-0.658739,-0.541863
1630573712881,-0.5127659999999999,-0.658678,-0.541924
1630573712891,-0.513132,-0.658983,-0.542778
1630573712900,-0.513132,-0.659227,-0.541924
1630573712910,-0.513925,-0.659776,-0.542107
1630573712919,-0.5139859999999999,-0.6600199999999999,-0.540704
1630573712929,-0.5130709999999999,-0.660447,-0.540338
1630573712939,-0.5136809999999999,-0.661789,-0.5410699999999999
1630573712948,-0.514352,-0.662826,-0.541131
1630573712958,-0.514047,-0.6636799999999999,-0.540704
1630573712967,-0.514108,-0.663314,-0.541558
1630573712977,-0.514474,-0.663558,-0.540399
1630573712987,-0.514047,-0.664839,-0.540277
1630573712996,-0.514108,-0.664778,-0.540216
1630573713006,-0.514169,-0.664229,-0.538996
1630573713015,-0.513437,-0.664473,-0.5398499999999999
1630573713025,-0.513742,-0.664778,-0.540338
1630573713035,-0.513803,-0.664168,-0.539972
1630573713044,-0.514047,-0.6636799999999999,-0.539118
1630573713054,-0.51423,-0.662521,-0.539911
1630573713063,-0.513742,-0.663497,-0.5389349999999999
1630573713073,-0.5142909999999999,-0.662582,-0.538691
1630573713083,-0.515145,-0.662826,-0.539484
1630573713092,-0.515145,-0.662948,-0.540521
1630573713102,-0.514779,-0.662277,-0.5419849999999999
1630573713111,-0.514718,-0.6615449999999999,-0.541314
1630573713121,-0.514657,-0.661362,-0.540704
1630573713131,-0.514108,-0.661972,-0.5410699999999999
1630573713140,-0.5130709999999999,-0.6606299999999999,-0.540643
1630573713150,-0.513803,-0.660447,-0.539301
1630573713159,-0.513803,-0.661057,-0.539972
1630573713169,-0.514108,-0.660752,-0.540643
1630573713179,-0.5133759999999999,-0.659837,-0.540399
1630573713188,-0.5139859999999999,-0.658922,-0.540704
1630573713198,-0.514108,-0.658007,-0.542168
1630573713207,-0.515267,-0.657031,-0.542107
1630573713217,-0.515877,-0.656543,-0.542534
1630573713227,-0.515694,-0.655811,-0.541558
1630573713236,-0.515572,-0.655628,-0.541741
1630573713246,-0.515755,-0.6575799999999999,-0.542961
1630573713255,-0.515145,-0.6587999999999999,-0.542656
1630573713265,-0.515938,-0.658068,-0.541802
1630573713275,-0.515877,-0.658861,-0.541802
1630573713284,-0.514962,-0.660386,-0.542229
1630573713294,-0.5158159999999999,-0.6597149999999999,-0.541924
1630573713303,-0.515938,-0.6606299999999999,-0.542107
1630573713313,-0.516487,-0.6615449999999999,-0.541314
1630573713323,-0.515572,-0.6621549999999999,-0.5416799999999999
1630573713332,-0.514718,-0.662948,-0.542046
1630573713342,-0.5142909999999999,-0.663741,-0.5416799999999999
1630573713351,-0.515145,-0.6642899999999999,-0.541741
1630573713361,-0.512949,-0.6636799999999999,-0.540643
1630573713371,-0.5133759999999999,-0.663558,-0.5392399999999999
1630573713380,-0.513254,-0.661911,-0.539362
1630573713390,-0.514047,-0.662033,-0.539789
1630573713399,-0.5127659999999999,-0.661972,-0.540582
1630573713409,-0.512522,-0.661301,-0.540704
1630573713419,-0.513742,-0.6612399999999999,-0.542168
1630573713428,-0.5124609999999999,-0.660874,-0.541741
1630573713438,-0.512827,-0.660386,-0.5428999999999999
1630573713447,-0.512705,-0.660874,-0.543022
1630573713457,-0.5127659999999999,-0.6603249999999999,-0.5428999999999999
1630573713467,-0.513559,-0.660203,-0.543327
1630573713476,-0.512339,-0.659837,-0.542839
1630573713486,-0.511424,-0.660142,-0.543327
1630573713495,-0.511851,-0.658983,-0.5432049999999999
1630573713505,-0.512278,-0.6587999999999999,-0.542412
1630573713515,-0.512278,-0.658312,-0.543266
1630573713524,-0.51118,-0.6584949999999999,-0.543449
1630573713534,-0.512156,-0.6581899999999999,-0.543876
1630573713543,-0.511607,-0.658373,-0.544059
1630573713553,-0.511668,-0.658678,-0.545767
1630573713563,-0.512339,-0.6591049999999999,-0.545584
1630573713572,-0.511912,-0.659593,-0.5462549999999999
1630573713582,-0.511973,-0.659349,-0.544303
1630573713591,-0.512583,-0.659227,-0.543632
1630573713601,-0.512095,-0.659349,-0.543388
1630573713611,-0.5124609999999999,-0.6594099999999999,-0.542961
1630573713620,-0.51179,-0.660264,-0.542717
1630573713630,-0.5124,-0.660752,-0.543876
1630573713639,-0.511607,-0.6612399999999999,-0.5441199999999999
1630573713649,-0.512705,-0.661972,-0.543876
1630573713659,-0.512583,-0.663192,-0.544059
1630573713668,-0.511607,-0.662521,-0.544059
1630573713678,-0.512522,-0.662826,-0.543388
1630573713687,-0.512644,-0.662521,-0.543449
1630573713697,-0.512278,-0.661728,-0.542961
1630573713707,-0.5127659999999999,-0.661728,-0.543449
1630573713716,-0.5124,-0.660508,-0.543571
1630573713726,-0.5124,-0.660874,-0.542839
1630573713735,-0.510753,-0.661118,-0.545279
1630573713745,-0.511546,-0.659837,-0.544852
1630573713755,-0.510814,-0.660142,-0.543876
1630573713764,-0.511546,-0.660142,-0.5435099999999999
1630573713774,-0.510875,-0.661728,-0.544059
1630573713783,-0.51118,-0.660874,-0.5441199999999999
1630573713793,-0.510753,-0.6606299999999999,-0.543571
1630573713803,-0.511302,-0.660874,-0.543693
1630573713812,-0.510021,-0.6612399999999999,-0.5428999999999999
1630573713822,-0.510509,-0.660752,-0.543022
1630573713831,-0.510509,-0.660081,-0.543266
1630573713841,-0.510814,-0.660447,-0.541863
1630573713851,-0.510814,-0.661606,-0.542168
1630573713860,-0.509777,-0.660752,-0.5413749999999999
1630573713870,-0.510509,-0.660691,-0.542412
1630573713879,-0.510448,-0.660142,-0.5422899999999999
1630573713889,-0.51118,-0.660752,-0.541558
1630573713899,-0.511363,-0.660874,-0.541802
1630573713908,-0.5124,-0.660508,-0.541924
1630573713918,-0.511485,-0.6612399999999999,-0.542351
1630573713927,-0.51179,-0.660264,-0.5410699999999999
1630573713937,-0.512034,-0.660569,-0.540948
1630573713947,-0.512583,-0.660691,-0.540521
1630573713956,-0.512156,-0.6621549999999999,-0.5401549999999999
1630573713966,-0.512522,-0.662887,-0.540582
1630573713975,-0.5127659999999999,-0.6630699999999999,-0.540521
1630573713985,-0.5127659999999999,-0.663802,-0.540277
1630573713995,-0.513437,-0.663497,-0.540826
1630573714004,-0.513315,-0.664107,-0.540521
1630573714014,-0.513132,-0.663558,-0.540399
1630573714023,-0.513864,-0.664168,-0.5398499999999999
1630573714033,-0.514657,-0.664046,-0.540338
1630573714043,-0.51362,-0.664107,-0.539728
1630573714052,-0.513254,-0.664534,-0.539789
1630573714062,-0.514535,-0.6636799999999999,-0.539423
1630573714071,-0.514657,-0.664107,-0.5401549999999999
1630573714081,-0.514474,-0.663619,-0.539728
1630573714091,-0.515328,-0.663497,-0.5401549999999999
1630573714100,-0.514413,-0.663314,-0.5404599999999999
1630573714110,-0.514352,-0.662033,-0.540521
1630573714119,-0.5142909999999999,-0.662094,-0.541131
1630573714129,-0.513132,-0.661606,-0.540094
1630573714139,-0.51301,-0.662338,-0.540033
1630573714148,-0.511851,-0.6624599999999999,-0.539606
1630573714158,-0.512217,-0.662582,-0.539179
1630573714167,-0.511546,-0.6630699999999999,-0.539423
1630573714177,-0.511851,-0.662582,-0.539972
1630573714187,-0.511668,-0.664412,-0.539362
1630573714196,-0.512339,-0.663436,-0.540399
1630573714206,-0.5124,-0.663314,-0.540033
1630573714215,-0.513803,-0.662948,-0.5422899999999999
1630573714225,-0.513864,-0.662033,-0.542046
1630573714235,-0.513132,-0.661728,-0.541436
1630573714244,-0.513742,-0.660386,-0.541497
1630573714254,-0.513437,-0.660874,-0.541497
1630573714263,-0.513315,-0.6600199999999999,-0.541497
1630573714273,-0.513925,-0.659532,-0.540582
1630573714283,-0.513559,-0.659166,-0.5422899999999999
1630573714292,-0.51423,-0.658556,-0.542046
1630573714302,-0.514047,-0.658373,-0.541253
1630573714311,-0.514657,-0.658861,-0.541802
1630573714321,-0.5152059999999999,-0.659593,-0.541558
1630573714331,-0.51484,-0.6600199999999999,-0.5435099999999999
1630573714340,-0.5142909999999999,-0.6618499999999999,-0.5432049999999999
1630573714350,-0.513803,-0.6621549999999999,-0.542534
1630573714359,-0.513559,-0.662338,-0.542656
1630573714369,-0.513925,-0.6621549999999999,-0.541497
1630573714379,-0.514047,-0.662399,-0.540094
1630573714388,-0.513132,-0.661728,-0.539606
1630573714398,-0.5136809999999999,-0.661728,-0.539301
1630573714407,-0.51423,-0.6609349999999999,-0.540033
1630573714417,-0.513742,-0.660447,-0.539728
1630573714427,-0.513925,-0.659959,-0.540033
1630573714436,-0.513559,-0.6594099999999999,-0.540338
1630573714446,-0.5130709999999999,-0.659837,-0.541314
1630573714455,-0.513437,-0.658983,-0.541558
1630573714465,-0.513254,-0.659532,-0.5425949999999999
1630573714475,-0.513254,-0.6606299999999999,-0.542046
1630573714484,-0.514352,-0.660752,-0.542046
1630573714494,-0.513498,-0.660569,-0.542534
1630573714503,-0.513437,-0.6597149999999999,-0.542107
1630573714513,-0.513559,-0.659166,-0.541619
1630573714523,-0.513132,-0.659776,-0.541863
1630573714532,-0.513132,-0.658983,-0.540521
1630573714542,-0.514108,-0.658861,-0.540948
1630573714551,-0.513315,-0.6584949999999999,-0.542046
1630573714561,-0.513498,-0.658129,-0.5438149999999999
1630573714571,-0.514352,-0.658556,-0.544608
1630573714580,-0.516243,-0.658312,-0.545706
1630573714590,-0.515023,-0.658312,-0.5459499999999999
1630573714599,-0.51545,-0.6581899999999999,-0.5447299999999999
1630573714609,-0.5149009999999999,-0.658678,-0.544669
1630573714619,-0.5152059999999999,-0.6578849999999999,-0.544364
1630573714628,-0.514779,-0.657336,-0.543266
1630573714638,-0.515328,-0.657702,-0.5419849999999999
1630573714647,-0.515938,-0.6581899999999999,-0.541436
1630573714657,-0.515572,-0.659898,-0.543388
1630573714667,-0.515572,-0.661301,-0.542839
1630573714676,-0.516182,-0.661057,-0.543876
1630573714686,-0.515938,-0.6618499999999999,-0.542839
1630573714695,-0.516548,-0.661484,-0.5425949999999999
1630573714705,-0.515755,-0.660691,-0.542046
1630573714715,-0.514962,-0.659959,-0.541192
1630573714724,-0.5145959999999999,-0.659471,-0.540948
1630573714734,-0.515145,-0.659837,-0.5413749999999999
1630573714743,-0.513925,-0.658556,-0.541863
1630573714753,-0.5145959999999999,-0.658861,-0.541619
1630573714763,-0.513803,-0.658251,-0.5410699999999999
1630573714772,-0.514657,-0.659471,-0.541802
1630573714782,-0.513864,-0.659227,-0.5419849999999999
1630573714791,-0.5139859999999999,-0.659654,-0.540887
1630573714801,-0.513498,-0.660447,-0.5416799999999999
1630573714811,-0.514169,-0.660752,-0.541436
1630573714820,-0.513925,-0.661057,-0.541192
1630573714830,-0.51423,-0.661667,-0.541253
1630573714839,-0.513864,-0.6612399999999999,-0.540887
1630573714849,-0.5136809999999999,-0.661362,-0.540948
1630573714859,-0.5142909999999999,-0.660874,-0.5404599999999999
1630573714868,-0.5139859999999999,-0.660264,-0.540338
1630573714878,-0.514535,-0.660508,-0.539667
1630573714887,-0.514352,-0.6597149999999999,-0.5407649999999999
1630573714897,-0.513437,-0.6603249999999999,-0.542168
1630573714907,-0.51423,-0.661118,-0.541253
1630573714916,-0.5142909999999999,-0.660386,-0.540582
1630573714926,-0.51423,-0.660874,-0.5401549999999999
1630573714935,-0.514047,-0.661179,-0.539972
1630573714945,-0.513315,-0.661728,-0.5398499999999999
1630573714955,-0.5133759999999999,-0.663192,-0.539789
1630573714964,-0.51301,-0.664412,-0.538996
1630573714974,-0.513864,-0.663192,-0.537837
1630573714983,-0.514108,-0.663924,-0.540094
1630573714993,-0.513437,-0.6648999999999999,-0.539972
1630573715003,-0.513742,-0.664839,-0.538691
1630573715012,-0.513925,-0.6642899999999999,-0.538386
1630573715022,-0.514718,-0.664046,-0.539362
1630573715031,-0.513803,-0.664351,-0.5389349999999999
1630573715041,-0.513437,-0.6642899999999999,-0.538874
1630573715051,-0.51362,-0.664351,-0.539972
1630573715060,-0.512888,-0.663863,-0.538508
1630573715070,-0.513193,-0.662887,-0.539057
1630573715079,-0.513742,-0.663924,-0.5392399999999999
1630573715089,-0.51362,-0.663741,-0.539362
1630573715099,-0.5130709999999999,-0.663436,-0.539423
1630573715108,-0.512278,-0.6633749999999999,-0.5392399999999999
1630573715118,-0.5124,-0.662887,-0.539423
1630573715127,-0.512888,-0.663131,-0.5392399999999999
1630573715137,-0.512888,-0.663558,-0.540094
1630573715147,-0.512583,-0.663131,-0.540338
1630573715156,-0.5124609999999999,-0.6630699999999999,-0.541253
1630573715166,-0.512705,-0.662399,-0.541314
1630573715175,-0.512888,-0.661972,-0.541253
1630573715185,-0.512705,-0.6627649999999999,-0.540582
1630573715195,-0.511546,-0.662094,-0.540582
1630573715204,-0.512522,-0.661972,-0.540277
1630573715214,-0.512705,-0.662521,-0.540887
1630573715223,-0.512827,-0.661789,-0.540948
1630573715233,-0.513132,-0.661057,-0.541924
1630573715243,-0.5142909999999999,-0.661728,-0.541802
1630573715252,-0.514474,-0.661484,-0.542717
1630573715262,-0.5149009999999999,-0.661057,-0.541924
1630573715271,-0.51484,-0.660081,-0.541192
1630573715281,-0.51301,-0.6594099999999999,-0.542107
1630573715291,-0.513132,-0.660447,-0.542168
1630573715300,-0.513742,-0.6606299999999999,-0.542351
1630573715310,-0.514474,-0.659654,-0.541253
1630573715319,-0.514413,-0.658983,-0.542412
1630573715329,-0.5142909999999999,-0.658861,-0.542778
1630573715339,-0.513803,-0.658922,-0.542473
1630573715348,-0.5142909999999999,-0.6581899999999999,-0.543266
1630573715358,-0.514474,-0.659044,-0.543388
1630573715367,-0.513437,-0.660386,-0.544059
1630573715377,-0.512644,-0.661362,-0.544486
1630573715387,-0.5130709999999999,-0.661911,-0.544486
1630573715396,-0.511973,-0.6633749999999999,-0.543083
1630573715406,-0.512278,-0.662826,-0.5425949999999999
1630573715415,-0.511119,-0.663009,-0.5413749999999999
1630573715425,-0.511302,-0.6630699999999999,-0.540887
1630573715435,-0.510387,-0.663558,-0.5407649999999999
1630573715444,-0.510021,-0.663192,-0.541497
1630573715454,-0.510387,-0.662338,-0.541314
1630573715463,-0.509228,-0.6612399999999999,-0.541436
1630573715473,-0.509716,-0.660447,-0.541009
1630573715483,-0.509106,-0.6594099999999999,-0.542229
1630573715492,-0.508618,-0.659776,-0.541863
1630573715502,-0.509594,-0.658922,-0.5422899999999999
1630573715511,-0.510753,-0.659166,-0.541863
1630573715521,-0.511363,-0.659044,-0.5441199999999999
1630573715531,-0.511729,-0.658739,-0.544181
1630573715540,-0.511851,-0.6581899999999999,-0.544181
1630573715550,-0.511729,-0.658983,-0.544242
1630573715559,-0.512827,-0.659471,-0.543937
1630573715569,-0.5124,-0.6584949999999999,-0.543449
1630573715579,-0.512034,-0.659044,-0.543022
1630573715588,-0.512217,-0.658739,-0.543693
1630573715598,-0.512705,-0.659532,-0.544913
1630573715607,-0.513864,-0.659654,-0.544059
1630573715617,-0.514535,-0.6603249999999999,-0.543693
1630573715627,-0.514535,-0.660081,-0.543144
1630573715636,-0.513864,-0.660752,-0.541924
1630573715646,-0.514108,-0.661728,-0.542107
1630573715655,-0.5139859999999999,-0.662582,-0.543022
1630573715665,-0.514352,-0.662216,-0.542351
1630573715675,-0.514169,-0.661972,-0.542107
1630573715684,-0.513864,-0.662704,-0.542717
1630573715694,-0.513803,-0.661911,-0.5422899999999999
1630573715703,-0.512949,-0.662948,-0.542046
1630573715713,-0.514352,-0.663436,-0.5422899999999999
1630573715723,-0.515145,-0.6636799999999999,-0.541863
1630573715732,-0.514535,-0.664168,-0.542412
1630573715742,-0.513925,-0.663314,-0.5413749999999999
1630573715751,-0.514047,-0.663192,-0.5416799999999999
1630573715761,-0.514047,-0.661972,-0.541436
1630573715771,-0.513864,-0.6603249999999999,-0.541497
1630573715780,-0.513498,-0.660386,-0.541619
1630573715790,-0.513132,-0.661118,-0.543083
1630573715799,-0.512522,-0.660752,-0.5425949999999999
1630573715809,-0.512888,-0.6603249999999999,-0.542717
1630573715819,-0.511912,-0.660264,-0.5422899999999999
1630573715828,-0.511607,-0.659776,-0.542107
1630573715838,-0.512278,-0.659044,-0.5422899999999999
1630573715847,-0.512522,-0.658312,-0.542412
1630573715857,-0.511912,-0.659044,-0.5425949999999999
1630573715867,-0.511607,-0.659166,-0.542107
1630573715876,-0.513193,-0.658922,-0.543083
1630573715886,-0.5124,-0.6594099999999999,-0.543327
1630573715895,-0.511912,-0.659776,-0.543937
1630573715905,-0.511607,-0.659288,-0.544181
1630573715915,-0.511485,-0.658922,-0.543693
1630573715924,-0.512034,-0.658617,-0.542961
1630573715934,-0.5124609999999999,-0.6584949999999999,-0.5422899999999999
1630573715943,-0.51179,-0.658922,-0.543754
1630573715953,-0.511729,-0.659288,-0.543022
1630573715963,-0.511485,-0.659532,-0.542961
1630573715972,-0.5124609999999999,-0.659654,-0.542961
1630573715982,-0.512949,-0.6606299999999999,-0.543022
1630573715991,-0.511668,-0.660386,-0.5425949999999999
1630573716001,-0.512034,-0.661301,-0.542229
1630573716011,-0.512034,-0.661484,-0.541558
1630573716020,-0.512827,-0.662643,-0.541924
1630573716030,-0.513742,-0.663253,-0.540887
1630573716039,-0.512705,-0.663314,-0.541741
1630573716049,-0.5124,-0.664046,-0.541253
1630573716059,-0.512339,-0.664107,-0.541253
1630573716068,-0.513559,-0.6648999999999999,-0.541253
1630573716078,-0.5124,-0.664656,-0.541802
1630573716087,-0.512705,-0.663619,-0.5419849999999999
1630573716097,-0.512217,-0.663619,-0.5416799999999999
1630573716107,-0.512278,-0.662826,-0.541253
1630573716116,-0.512034,-0.662887,-0.541619
1630573716126,-0.511302,-0.663314,-0.5422899999999999
1630573716135,-0.511058,-0.662521,-0.541314
1630573716145,-0.51179,-0.662338,-0.540948
1630573716155,-0.511363,-0.662033,-0.541924
1630573716164,-0.510082,-0.661179,-0.541192
1630573716174,-0.51057,-0.6615449999999999,-0.541314
1630573716183,-0.510997,-0.660874,-0.542168
1630573716193,-0.510814,-0.661362,-0.541741
1630573716203,-0.510875,-0.6615449999999999,-0.541924
1630573716212,-0.511363,-0.661728,-0.5419849999999999
1630573716222,-0.511729,-0.661667,-0.541558
1630573716231,-0.511119,-0.661179,-0.541131
1630573716241,-0.512156,-0.660691,-0.540887
1630573716251,-0.511119,-0.662582,-0.541802
1630573716260,-0.512095,-0.6612399999999999,-0.541558
1630573716270,-0.512827,-0.660752,-0.542168
1630573716279,-0.512339,-0.6597149999999999,-0.543144
1630573716289,-0.512522,-0.658434,-0.542107
1630573716299,-0.513132,-0.658312,-0.542046
1630573716308,-0.515084,-0.657641,-0.541436
1630573716318,-0.515084,-0.658129,-0.5416799999999999
1630573716327,-0.515694,-0.659776,-0.542229
1630573716337,-0.5149009999999999,-0.660874,-0.543388
1630573716347,-0.514657,-0.661789,-0.541924
1630573716356,-0.5149009999999999,-0.662216,-0.5413749999999999
1630573716366,-0.514962,-0.661667,-0.542351
1630573716375,-0.515938,-0.6618499999999999,-0.542046
1630573716385,-0.515938,-0.662277,-0.541741
1630573716395,-0.515328,-0.6615449999999999,-0.540826
1630573716404,-0.514962,-0.662277,-0.539911
1630573716414,-0.514657,-0.663741,-0.540216
1630573716423,-0.515633,-0.665022,-0.540582
1630573716433,-0.515877,-0.666242,-0.539728
1630573716443,-0.51606,-0.666669,-0.5392399999999999
1630573716452,-0.515999,-0.667828,-0.538813
1630573716462,-0.515938,-0.667706,-0.538264
1630573716471,-0.516365,-0.665754,-0.538447
1630573716481,-0.5167309999999999,-0.665388,-0.539362
1630573716491,-0.514474,-0.665632,-0.538813
1630573716500,-0.515145,-0.664046,-0.5383249999999999
1630573716510,-0.514718,-0.663863,-0.539057
1630573716519,-0.514474,-0.662826,-0.540033
1630573716529,-0.514657,-0.663436,-0.539911
1630573716539,-0.513864,-0.6627649999999999,-0.5398499999999999
1630573716548,-0.514657,-0.6609349999999999,-0.5398499999999999
1630573716558,-0.51301,-0.661484,-0.540399
1630573716567,-0.51301,-0.6606299999999999,-0.541131
1630573716577,-0.512583,-0.658922,-0.541436
1630573716587,-0.5145959999999999,-0.657092,-0.541558
1630573716596,-0.514962,-0.6575799999999999,-0.543266
1630573716606,-0.513559,-0.657519,-0.542229
1630573716615,-0.512949,-0.6563599999999999,-0.543327
1630573716625,-0.513498,-0.656421,-0.544547
1630573716635,-0.513254,-0.655567,-0.5456449999999999
1630573716644,-0.513132,-0.655506,-0.545218
1630573716654,-0.514657,-0.654591,-0.545584
1630573716663,-0.513864,-0.654408,-0.545279
1630573716673,-0.513925,-0.654042,-0.544608
1630573716683,-0.5139859999999999,-0.653737,-0.545462
1630573716692,-0.515023,-0.654225,-0.544242
1630573716702,-0.51423,-0.654835,-0.546804
1630573716711,-0.514352,-0.654713,-0.5474749999999999
1630573716721,-0.514535,-0.654713,-0.547353
1630573716731,-0.514779,-0.655567,-0.546316
1630573716740,-0.515694,-0.656909,-0.546682
1630573716750,-0.516182,-0.657946,-0.5465599999999999
1630573716759,-0.515877,-0.659227,-0.5462549999999999
1630573716769,-0.515572,-0.658922,-0.546621
1630573716779,-0.515938,-0.658007,-0.5462549999999999
1630573716788,-0.515877,-0.658373,-0.546377
1630573716798,-0.51606,-0.658617,-0.5462549999999999
1630573716807,-0.5161209999999999,-0.658678,-0.548024
1630573716817,-0.515572,-0.658312,-0.548207
1630573716827,-0.515572,-0.658434,-0.548695
1630573716836,-0.514535,-0.657031,-0.549183
1630573716846,-0.512827,-0.655994,-0.548512
1630573716855,-0.512278,-0.654835,-0.5480849999999999
1630573716865,-0.513437,-0.654103,-0.548939
1630573716875,-0.511363,-0.653859,-0.549427
1630573716884,-0.51179,-0.652883,-0.549244
1630573716894,-0.510936,-0.652822,-0.54961
1630573716903,-0.51057,-0.652334,-0.550464
1630573716913,-0.50996,-0.651846,-0.550769
1630573716923,-0.509838,-0.651236,-0.551806
1630573716932,-0.510448,-0.650931,-0.551745
1630573716942,-0.509594,-0.650321,-0.551623
1630573716951,-0.509594,-0.651358,-0.551684
1630573716961,-0.508862,-0.650809,-0.551806
1630573716971,-0.509228,-0.651846,-0.551562
1630573716980,-0.509411,-0.651724,-0.551562
1630573716990,-0.510692,-0.65209,-0.552172
1630573716999,-0.510082,-0.653615,-0.552355
1630573717009,-0.511302,-0.653859,-0.552538
1630573717019,-0.5124,-0.654225,-0.552599
1630573717028,-0.512156,-0.655018,-0.552965
1630573717038,-0.511546,-0.655201,-0.553636
1630573717047,-0.510936,-0.655506,-0.550952
1630573717057,-0.511607,-0.655689,-0.551013
1630573717067,-0.510936,-0.655506,-0.550098
1630573717076,-0.510936,-0.655994,-0.550037
1630573717086,-0.511363,-0.655567,-0.549732
1630573717095,-0.511546,-0.655994,-0.549793
1630573717105,-0.511546,-0.656909,-0.550281
1630573717115,-0.511241,-0.656726,-0.550586
1630573717124,-0.510631,-0.656238,-0.551135
1630573717134,-0.511485,-0.656482,-0.551501
1630573717143,-0.510631,-0.656238,-0.55144
1630573717153,-0.511241,-0.655018,-0.551135
1630573717163,-0.511363,-0.654713,-0.552294
1630573717172,-0.51057,-0.654042,-0.552599
1630573717182,-0.510021,-0.653188,-0.551989
1630573717191,-0.510448,-0.652578,-0.553514
1630573717201,-0.510692,-0.653066,-0.553392
1630573717211,-0.509899,-0.653005,-0.552782
1630573717220,-0.509045,-0.653066,-0.552294
1630573717230,-0.508008,-0.653066,-0.552721
1630573717239,-0.508313,-0.654652,-0.552416
1630573717249,-0.508374,-0.654591,-0.552233
1630573717259,-0.508862,-0.65392,-0.551928
1630573717268,-0.508435,-0.652578,-0.55327
1630573717278,-0.508679,-0.6527,-0.553941
1630573717287,-0.509594,-0.652334,-0.553514
1630573717297,-0.510143,-0.651968,-0.553331
1630573717307,-0.510631,-0.651419,-0.552904
1630573717316,-0.510082,-0.650382,-0.553331
1630573717326,-0.509716,-0.6527,-0.553575
1630573717335,-0.510204,-0.653005,-0.553087
1630573717345,-0.510448,-0.653859,-0.552538
1630573717355,-0.510753,-0.655201,-0.551806
1630573717364,-0.511363,-0.655872,-0.551501
1630573717374,-0.51057,-0.656421,-0.551196
1630573717383,-0.511485,-0.656543,-0.551745
1630573717393,-0.510692,-0.6578849999999999,-0.551074
1630573717403,-0.51057,-0.659166,-0.551135
1630573717412,-0.510204,-0.6594099999999999,-0.551684
1630573717422,-0.510448,-0.6594099999999999,-0.551684
1630573717431,-0.51057,-0.659471,-0.551013
1630573717441,-0.50996,-0.659776,-0.550098
1630573717451,-0.508435,-0.658068,-0.550403
1630573717460,-0.508618,-0.657336,-0.549854
1630573717470,-0.507764,-0.656482,-0.549915
1630573717479,-0.507154,-0.655994,-0.552172
1630573717489,-0.50752,-0.654286,-0.55144
1630573717499,-0.507154,-0.654408,-0.551806
1630573717508,-0.506056,-0.653615,-0.552294
1630573717518,-0.505751,-0.652944,-0.553209
1630573717527,-0.506788,-0.652334,-0.553087
1630573717537,-0.506056,-0.652517,-0.552721
1630573717547,-0.506361,-0.652395,-0.553026
1630573717556,-0.506544,-0.65209,-0.55327
1630573717566,-0.506666,-0.653188,-0.553758
1630573717575,-0.508191,-0.651785,-0.55388
1630573717585,-0.507703,-0.65209,-0.554429
1630573717595,-0.508374,-0.652578,-0.554917
1630573717604,-0.509106,-0.651846,-0.554734
1630573717614,-0.507154,-0.652517,-0.554246
1630573717623,-0.507825,-0.652395,-0.554917
1630573717633,-0.507642,-0.653432,-0.555344
1630573717643,-0.508374,-0.653432,-0.555649
1630573717652,-0.508496,-0.654591,-0.555588
1630573717662,-0.50935,-0.65453,-0.553087
1630573717671,-0.510448,-0.654896,-0.552904
1630573717681,-0.509838,-0.654896,-0.553148
1630573717691,-0.510082,-0.655079,-0.553758
1630573717700,-0.51057,-0.656299,-0.55388
1630573717710,-0.511363,-0.655628,-0.554429
1630573717719,-0.510692,-0.656238,-0.554856
1630573717729,-0.510875,-0.656787,-0.554734
1630573717739,-0.511302,-0.657336,-0.555649
1630573717748,-0.510509,-0.656787,-0.554246
1630573717758,-0.511302,-0.655933,-0.554124
1630573717767,-0.511241,-0.6554449999999999,-0.554246
1630573717777,-0.511546,-0.655262,-0.554002
1630573717787,-0.510265,-0.654347,-0.553697
1630573717796,-0.50935,-0.65331,-0.55327
1630573717806,-0.509716,-0.652395,-0.554185
1630573717815,-0.508862,-0.65148,-0.55388
1630573717825,-0.508679,-0.652029,-0.555832
1630573717835,-0.508862,-0.651297,-0.5551
1630573717844,-0.508984,-0.651236,-0.554368
1630573717854,-0.508008,-0.650626,-0.554551
1630573717863,-0.507886,-0.650382,-0.555039
1630573717873,-0.50813,-0.650016,-0.554002
1630573717883,-0.507337,-0.651053,-0.553575
1630573717892,-0.507276,-0.65087,-0.553392
1630573717902,-0.50752,-0.650992,-0.554551
1630573717911,-0.508435,-0.651053,-0.553148
1630573717921,-0.508618,-0.652029,-0.553148
1630573717931,-0.50874,-0.652578,-0.553514
1630573717940,-0.508801,-0.652639,-0.55266
1630573717950,-0.508496,-0.65209,-0.552172
1630573717959,-0.508679,-0.652944,-0.552172
1630573717969,-0.510204,-0.653371,-0.551684
1630573717979,-0.509289,-0.65331,-0.551257
1630573717988,-0.509411,-0.653981,-0.551135
1630573717998,-0.510692,-0.654835,-0.550891
1630573718007,-0.510509,-0.655506,-0.550281
1630573718017,-0.510509,-0.6560549999999999,-0.549854
1630573718027,-0.511058,-0.6575799999999999,-0.549732
1630573718036,-0.511241,-0.6581899999999999,-0.549183
1630573718046,-0.512583,-0.659166,-0.54961
1630573718055,-0.51179,-0.659593,-0.548756
1630573718065,-0.512034,-0.660386,-0.547902
1630573718075,-0.51118,-0.660691,-0.548207
1630573718084,-0.512339,-0.6609349999999999,-0.5480849999999999
1630573718094,-0.511363,-0.660874,-0.547292
1630573718103,-0.510753,-0.660508,-0.547658
1630573718113,-0.511729,-0.661057,-0.546377
1630573718123,-0.510692,-0.660813,-0.5474749999999999
1630573718132,-0.510753,-0.660203,-0.5465599999999999
1630573718142,-0.510997,-0.659532,-0.547902
1630573718151,-0.510265,-0.660142,-0.546926
1630573718161,-0.510448,-0.659837,-0.546743
1630573718171,-0.510448,-0.660264,-0.545706
1630573718180,-0.510448,-0.6594099999999999,-0.546072
1630573718190,-0.51057,-0.659288,-0.546438
1630573718199,-0.50996,-0.659654,-0.547536
1630573718209,-0.509472,-0.660203,-0.546743
1630573718219,-0.509411,-0.659593,-0.546011
1630573718228,-0.509533,-0.660264,-0.544852
1630573718238,-0.509777,-0.661301,-0.544608
1630573718247,-0.510204,-0.6600199999999999,-0.544791
1630573718257,-0.509045,-0.659654,-0.545218
1630573718267,-0.50935,-0.659959,-0.5456449999999999
1630573718276,-0.510936,-0.658556,-0.546438
1630573718286,-0.511485,-0.6587999999999999,-0.547353
1630573718295,-0.511302,-0.6584949999999999,-0.546743
1630573718305,-0.51179,-0.657153,-0.546316
1630573718315,-0.510509,-0.6569699999999999,-0.545706
1630573718324,-0.510814,-0.657519,-0.546011
1630573718334,-0.510814,-0.6575799999999999,-0.545401
1630573718343,-0.511363,-0.658983,-0.544974
1630573718353,-0.510936,-0.658678,-0.544913
1630573718363,-0.511424,-0.659166,-0.544913
1630573718372,-0.512217,-0.659654,-0.544364
1630573718382,-0.510936,-0.660752,-0.544364
1630573718391,-0.512339,-0.661118,-0.5462549999999999
1630573718401,-0.51179,-0.6630699999999999,-0.546621
1630573718411,-0.511424,-0.664168,-0.546194
1630573718420,-0.51118,-0.6652049999999999,-0.545767
1630573718430,-0.511241,-0.666303,-0.544913
1630573718439,-0.51057,-0.665876,-0.544913
1630573718449,-0.510326,-0.665571,-0.543876
1630573718459,-0.508618,-0.665693,-0.5425949999999999
1630573718468,-0.509655,-0.6645949999999999,-0.542656
1630573718478,-0.509838,-0.664046,-0.541619
1630573718487,-0.50874,-0.663619,-0.5432049999999999
1630573718497,-0.508679,-0.662704,-0.543022
1630573718507,-0.508435,-0.662338,-0.544181
1630573718516,-0.508252,-0.6615449999999999,-0.544303
1630573718526,-0.508618,-0.661118,-0.5438149999999999
1630573718535,-0.508496,-0.660447,-0.5444249999999999
1630573718545,-0.508618,-0.6600199999999999,-0.544364
1630573718555,-0.508618,-0.658861,-0.545462
1630573718564,-0.509594,-0.658861,-0.545462
1630573718574,-0.509411,-0.657824,-0.545523
1630573718583,-0.510936,-0.657641,-0.546072
1630573718593,-0.510814,-0.656848,-0.546804
1630573718603,-0.510631,-0.656299,-0.547231
1630573718612,-0.510265,-0.655567,-0.5471699999999999
1630573718622,-0.509838,-0.6560549999999999,-0.547292
1630573718631,-0.509777,-0.656543,-0.548024
1630573718641,-0.508984,-0.6563599999999999,-0.548939
1630573718651,-0.510082,-0.6563599999999999,-0.547963
1630573718660,-0.510204,-0.656482,-0.546804
1630573718670,-0.511302,-0.655811,-0.545462
1630573718679,-0.510631,-0.657458,-0.546438
1630573718689,-0.511119,-0.657214,-0.5465599999999999
1630573718699,-0.511668,-0.657824,-0.546377
1630573718708,-0.5124,-0.658678,-0.546438
1630573718718,-0.5124609999999999,-0.659532,-0.547048
1630573718727,-0.512095,-0.660386,-0.547658
1630573718737,-0.511973,-0.660508,-0.547048
1630573718747,-0.512339,-0.660752,-0.547231
1630573718756,-0.5130709999999999,-0.660447,-0.546804
1630573718766,-0.513437,-0.6609349999999999,-0.5474749999999999
1630573718775,-0.5145959999999999,-0.660447,-0.547109
1630573718785,-0.513803,-0.6600199999999999,-0.547109
1630573718795,-0.5139859999999999,-0.660142,-0.5471699999999999
1630573718804,-0.512217,-0.660508,-0.547414
1630573718814,-0.511119,-0.660691,-0.5462549999999999
1630573718823,-0.51057,-0.660203,-0.543876
1630573718833,-0.509716,-0.661423,-0.544059
1630573718843,-0.509655,-0.661179,-0.5428999999999999
1630573718852,-0.509533,-0.661118,-0.542717
1630573718862,-0.510448,-0.661667,-0.5428999999999999
1630573718871,-0.510692,-0.661362,-0.544791
1630573718881,-0.511485,-0.660386,-0.545401
1630573718891,-0.512644,-0.6591049999999999,-0.546621
1630573718900,-0.512278,-0.658312,-0.5465599999999999
1630573718910,-0.512339,-0.659044,-0.5471699999999999
1630573718919,-0.512522,-0.658434,-0.547109
1630573718929,-0.512217,-0.6591049999999999,-0.545767
1630573718939,-0.511241,-0.6587999999999999,-0.545279
1630573718948,-0.509899,-0.6591049999999999,-0.5441199999999999
1630573718958,-0.51057,-0.658678,-0.5432049999999999
1630573718967,-0.510692,-0.658251,-0.542656
1630573718977,-0.510387,-0.6581899999999999,-0.542961
1630573718987,-0.511241,-0.658678,-0.542534
1630573718996,-0.510509,-0.659166,-0.542839
1630573719006,-0.510692,-0.659166,-0.5428999999999999
1630573719015,-0.512156,-0.659837,-0.5432049999999999
1630573719025,-0.511851,-0.661057,-0.542961
1630573719035,-0.511241,-0.661728,-0.542473
1630573719044,-0.511912,-0.661972,-0.5416799999999999
1630573719054,-0.511607,-0.661972,-0.541253
1630573719063,-0.511424,-0.662338,-0.541619
1630573719073,-0.511729,-0.662399,-0.541619
1630573719083,-0.512339,-0.662338,-0.541741
1630573719092,-0.512705,-0.663741,-0.541802
1630573719102,-0.5133759999999999,-0.663802,-0.5419849999999999
1630573719111,-0.512522,-0.664046,-0.5416799999999999
1630573719121,-0.512278,-0.665388,-0.540643
1630573719131,-0.511851,-0.665083,-0.539484
1630573719140,-0.511851,-0.664351,-0.539484
1630573719150,-0.5124609999999999,-0.665388,-0.539911
1630573719159,-0.512156,-0.665693,-0.539728
1630573719169,-0.512339,-0.665754,-0.539362
1630573719179,-0.511729,-0.665937,-0.5386299999999999
1630573719188,-0.512888,-0.665632,-0.5392399999999999
1630573719198,-0.511973,-0.665937,-0.539728
1630573719207,-0.51179,-0.665266,-0.539484
1630573719217,-0.510692,-0.665266,-0.540582
1630573719227,-0.511241,-0.664473,-0.540338
1630573719236,-0.511302,-0.664778,-0.539606
1630573719246,-0.510509,-0.663192,-0.538508
1630573719255,-0.510753,-0.663802,-0.538569
1630573719265,-0.511241,-0.664107,-0.539484
1630573719275,-0.51118,-0.6645949999999999,-0.5380199999999999
1630573719284,-0.510692,-0.664168,-0.538081
1630573719294,-0.511912,-0.664717,-0.540033
1630573719303,-0.513254,-0.663924,-0.540704
1630573719313,-0.513315,-0.665266,-0.5407649999999999
1630573719323,-0.514169,-0.663558,-0.540338
1630573719332,-0.514352,-0.663009,-0.539972
1630573719342,-0.513498,-0.662521,-0.5416799999999999
1630573719351,-0.5127659999999999,-0.662399,-0.541436
1630573719361,-0.513498,-0.662033,-0.5410699999999999
1630573719371,-0.5127659999999999,-0.662094,-0.5410699999999999
1630573719380,-0.5133759999999999,-0.660569,-0.541436
1630573719390,-0.512827,-0.6606299999999999,-0.541253
1630573719399,-0.513254,-0.661362,-0.5422899999999999
1630573719409,-0.514413,-0.660386,-0.5425949999999999
1630573719419,-0.5130709999999999,-0.661301,-0.542473
1630573719428,-0.5127659999999999,-0.662521,-0.543266
1630573719438,-0.513315,-0.663253,-0.5425949999999999
1630573719447,-0.513254,-0.663924,-0.5422899999999999
1630573719457,-0.512583,-0.6648999999999999,-0.541131
1630573719467,-0.513498,-0.664961,-0.5413749999999999
1630573719476,-0.512339,-0.664656,-0.541192
1630573719486,-0.5124,-0.664534,-0.5401549999999999
1630573719495,-0.5127659999999999,-0.663436,-0.5401549999999999
1630573719505,-0.5130709999999999,-0.662704,-0.5407649999999999
1630573719515,-0.512522,-0.662033,-0.542046
1630573719524,-0.5127659999999999,-0.6603249999999999,-0.542412
1630573719534,-0.512827,-0.659532,-0.542778
1630573719543,-0.51301,-0.658068,-0.543632
1630573719553,-0.513254,-0.6575799999999999,-0.544364
1630573719563,-0.512827,-0.656726,-0.543754
1630573719572,-0.511485,-0.6569699999999999,-0.544364
1630573719582,-0.5127659999999999,-0.657336,-0.545157
1630573719591,-0.511729,-0.657763,-0.5468649999999999
1630573719601,-0.511424,-0.657824,-0.546682
1630573719611,-0.511424,-0.658434,-0.546072
1630573719620,-0.511241,-0.6575799999999999,-0.546987
1630573719630,-0.51118,-0.657214,-0.544852
1630573719639,-0.510082,-0.657031,-0.546987
1630573719649,-0.510387,-0.657031,-0.547414
1630573719659,-0.509838,-0.656543,-0.547109
1630573719668,-0.509228,-0.655628,-0.547231
1630573719678,-0.509838,-0.656238,-0.547902
1630573719687,-0.50996,-0.657031,-0.5471699999999999
1630573719697,-0.509838,-0.6563599999999999,-0.545828
1630573719707,-0.51057,-0.657092,-0.546377
1630573719716,-0.510204,-0.6566649999999999,-0.547536
1630573719726,-0.51057,-0.658251,-0.548024
1630573719735,-0.510082,-0.6584949999999999,-0.548146
1630573719745,-0.510448,-0.659532,-0.5480849999999999
1630573719755,-0.510814,-0.659776,-0.5477799999999999
1630573719764,-0.509655,-0.661057,-0.547109
1630573719774,-0.510265,-0.661057,-0.545828
1630573719783,-0.51118,-0.661789,-0.545401
1630573719793,-0.511485,-0.662277,-0.546133
1630573719803,-0.512278,-0.661728,-0.546499
1630573719812,-0.511485,-0.661484,-0.546194
1630573719822,-0.51118,-0.660569,-0.546072
1630573719831,-0.51057,-0.661179,-0.5462549999999999
1630573719841,-0.510814,-0.661179,-0.545462
1630573719851,-0.510936,-0.660752,-0.5456449999999999
1630573719860,-0.510448,-0.660752,-0.545523
1630573719870,-0.510326,-0.6600199999999999,-0.545706
1630573719879,-0.510509,-0.659898,-0.5447299999999999
1630573719889,-0.509899,-0.6597149999999999,-0.5453399999999999
1630573719899,-0.509167,-0.6606299999999999,-0.544791
1630573719908,-0.508984,-0.6600199999999999,-0.5447299999999999
1630573719918,-0.509838,-0.660813,-0.544242
1630573719927,-0.508435,-0.660813,-0.5450349999999999
1630573719937,-0.508679,-0.661972,-0.544364
1630573719947,-0.509716,-0.661728,-0.544852
1630573719956,-0.50813,-0.661667,-0.5441199999999999
1630573719966,-0.50752,-0.661118,-0.543083
1630573719975,-0.508435,-0.661911,-0.5438149999999999
1630573719985,-0.508801,-0.661728,-0.5435099999999999
1630573719995,-0.507947,-0.661484,-0.542534
1630573720004,-0.508679,-0.6615449999999999,-0.542412
1630573720014,-0.509106,-0.6621549999999999,-0.543449
1630573720023,-0.508496,-0.662277,-0.542473
1630573720033,-0.508435,-0.661911,-0.5422899999999999
1630573720043,-0.509777,-0.662033,-0.541924
1630573720052,-0.509411,-0.663009,-0.543449
1630573720062,-0.509716,-0.663741,-0.543449
1630573720071,-0.510509,-0.6624599999999999,-0.543327
1630573720081,-0.510021,-0.663497,-0.543449
1630573720091,-0.509716,-0.662277,-0.542046
1630573720100,-0.509411,-0.662704,-0.542656
1630573720110,-0.509289,-0.663253,-0.543449
1630573720119,-0.50935,-0.663314,-0.542778
1630573720129,-0.509533,-0.6639849999999999,-0.5413749999999999
1630573720139,-0.510021,-0.6645949999999999,-0.541131
1630573720148,-0.510753,-0.664046,-0.541924
1630573720158,-0.510509,-0.665083,-0.542534
1630573720167,-0.509411,-0.665876,-0.542534
1630573720177,-0.510387,-0.665632,-0.542229
1630573720187,-0.510143,-0.665388,-0.542839
1630573720196,-0.510204,-0.664656,-0.542412
1630573720206,-0.509777,-0.664717,-0.5419849999999999
1630573720215,-0.510082,-0.664534,-0.541619
1630573720225,-0.510448,-0.664107,-0.5419849999999999
1630573720235,-0.510631,-0.664412,-0.542412
1630573720244,-0.510387,-0.664168,-0.542107
1630573720254,-0.509533,-0.663619,-0.542412
1630573720263,-0.510082,-0.663558,-0.543266
1630573720273,-0.51057,-0.663558,-0.543144
1630573720283,-0.511058,-0.662704,-0.544059
1630573720292,-0.511485,-0.662399,-0.544303
1630573720302,-0.51057,-0.6606299999999999,-0.543998
1630573720311,-0.511607,-0.6603249999999999,-0.544242
1630573720321,-0.511607,-0.660508,-0.544181
1630573720331,-0.511851,-0.6600199999999999,-0.5435099999999999
1630573720340,-0.511424,-0.660203,-0.544303
1630573720350,-0.510936,-0.660447,-0.545584
1630573720359,-0.511363,-0.660264,-0.546011
1630573720369,-0.511302,-0.659288,-0.545889
1630573720379,-0.511363,-0.658556,-0.545828
1630573720388,-0.510692,-0.657824,-0.545828
1630573720398,-0.510753,-0.657153,-0.545218
1630573720407,-0.511241,-0.6572749999999999,-0.544608
1630573720417,-0.510387,-0.6575799999999999,-0.544852
1630573720427,-0.510631,-0.658617,-0.544608
1630573720436,-0.509899,-0.658739,-0.5444249999999999
1630573720446,-0.509716,-0.6591049999999999,-0.544181
1630573720455,-0.509594,-0.659654,-0.544669
1630573720465,-0.510509,-0.659227,-0.542839
1630573720475,-0.511485,-0.659227,-0.543144
1630573720484,-0.511668,-0.6603249999999999,-0.543327
1630573720494,-0.512217,-0.659959,-0.543632
1630573720503,-0.512034,-0.660203,-0.544486
1630573720513,-0.5124,-0.6591049999999999,-0.543632
1630573720523,-0.512095,-0.658434,-0.543693
1630573720532,-0.5124,-0.658556,-0.543388
1630573720542,-0.512156,-0.6581899999999999,-0.5453399999999999
1630573720551,-0.5127659999999999,-0.658068,-0.543998
1630573720561,-0.5124,-0.657214,-0.543693
1630573720571,-0.511912,-0.657458,-0.5432049999999999
1630573720580,-0.512156,-0.657946,-0.543876
1630573720590,-0.512095,-0.656543,-0.542961
1630573720599,-0.512827,-0.656848,-0.5425949999999999
1630573720609,-0.5133759999999999,-0.657641,-0.542473
1630573720619,-0.513803,-0.658068,-0.5413749999999999
1630573720628,-0.514169,-0.658312,-0.542107
1630573720638,-0.514352,-0.659532,-0.542046
1630573720647,-0.515389,-0.659654,-0.543632
1630573720657,-0.515267,-0.659898,-0.543632
1630573720667,-0.51667,-0.6606299999999999,-0.544303
1630573720676,-0.518073,-0.661484,-0.5441199999999999
1630573720686,-0.518134,-0.6609349999999999,-0.5432049999999999
1630573720695,-0.517524,-0.660874,-0.543083
1630573720705,-0.518073,-0.659898,-0.5435099999999999
1630573720715,-0.5173409999999999,-0.661179,-0.543144
1630573720724,-0.516914,-0.660264,-0.543632
1630573720734,-0.516853,-0.661118,-0.544364
1630573720743,-0.515572,-0.660813,-0.543998
1630573720753,-0.515267,-0.660996,-0.543937
1630573720763,-0.515328,-0.660996,-0.5438149999999999
1630573720772,-0.5149009999999999,-0.6609349999999999,-0.542534
1630573720782,-0.5139859999999999,-0.661728,-0.541924
1630573720791,-0.514413,-0.661362,-0.541558
1630573720801,-0.51423,-0.6603249999999999,-0.540521
1630573720811,-0.513437,-0.660386,-0.541741
1630573720820,-0.513864,-0.660874,-0.541863
1630573720830,-0.514169,-0.659349,-0.542107
1630573720839,-0.513132,-0.659898,-0.542229
1630573720849,-0.513925,-0.660142,-0.541802
1630573720859,-0.5136809999999999,-0.659349,-0.543022
1630573720868,-0.513742,-0.659166,-0.542473
1630573720878,-0.512949,-0.658739,-0.541314
1630573720887,-0.513742,-0.658678,-0.5416799999999999
1630573720897,-0.513742,-0.658861,-0.542351
1630573720907,-0.513803,-0.658922,-0.541497
1630573720916,-0.513925,-0.658983,-0.541009
1630573720926,-0.51362,-0.658922,-0.542168
1630573720935,-0.514108,-0.659349,-0.541436
1630573720945,-0.513254,-0.659166,-0.5410699999999999
1630573720955,-0.51301,-0.660081,-0.540948
1630573720964,-0.513132,-0.659044,-0.5413749999999999
1630573720974,-0.51362,-0.659776,-0.541009
1630573720983,-0.5139859999999999,-0.6594099999999999,-0.541131
1630573720993,-0.514413,-0.659654,-0.5419849999999999
1630573721003,-0.51484,-0.6603249999999999,-0.541192
1630573721012,-0.51484,-0.661423,-0.5419849999999999
1630573721022,-0.513925,-0.660752,-0.541619
1630573721031,-0.514047,-0.661606,-0.540704
1630573721041,-0.51301,-0.662582,-0.540643
1630573721051,-0.513742,-0.662582,-0.540399
1630573721060,-0.513437,-0.6627649999999999,-0.539667
1630573721070,-0.513315,-0.662277,-0.539728
1630573721079,-0.513254,-0.663314,-0.5398499999999999
1630573721089,-0.512827,-0.664656,-0.5389349999999999
1630573721099,-0.512949,-0.6645949999999999,-0.539667
1630573721108,-0.51301,-0.665022,-0.5392399999999999
1630573721118,-0.513742,-0.664839,-0.538752
1630573721127,-0.512705,-0.665327,-0.539362
1630573721137,-0.512827,-0.665144,-0.5401549999999999
1630573721147,-0.512278,-0.666303,-0.5404599999999999
1630573721156,-0.511912,-0.665083,-0.540094
1630573721166,-0.511485,-0.665266,-0.539911
1630573721175,-0.512583,-0.664412,-0.5404599999999999
1630573721185,-0.511302,-0.664839,-0.539606
1630573721195,-0.511546,-0.664656,-0.538996
1630573721204,-0.511058,-0.6645949999999999,-0.538203
1630573721214,-0.511607,-0.6655099999999999,-0.5389349999999999
1630573721223,-0.511668,-0.665388,-0.540033
1630573721233,-0.511729,-0.664656,-0.539972
1630573721243,-0.511668,-0.663497,-0.540887
1630573721252,-0.511302,-0.662582,-0.540277
1630573721262,-0.512278,-0.661423,-0.541131
1630573721271,-0.513193,-0.6612399999999999,-0.541131
1630573721281,-0.5133759999999999,-0.660508,-0.540582
1630573721291,-0.512339,-0.659593,-0.540277
1630573721300,-0.513315,-0.6594099999999999,-0.542229
1630573721310,-0.513315,-0.660569,-0.5422899999999999
1630573721319,-0.5133759999999999,-0.660203,-0.542046
1630573721329,-0.513132,-0.6609349999999999,-0.542351
1630573721339,-0.513864,-0.660874,-0.542534
1630573721348,-0.513925,-0.661911,-0.541558
1630573721358,-0.512949,-0.661179,-0.541192
1630573721367,-0.51301,-0.6615449999999999,-0.5416799999999999
1630573721377,-0.513254,-0.662338,-0.5410699999999999
1630573721387,-0.512156,-0.663253,-0.541009
1630573721396,-0.511912,-0.663314,-0.540948
1630573721406,-0.512034,-0.664168,-0.540704
1630573721415,-0.512095,-0.664473,-0.540094
1630573721425,-0.51118,-0.664412,-0.539057
1630573721435,-0.510875,-0.663131,-0.538386
1630573721444,-0.511546,-0.662704,-0.538569
1630573721454,-0.511973,-0.662094,-0.539362
1630573721463,-0.512522,-0.661118,-0.540094
1630573721473,-0.5127659999999999,-0.6621549999999999,-0.540033
1630573721483,-0.512217,-0.662399,-0.541192
1630573721492,-0.512827,-0.662033,-0.541253
1630573721502,-0.512278,-0.662948,-0.540338
1630573721511,-0.512339,-0.662216,-0.541131
1630573721521,-0.511424,-0.6618499999999999,-0.540826
1630573721531,-0.511973,-0.662643,-0.540521
1630573721540,-0.511607,-0.663436,-0.540643
1630573721550,-0.512339,-0.662216,-0.541192
1630573721559,-0.5124,-0.661789,-0.5395449999999999
1630573721569,-0.512156,-0.662521,-0.540704
1630573721579,-0.513254,-0.662582,-0.540216
1630573721588,-0.513193,-0.661118,-0.540399
1630573721598,-0.5124609999999999,-0.662033,-0.5404599999999999
1630573721607,-0.512034,-0.662399,-0.542412
1630573721617,-0.5133759999999999,-0.661118,-0.542839
1630573721627,-0.513193,-0.661667,-0.5416799999999999
1630573721636,-0.513803,-0.661728,-0.5416799999999999
1630573721646,-0.5136809999999999,-0.660569,-0.540948
1630573721655,-0.514657,-0.660752,-0.540948
1630573721665,-0.5145959999999999,-0.659898,-0.541192
1630573721675,-0.5139859999999999,-0.660508,-0.5410699999999999
1630573721684,-0.514718,-0.661057,-0.541802
1630573721694,-0.514779,-0.661667,-0.541741
1630573721703,-0.514413,-0.662521,-0.542534
1630573721713,-0.51423,-0.6621549999999999,-0.541009
1630573721723,-0.51362,-0.663192,-0.540826
1630573721732,-0.513742,-0.663314,-0.540704
1630573721742,-0.513315,-0.663741,-0.541314
1630573721751,-0.5139859999999999,-0.663192,-0.540338
1630573721761,-0.513742,-0.662582,-0.539789
1630573721771,-0.5133759999999999,-0.6621549999999999,-0.539301
1630573721780,-0.513498,-0.661362,-0.540887
1630573721790,-0.513254,-0.661362,-0.541009
1630573721799,-0.512644,-0.661362,-0.5401549999999999
1630573721809,-0.512888,-0.6618499999999999,-0.540582
1630573721819,-0.512888,-0.6609349999999999,-0.540277
1630573721828,-0.5127659999999999,-0.660203,-0.541009
1630573721838,-0.5130709999999999,-0.661728,-0.540399
1630573721847,-0.512644,-0.660996,-0.540338
1630573721857,-0.512522,-0.660996,-0.540338
1630573721867,-0.512705,-0.662033,-0.540216
1630573721876,-0.513254,-0.662216,-0.540704
1630573721886,-0.5124609999999999,-0.661728,-0.540704
1630573721895,-0.512705,-0.662948,-0.540948
1630573721905,-0.512522,-0.6624599999999999,-0.539606
1630573721915,-0.512156,-0.6624599999999999,-0.538691
1630573721924,-0.512339,-0.662094,-0.538447
1630573721934,-0.5124609999999999,-0.662704,-0.539606
1630573721943,-0.512705,-0.662826,-0.539728
1630573721953,-0.512522,-0.6624599999999999,-0.538691
1630573721963,-0.512217,-0.663009,-0.538752
1630573721972,-0.512522,-0.663863,-0.538447
1630573721982,-0.512156,-0.663497,-0.539118
1630573721991,-0.512583,-0.664412,-0.538996
1630573722001,-0.512827,-0.665083,-0.537898
1630573722011,-0.512888,-0.6655099999999999,-0.5386299999999999
1630573722020,-0.511851,-0.664778,-0.538569
1630573722030,-0.512522,-0.664656,-0.538386
1630573722039,-0.5130709999999999,-0.665022,-0.538569
1630573722049,-0.512339,-0.664656,-0.5392399999999999
1630573722059,-0.512888,-0.664961,-0.538447
1630573722068,-0.5127659999999999,-0.665388,-0.538386
1630573722078,-0.512949,-0.665754,-0.537593
1630573722087,-0.512522,-0.665632,-0.538203
1630573722097,-0.512644,-0.664351,-0.539118
1630573722107,-0.512888,-0.664412,-0.538203
1630573722116,-0.512156,-0.664778,-0.5386299999999999
1630573722126,-0.512644,-0.663863,-0.538813
1630573722135,-0.512278,-0.6633749999999999,-0.538264
1630573722145,-0.512888,-0.663802,-0.538386
1630573722155,-0.513254,-0.663314,-0.539301
1630573722164,-0.5127659999999999,-0.663436,-0.539606
1630573722174,-0.5124609999999999,-0.663863,-0.539606
1630573722183,-0.513742,-0.663253,-0.539728
1630573722193,-0.512217,-0.663924,-0.538508
1630573722203,-0.512522,-0.663497,-0.537776
1630573722212,-0.512888,-0.664229,-0.537837
1630573722222,-0.51301,-0.664717,-0.5383249999999999
1630573722231,-0.512644,-0.664412,-0.537532
1630573722241,-0.512522,-0.664351,-0.538874
1630573722251,-0.513498,-0.662704,-0.5395449999999999
1630573722260,-0.5145959999999999,-0.662887,-0.540643
1630573722270,-0.515084,-0.661911,-0.540948
1630573722279,-0.514413,-0.6597149999999999,-0.5410699999999999
1630573722289,-0.514962,-0.659227,-0.540704
