timestamp,ax,ay,az
1630574211552,-0.28365,-0.565653,-0.781044
1630574211562,-0.28316199999999997,-0.561261,-0.781593
1630574211571,-0.28243,-0.559126,-0.782874
1630574211581,-0.281576,-0.55754,-0.783301
1630574211591,-0.279685,-0.556564,-0.7838499999999999
1630574211600,-0.278221,-0.55571,-0.785558
1630574211610,-0.27694,-0.557479,-0.785131
1630574211619,-0.277062,-0.557662,-0.7859849999999999
1630574211629,-0.276086,-0.556808,-0.7865949999999999
1630574211639,-0.276452,-0.557296,-0.786229
1630574211648,-0.276513,-0.556503,-0.784643
1630574211658,-0.276696,-0.555405,-0.782691
1630574211667,-0.276269,-0.555222,-0.782203
1630574211677,-0.276269,-0.555954,-0.779458
1630574211687,-0.27572,-0.557418,-0.775737
1630574211696,-0.276818,-0.560712,-0.772016
1630574211706,-0.276879,-0.562908,-0.7665259999999999
1630574211715,-0.277428,-0.562786,-0.762317
1630574211725,-0.27877,-0.561871,-0.758352
1630574211735,-0.280844,-0.5612,-0.754082
1630574211744,-0.282186,-0.55998,-0.7509709999999999
1630574211754,-0.28365,-0.560163,-0.748775
1630574211763,-0.28560199999999997,-0.561078,-0.746274
1630574211773,-0.287371,-0.5611389999999999,-0.7442
1630574211783,-0.289628,-0.560651,-0.742553
1630574211792,-0.291336,-0.558272,-0.741821
1630574211802,-0.29341,-0.553453,-0.742126
1630574211811,-0.29304399999999997,-0.547536,-0.74847
1630574211821,-0.290726,-0.5438149999999999,-0.758047
1630574211831,-0.287371,-0.5432049999999999,-0.768905
1630574211840,-0.283711,-0.542656,-0.776652
1630573698886,-0.428342,-0.674843,-0.582062
1630573698896,-0.42822,-0.675026,-0.583404
1630573698906,-0.428159,-0.673684,-0.583038
1630573698915,-0.42828099999999997,-0.674233,-0.582672
1630573698925,-0.42797599999999997,-0.673745,-0.584075
1630573698934,-0.427793,-0.673013,-0.583709
1630573698944,-0.428342,-0.673928,-0.583587
1630573698954,-0.428342,-0.674416,-0.584624
1630573698963,-0.42883,-0.674965,-0.585234
1630573698973,-0.429257,-0.674599,-0.58499
1630573698982,-0.42980599999999997,-0.674477,-0.584624
1630573698992,-0.430233,-0.676124,-0.584136
1630573699002,-0.43005,-0.675697,-0.584929
1630573699011,-0.43005,-0.67527,-0.5842579999999999
1630573699021,-0.43005,-0.675697,-0.583038
1630573699030,-0.430782,-0.676002,-0.581513
1630573699040,-0.429989,-0.676734,-0.581635
1630573699050,-0.430538,-0.676673,-0.579866
1630573699059,-0.43133099999999996,-0.675636,-0.579378
1630573699069,-0.430782,-0.675575,-0.578036
1630573699078,-0.43072099999999997,-0.67649,-0.576816
1630573699088,-0.43011099999999997,-0.676002,-0.576694
1630573699098,-0.431087,-0.676185,-0.576328
1630573699107,-0.43066,-0.677832,-0.574925
1630573699117,-0.430233,-0.6791739999999999,-0.574559
1630573699126,-0.430843,-0.6791739999999999,-0.573461
1630573699136,-0.430782,-0.678381,-0.57279
1630573699146,-0.43072099999999997,-0.676978,-0.5724239999999999
1630573699155,-0.42950099999999997,-0.674355,-0.572546
1630573699165,-0.429684,-0.675148,-0.573217
1630573699174,-0.429745,-0.675514,-0.575657
1630573699184,-0.430782,-0.675453,-0.575779
1630573699194,-0.430904,-0.676124,-0.576572
1630573699203,-0.430538,-0.6771,-0.577121
1630573699213,-0.431514,-0.676856,-0.577792
1630573699222,-0.431697,-0.675209,-0.578707
1630573699232,-0.431575,-0.675026,-0.58011
1630573699242,-0.432185,-0.674599,-0.580049
1630573699251,-0.431575,-0.673867,-0.581086
1630573699261,-0.433344,-0.673989,-0.580537
1630573699270,-0.43249,-0.674355,-0.580598
1630573699280,-0.433161,-0.674782,-0.579744
1630573699290,-0.433649,-0.675087,-0.580232
1630573699299,-0.433283,-0.674843,-0.579744
1630573699309,-0.434015,-0.67466,-0.579622
1630573699318,-0.43432,-0.674904,-0.58133
1630573699328,-0.434686,-0.674294,-0.58011
1630573699338,-0.43432,-0.674538,-0.579256
1630573699347,-0.434137,-0.67466,-0.579012
1630573699357,-0.434625,-0.673257,-0.578768
1630573699366,-0.435357,-0.672586,-0.577853
1630573699376,-0.43493,-0.673501,-0.578158
1630573699386,-0.434747,-0.673074,-0.577731
1630573699395,-0.434686,-0.673928,-0.577853
1630573699405,-0.435052,-0.675392,-0.576938
1630573699414,-0.43554,-0.677771,-0.576816
1630573699424,-0.435601,-0.677466,-0.576694
1630573699434,-0.43602799999999997,-0.67588,-0.574742
1630573699443,-0.435784,-0.673745,-0.575047
1630573699453,-0.435784,-0.673684,-0.574254
1630573699462,-0.435357,-0.672342,-0.574681
1630573699472,-0.434991,-0.673318,-0.575474
1630573699482,-0.43511299999999997,-0.673623,-0.57645
1630573699491,-0.434686,-0.674477,-0.57706
1630573699501,-0.434808,-0.674782,-0.577487
1630573699510,-0.43554,-0.675026,-0.576938
1630573699520,-0.43493,-0.674233,-0.576999
1630573699530,-0.435174,-0.674843,-0.57706
1630573699539,-0.434747,-0.673257,-0.576511
1630573699549,-0.43554,-0.672342,-0.57706
1630573699558,-0.434564,-0.672525,-0.576816
1630573699568,-0.435052,-0.673745,-0.576999
1630573699578,-0.43602799999999997,-0.673806,-0.576694
1630573699587,-0.43572299999999997,-0.673928,-0.577121
1630573699597,-0.436272,-0.675148,-0.576267
1630573699606,-0.435906,-0.67466,-0.576999
1630573699616,-0.436577,-0.675514,-0.576572
1630573699626,-0.435662,-0.673501,-0.576206
1630573699635,-0.435906,-0.673379,-0.576145
1630573699645,-0.436272,-0.672281,-0.57645
1630573699654,-0.43602799999999997,-0.67283,-0.577121
1630573699664,-0.43663799999999997,-0.673623,-0.576877
1630573699674,-0.436455,-0.674721,-0.57767
1630573699683,-0.435784,-0.674965,-0.577304
1630573699693,-0.435845,-0.674477,-0.577731
1630573699702,-0.437309,-0.673684,-0.577182
1630573699712,-0.436272,-0.674294,-0.575474
1630573699722,-0.43615,-0.675087,-0.576938
1630573699731,-0.43615,-0.675636,-0.576145
1630573699741,-0.43633299999999997,-0.675819,-0.576755
1630573699750,-0.436272,-0.674721,-0.57706
1630573699760,-0.435479,-0.67344,-0.577609
1630573699770,-0.435479,-0.672647,-0.576877
1630573699779,-0.434991,-0.674416,-0.578341
1630573699789,-0.434381,-0.67405,-0.578158
1630573699798,-0.433771,-0.674294,-0.578524
1630573699808,-0.433466,-0.674294,-0.579622
1630573699818,-0.432795,-0.673501,-0.580415
1630573699827,-0.431514,-0.673806,-0.581879
1630573699837,-0.431209,-0.674416,-0.583709
1630573699846,-0.431148,-0.673989,-0.584136
1630573699856,-0.431514,-0.674111,-0.585234
1630573699866,-0.43102599999999996,-0.674599,-0.584502
1630573699875,-0.431209,-0.674965,-0.584502
1630573699885,-0.429745,-0.674904,-0.5842579999999999
1630573699894,-0.430355,-0.67405,-0.583404
1630573699904,-0.429623,-0.674355,-0.582794
1630573699914,-0.42950099999999997,-0.673257,-0.583099
1630573699923,-0.429562,-0.673318,-0.582123
1630573699933,-0.429745,-0.672769,-0.581025
1630573699942,-0.428952,-0.672708,-0.581574
1630573699952,-0.429562,-0.674111,-0.580781
1630573699962,-0.429379,-0.674904,-0.58133
1630573699971,-0.429257,-0.674965,-0.580598
1630573699981,-0.428769,-0.674721,-0.581147
1630573699990,-0.428708,-0.673745,-0.580659
1630573700000,-0.429379,-0.674355,-0.580232
1630573700010,-0.429379,-0.674233,-0.580842
1630573700019,-0.429623,-0.675392,-0.58072
1630573700029,-0.42980599999999997,-0.675209,-0.580842
1630573700038,-0.429074,-0.674904,-0.580964
1630573700048,-0.429074,-0.675026,-0.580293
1630573700058,-0.429013,-0.674172,-0.580232
1630573700067,-0.42828099999999997,-0.674172,-0.579927
1630573700077,-0.428098,-0.674782,-0.579012
1630573700086,-0.42822,-0.673562,-0.578524
1630573700096,-0.42828099999999997,-0.674538,-0.578524
1630573700106,-0.428159,-0.676002,-0.578158
1630573700115,-0.427427,-0.675636,-0.577731
1630573700125,-0.428342,-0.674355,-0.577548
1630573700134,-0.428037,-0.676795,-0.57767
1630573700144,-0.428464,-0.679052,-0.577853
1630573700154,-0.42828099999999997,-0.678259,-0.578585
1630573700163,-0.42767099999999997,-0.676124,-0.579988
1630573700173,-0.426817,-0.674416,-0.580964
1630573700182,-0.425963,-0.674477,-0.582794
1630573700192,-0.426329,-0.676429,-0.584441
1630573700202,-0.426512,-0.676978,-0.584929
1630573700211,-0.426268,-0.676978,-0.5851729999999999
1630573700221,-0.42675599999999997,-0.676795,-0.5851729999999999
1630573700230,-0.427,-0.675331,-0.5839529999999999
1630573700240,-0.427793,-0.675087,-0.584502
1630573700250,-0.427732,-0.674843,-0.585051
1630573700259,-0.427915,-0.675392,-0.58438
1630573700269,-0.428037,-0.675758,-0.583282
1630573700278,-0.428647,-0.676063,-0.581818
1630573700288,-0.428342,-0.676246,-0.581818
1630573700298,-0.427793,-0.677222,-0.581147
1630573700307,-0.42883,-0.676429,-0.581086
1630573700317,-0.429684,-0.676307,-0.579927
1630573700326,-0.429135,-0.676551,-0.580232
1630573700336,-0.42858599999999997,-0.676368,-0.579256
1630573700346,-0.429623,-0.675392,-0.578951
1630573700355,-0.42889099999999997,-0.675453,-0.577792
1630573700365,-0.428952,-0.67588,-0.577426
1630573700374,-0.429562,-0.676673,-0.577243
1630573700384,-0.429562,-0.677161,-0.577243
1630573700394,-0.42944,-0.675697,-0.575962
1630573700403,-0.429989,-0.676307,-0.575901
1630573700413,-0.430782,-0.678503,-0.573217
1630573700422,-0.431697,-0.679601,-0.573705
1630573700432,-0.432734,-0.678808,-0.572851
1630573700442,-0.431392,-0.677832,-0.572058
1630573700451,-0.431758,-0.675941,-0.571448
1630573700461,-0.43249,-0.674355,-0.5705939999999999
1630573700470,-0.43249,-0.675758,-0.571265
1630573700480,-0.432063,-0.676429,-0.5724239999999999
1630573700490,-0.432734,-0.677771,-0.572058
1630573700499,-0.432856,-0.677222,-0.573522
1630573700509,-0.432368,-0.677344,-0.575169
1630573700518,-0.432185,-0.677588,-0.575352
1630573700528,-0.43255099999999996,-0.676917,-0.576572
1630573700538,-0.43194099999999996,-0.675636,-0.577548
1630573700547,-0.432307,-0.67527,-0.578402
1630573700557,-0.432063,-0.674294,-0.57767
1630573700566,-0.432978,-0.673928,-0.577243
1630573700576,-0.433527,-0.673928,-0.577121
1630573700586,-0.434137,-0.673501,-0.578402
1630573700595,-0.433771,-0.674904,-0.577975
1630573700605,-0.434076,-0.67588,-0.578341
1630573700614,-0.435601,-0.675819,-0.579317
1630573700624,-0.435845,-0.676734,-0.580476
1630573700634,-0.43541799999999997,-0.675392,-0.58011
1630573700643,-0.436577,-0.67527,-0.581269
1630573700653,-0.435906,-0.674843,-0.580415
1630573700662,-0.436089,-0.674233,-0.580232
1630573700672,-0.435235,-0.674538,-0.580903
1630573700682,-0.43615,-0.674782,-0.58133
1630573700691,-0.436882,-0.673745,-0.581574
1630573700701,-0.437065,-0.673806,-0.581452
1630573700710,-0.43615,-0.674111,-0.581635
1630573700720,-0.435967,-0.674904,-0.580415
1630573700730,-0.434747,-0.673074,-0.580354
1630573700739,-0.435052,-0.672586,-0.579195
1630573700749,-0.43493,-0.67222,-0.576633
1630573700758,-0.434381,-0.67283,-0.578707
1630573700768,-0.433832,-0.674721,-0.577426
1630573700778,-0.432978,-0.673989,-0.578036
1630573700787,-0.43163599999999996,-0.67222,-0.578097
1630573700797,-0.432002,-0.673135,-0.577548
1630573700806,-0.430294,-0.672708,-0.577792
1630573700816,-0.43127,-0.67405,-0.578463
1630573700826,-0.430599,-0.674172,-0.579073
1630573700835,-0.430904,-0.673806,-0.5795
1630573700845,-0.430294,-0.674599,-0.579744
1630573700854,-0.430355,-0.674721,-0.579256
1630573700864,-0.429318,-0.673989,-0.580964
1630573700874,-0.429257,-0.673928,-0.580476
1630573700883,-0.42883,-0.674416,-0.581269
1630573700893,-0.428647,-0.673745,-0.581086
1630573700902,-0.428525,-0.672769,-0.581269
1630573700912,-0.429135,-0.672952,-0.582977
1630573700922,-0.42858599999999997,-0.672586,-0.583526
1630573700931,-0.42822,-0.67222,-0.583404
1630573700941,-0.429135,-0.67222,-0.583709
1630573700950,-0.429135,-0.671427,-0.584624
1630573700960,-0.428464,-0.672586,-0.5857829999999999
1630573700970,-0.429562,-0.672464,-0.5860879999999999
1630573700979,-0.429684,-0.673623,-0.586454
1630573700989,-0.429562,-0.672708,-0.586942
1630573700998,-0.42950099999999997,-0.672098,-0.587125
1630573701008,-0.43005,-0.671976,-0.586881
1630573701018,-0.43066,-0.672403,-0.587186
1630573701027,-0.43066,-0.672037,-0.5866979999999999
1630573701037,-0.43072099999999997,-0.672159,-0.5857829999999999
1630573701046,-0.42950099999999997,-0.671793,-0.585539
1630573701056,-0.430172,-0.672342,-0.5856
1630573701066,-0.430904,-0.672464,-0.5848679999999999
1630573701075,-0.430843,-0.673135,-0.583587
1630573701085,-0.431392,-0.672464,-0.583343
1630573701094,-0.431087,-0.673562,-0.581574
1630573701104,-0.43188,-0.67466,-0.58072
1630573701114,-0.431819,-0.675331,-0.581147
1630573701123,-0.43163599999999996,-0.674904,-0.581086
1630573701133,-0.430538,-0.673501,-0.580415
1630573701142,-0.429257,-0.669353,-0.58194
1630573701152,-0.429379,-0.6688649999999999,-0.583099
1630573701162,-0.428952,-0.670146,-0.58377
1630573701171,-0.429867,-0.671183,-0.584624
1630573701181,-0.429745,-0.671671,-0.5857829999999999
1630573701190,-0.429928,-0.672098,-0.585661
1630573701200,-0.430172,-0.672403,-0.585112
1630573701210,-0.43066,-0.671732,-0.584746
1630573701219,-0.430355,-0.670756,-0.585112
1630573701229,-0.430904,-0.670756,-0.584624
1630573701238,-0.43163599999999996,-0.670756,-0.5839529999999999
1630573701248,-0.43188,-0.671671,-0.583343
1630573701258,-0.43255099999999996,-0.671549,-0.583343
1630573701267,-0.43133099999999996,-0.670817,-0.583526
1630573701277,-0.432185,-0.671854,-0.583038
1630573701286,-0.43249,-0.672464,-0.583038
1630573701296,-0.432673,-0.672708,-0.58255
1630573701306,-0.432185,-0.672891,-0.58255
1630573701315,-0.43194099999999996,-0.672708,-0.58255
1630573701325,-0.432185,-0.672769,-0.581269
1630573701334,-0.431819,-0.672464,-0.580781
1630573701344,-0.431575,-0.672403,-0.580171
1630573701354,-0.431514,-0.672342,-0.580049
1630573701363,-0.43194099999999996,-0.67283,-0.578951
1630573701373,-0.43194099999999996,-0.673318,-0.579866
1630573701382,-0.43224599999999996,-0.673013,-0.579622
1630573701392,-0.431697,-0.675026,-0.578707
1630573701402,-0.43224599999999996,-0.677283,-0.578402
1630573701411,-0.432734,-0.67832,-0.578463
1630573701421,-0.432978,-0.676856,-0.57767
1630573701430,-0.431148,-0.675575,-0.577365
1630573701440,-0.431514,-0.673196,-0.576816
1630573701450,-0.43102599999999996,-0.673013,-0.577304
1630573701459,-0.431087,-0.672586,-0.578097
1630573701469,-0.43163599999999996,-0.67405,-0.578463
1630573701478,-0.432368,-0.675819,-0.580049
1630573701488,-0.43188,-0.67527,-0.580598
1630573701498,-0.431758,-0.675392,-0.580232
1630573701507,-0.431514,-0.67588,-0.581208
1630573701517,-0.43194099999999996,-0.676063,-0.581574
1630573701526,-0.43224599999999996,-0.675453,-0.582367
1630573701536,-0.43041599999999997,-0.675636,-0.58133
1630573701546,-0.431514,-0.674355,-0.580415
1630573701555,-0.431514,-0.673074,-0.58011
1630573701565,-0.431758,-0.673196,-0.580171
1630573701574,-0.431392,-0.673684,-0.579134
1630573701584,-0.43163599999999996,-0.67405,-0.579073
1630573701594,-0.430965,-0.675087,-0.578341
1630573701603,-0.43133099999999996,-0.674538,-0.57889
1630573701613,-0.432063,-0.674538,-0.580476
1630573701622,-0.431697,-0.674782,-0.579744
1630573701632,-0.43072099999999997,-0.674355,-0.580598
1630573701642,-0.430599,-0.673928,-0.581391
1630573701651,-0.43041599999999997,-0.673013,-0.581208
1630573701661,-0.430599,-0.672037,-0.581818
1630573701670,-0.430538,-0.672586,-0.581696
1630573701680,-0.429928,-0.672586,-0.582428
1630573701690,-0.429928,-0.672952,-0.58255
1630573701699,-0.43041599999999997,-0.672708,-0.582062
1630573701709,-0.43005,-0.672586,-0.581635
1630573701718,-0.43102599999999996,-0.673135,-0.581147
1630573701728,-0.43041599999999997,-0.672464,-0.581025
1630573701738,-0.430538,-0.672952,-0.579439
1630573701747,-0.430538,-0.672708,-0.580659
1630573701757,-0.429867,-0.671732,-0.580171
1630573701766,-0.430965,-0.672159,-0.579622
1630573701776,-0.43066,-0.671976,-0.580659
1630573701786,-0.430782,-0.672098,-0.581208
1630573701795,-0.430538,-0.671488,-0.583587
1630573701805,-0.430538,-0.671549,-0.583465
1630573701814,-0.430294,-0.671183,-0.5851729999999999
1630573701824,-0.429867,-0.670695,-0.585722
1630573701834,-0.42950099999999997,-0.670512,-0.586576
1630573701843,-0.429074,-0.671183,-0.586942
1630573701853,-0.428647,-0.670329,-0.587552
1630573701862,-0.42828099999999997,-0.670451,-0.587857
1630573701872,-0.428769,-0.670146,-0.589016
1630573701882,-0.429135,-0.669597,-0.589321
1630573701891,-0.428647,-0.670268,-0.588894
1630573701901,-0.428098,-0.6700849999999999,-0.589199
1630573701910,-0.428525,-0.669597,-0.588955
1630573701920,-0.428952,-0.669597,-0.589321
1630573701930,-0.428098,-0.669536,-0.5894429999999999
1630573701939,-0.427488,-0.6685599999999999,-0.58987
1630573701949,-0.427915,-0.668926,-0.590846
1630573701958,-0.42858599999999997,-0.668011,-0.591334
1630573701968,-0.427854,-0.668438,-0.5915779999999999
1630573701978,-0.428159,-0.668926,-0.592127
1630573701987,-0.42828099999999997,-0.6682549999999999,-0.592066
1630573701997,-0.428464,-0.669292,-0.592005
1630573702006,-0.42889099999999997,-0.668316,-0.59231
1630573702016,-0.428464,-0.668743,-0.591029
1630573702026,-0.429257,-0.668987,-0.591456
1630573702035,-0.42858599999999997,-0.6688649999999999,-0.590602
1630573702045,-0.428708,-0.669353,-0.590846
1630573702054,-0.428952,-0.6685599999999999,-0.58987
1630573702064,-0.42883,-0.6688649999999999,-0.58926
1630573702074,-0.42797599999999997,-0.669292,-0.589626
1630573702083,-0.428403,-0.6688649999999999,-0.589504
1630573702093,-0.428342,-0.669414,-0.588284
1630573702102,-0.427488,-0.670939,-0.587186
1630573702112,-0.427793,-0.671976,-0.586515
1630573702122,-0.42736599999999997,-0.672037,-0.58682
1630573702131,-0.428159,-0.671,-0.5856
1630573702141,-0.426634,-0.668926,-0.585661
1630573702150,-0.426207,-0.667401,-0.585539
1630573702160,-0.425658,-0.667706,-0.586942
1630573702170,-0.425719,-0.669353,-0.589382
1630573702179,-0.42523099999999997,-0.669597,-0.589809
1630573702189,-0.426695,-0.669902,-0.590175
1630573702198,-0.426634,-0.668682,-0.5912729999999999
1630573702208,-0.426207,-0.6685599999999999,-0.5921879999999999
1630573702218,-0.42578,-0.667706,-0.592981
1630573702227,-0.425475,-0.6667299999999999,-0.5931029999999999
1630573702237,-0.426695,-0.666608,-0.593164
1630573702246,-0.426329,-0.667096,-0.593164
1630573702256,-0.42736599999999997,-0.668133,-0.593469
1630573702266,-0.42761,-0.6688649999999999,-0.5927979999999999
1630573702275,-0.427305,-0.668682,-0.592127
1630573702285,-0.428708,-0.668682,-0.593042
1630573702294,-0.427427,-0.669658,-0.591761
1630573702304,-0.427915,-0.669719,-0.5897479999999999
1630573702314,-0.42797599999999997,-0.670268,-0.5897479999999999
1630573702323,-0.428159,-0.669414,-0.588772
1630573702333,-0.428159,-0.668804,-0.588406
1630573702342,-0.428708,-0.668316,-0.587552
1630573702352,-0.428098,-0.668682,-0.587735
1630573702362,-0.42736599999999997,-0.667523,-0.5870029999999999
1630573702371,-0.42614599999999997,-0.667401,-0.586637
1630573702381,-0.427183,-0.668743,-0.587735
1630573702390,-0.427,-0.667523,-0.586332
1630573702400,-0.42822,-0.670024,-0.5860879999999999
1630573702410,-0.428342,-0.671854,-0.58743
1630573702419,-0.42883,-0.672647,-0.586881
1630573702429,-0.428708,-0.670756,-0.586454
1630573702438,-0.428525,-0.669292,-0.58682
1630573702448,-0.427854,-0.668621,-0.585905
1630573702458,-0.428464,-0.6688649999999999,-0.5866979999999999
1630573702467,-0.428403,-0.669841,-0.587125
1630573702477,-0.427244,-0.669841,-0.5876129999999999
1630573702486,-0.428098,-0.669414,-0.588894
1630573702496,-0.427915,-0.669597,-0.588406
1630573702506,-0.427854,-0.670146,-0.588162
1630573702515,-0.42858599999999997,-0.670451,-0.588589
1630573702525,-0.42919599999999997,-0.67039,-0.588284
1630573702534,-0.42858599999999997,-0.669597,-0.5885279999999999
1630573702544,-0.429745,-0.669902,-0.588772
1630573702554,-0.429623,-0.668072,-0.588589
1630573702563,-0.428952,-0.668316,-0.589504
1630573702573,-0.42950099999999997,-0.668011,-0.590175
1630573702582,-0.429135,-0.667157,-0.5921879999999999
1630573702592,-0.42767099999999997,-0.667096,-0.5927979999999999
1630573702602,-0.427854,-0.6670349999999999,-0.594262
1630573702611,-0.427427,-0.666974,-0.594811
1630573702621,-0.42761,-0.666364,-0.595787
1630573702630,-0.427305,-0.664107,-0.5967629999999999
1630573702640,-0.42767099999999997,-0.658556,-0.597983
1630573702650,-0.42767099999999997,-0.651724,-0.597983
1630573702659,-0.42517,-0.655079,-0.60146
1630573702669,-0.424255,-0.658251,-0.605547
1630573702678,-0.422364,-0.664107,-0.6101219999999999
1630573702688,-0.422913,-0.667828,-0.611464
1630573702698,-0.42401099999999997,-0.669231,-0.607865
1630573702707,-0.42462099999999997,-0.669048,-0.605486
1630573702717,-0.424194,-0.670268,-0.603412
1630573702726,-0.42645099999999997,-0.671488,-0.601216
1630573702736,-0.427915,-0.670939,-0.600179
1630573702746,-0.428769,-0.670024,-0.598593
1630573702755,-0.42950099999999997,-0.669658,-0.596275
1630573702765,-0.42919599999999997,-0.6691699999999999,-0.595055
1630573702774,-0.42944,-0.669597,-0.593469
1630573702784,-0.429379,-0.668926,-0.5917
1630573702794,-0.42944,-0.668926,-0.589931
1630573702803,-0.429989,-0.6679499999999999,-0.587552
1630573702813,-0.42919599999999997,-0.669048,-0.587247
1630573702822,-0.428098,-0.668621,-0.587064
1630573702832,-0.427549,-0.668133,-0.587369
1630573702842,-0.42639,-0.668377,-0.587552
1630573702851,-0.424804,-0.670939,-0.588284
1630573702861,-0.423767,-0.671305,-0.588894
1630573702870,-0.422608,-0.670634,-0.589626
1630573702880,-0.421022,-0.672403,-0.5906629999999999
1630573702890,-0.420534,-0.675209,-0.59109
1630573702899,-0.418765,-0.676612,-0.59292
1630573702909,-0.41931399999999996,-0.677588,-0.593286
1630573702918,-0.41809399999999997,-0.676978,-0.5927979999999999
1630573702928,-0.41724,-0.675697,-0.59109
1630573702938,-0.416447,-0.675636,-0.590907
1630573702947,-0.41626399999999997,-0.675941,-0.5900529999999999
1630573702957,-0.416386,-0.67649,-0.588467
1630573702966,-0.416386,-0.676734,-0.587796
1630573702976,-0.414556,-0.67771,-0.589016
1630573702986,-0.41412899999999997,-0.678808,-0.589931
1630573702995,-0.414007,-0.679357,-0.5906629999999999
1630573703005,-0.413458,-0.68137,-0.591395
1630573703014,-0.41260399999999997,-0.681858,-0.592371
1630573703024,-0.41175,-0.683688,-0.5921879999999999
1630573703034,-0.409981,-0.684603,-0.592249
1630573703043,-0.409432,-0.686372,-0.591456
1630573703053,-0.4087,-0.686738,-0.5891379999999999
1630573703062,-0.40760199999999996,-0.6880189999999999,-0.588284
1630573703072,-0.406443,-0.689361,-0.585844
1630573703082,-0.405345,-0.6913739999999999,-0.585356
1630573703091,-0.404308,-0.691252,-0.58499
1630573703101,-0.402661,-0.690276,-0.583465
1630573703110,-0.401929,-0.689117,-0.582062
1630573703120,-0.40077,-0.691313,-0.582062
1630573703130,-0.39955,-0.6941189999999999,-0.582489
1630573703139,-0.398208,-0.695766,-0.581818
1630573703149,-0.397415,-0.696315,-0.580354
1630573703158,-0.396378,-0.694241,-0.579012
1630573703168,-0.395646,-0.694729,-0.577792
1630573703178,-0.393877,-0.694546,-0.57828
1630573703187,-0.392047,-0.695461,-0.579134
1630573703197,-0.39161999999999997,-0.696193,-0.580659
1630573703206,-0.390278,-0.695461,-0.582123
1630573703216,-0.389973,-0.6944239999999999,-0.584441
1630573703226,-0.386984,-0.694851,-0.590236
1630573703235,-0.385581,-0.696864,-0.596519
1630573703245,-0.383141,-0.698145,-0.601643
1630573703254,-0.381494,-0.69784,-0.603229
1630573703264,-0.38186,-0.697108,-0.60268
1630573703274,-0.380701,-0.695522,-0.600606
1630573703283,-0.37960299999999997,-0.697779,-0.599142
1630573703293,-0.378261,-0.699365,-0.595909
1630573703302,-0.376675,-0.700768,-0.59353
1630573703312,-0.37576,-0.70211,-0.590602
1630573703322,-0.374357,-0.703757,-0.588345
1630573703331,-0.373198,-0.7053429999999999,-0.587186
1630573703341,-0.371734,-0.705465,-0.585539
1630573703350,-0.369782,-0.704306,-0.585356
1630573703360,-0.368928,-0.704489,-0.583587
1630573703370,-0.367952,-0.704794,-0.582733
1630573703379,-0.36636599999999997,-0.7050379999999999,-0.583404
1630573703389,-0.364963,-0.705526,-0.583648
1630573703398,-0.363865,-0.70699,-0.582245
1630573703408,-0.362218,-0.709552,-0.581391
1630573703418,-0.361425,-0.711931,-0.58011
1630573703427,-0.361303,-0.714432,-0.577914
1630573703437,-0.360449,-0.717726,-0.57706
1630573703446,-0.359351,-0.718641,-0.575718
1630573703456,-0.357277,-0.7181529999999999,-0.573705
1630573703466,-0.356728,-0.717116,-0.572851
1630573703475,-0.355386,-0.717909,-0.571997
1630573703485,-0.354288,-0.7181529999999999,-0.573461
1630573703494,-0.35319,-0.720166,-0.573583
1630573703504,-0.35221399999999997,-0.722911,-0.574437
1630573703514,-0.351848,-0.725107,-0.573644
1630573703523,-0.35075,-0.72407,-0.574681
1630573703533,-0.34892,-0.724497,-0.575169
1630573703542,-0.348493,-0.724192,-0.574132
1630573703552,-0.347029,-0.724802,-0.574681
1630573703562,-0.345199,-0.725351,-0.574315
1630573703571,-0.345443,-0.72529,-0.574742
1630573703581,-0.344955,-0.724863,-0.574559
1630573703590,-0.34416199999999997,-0.724985,-0.575596
1630573703600,-0.343796,-0.727913,-0.57523
1630573703610,-0.342515,-0.728035,-0.575718
1630573703619,-0.341844,-0.72773,-0.575108
1630573703629,-0.340929,-0.728645,-0.573217
1630573703638,-0.34038,-0.729133,-0.573644
1630573703648,-0.34080699999999997,-0.72895,-0.57401
1630573703658,-0.340136,-0.727791,-0.574132
1630573703667,-0.339099,-0.728401,-0.574925
1630573703677,-0.338306,-0.7287669999999999,-0.577182
1630573703686,-0.337696,-0.729316,-0.577426
1630573703696,-0.337452,-0.729133,-0.577731
1630573703706,-0.337391,-0.729011,-0.578524
1630573703715,-0.336964,-0.729316,-0.579134
1630573703725,-0.337452,-0.729926,-0.579622
1630573703734,-0.337452,-0.730414,-0.579256
1630573703744,-0.337025,-0.7315119999999999,-0.579073
1630573703754,-0.335622,-0.730719,-0.578829
1630573703763,-0.336598,-0.730536,-0.577731
1630573703773,-0.335317,-0.73139,-0.57584
1630573703782,-0.335805,-0.7321219999999999,-0.574681
1630573703792,-0.335012,-0.731695,-0.573278
1630573703802,-0.334646,-0.731268,-0.57279
1630573703811,-0.333426,-0.732061,-0.5727289999999999
1630573703821,-0.334646,-0.732244,-0.573461
1630573703830,-0.333426,-0.731756,-0.573217
1630573703840,-0.33427999999999997,-0.732244,-0.573095
1630573703850,-0.333304,-0.732488,-0.572973
1630573703859,-0.332938,-0.731695,-0.574254
1630573703869,-0.331596,-0.730353,-0.57584
1630573703878,-0.331291,-0.731024,-0.576999
1630573703888,-0.33061999999999997,-0.730475,-0.577914
1630573703898,-0.330559,-0.730353,-0.578219
1630573703907,-0.330681,-0.730719,-0.579012
1630573703917,-0.330193,-0.731268,-0.578951
1630573703926,-0.331413,-0.729926,-0.579622
1630573703936,-0.330376,-0.730658,-0.580354
1630573703946,-0.330132,-0.731024,-0.581452
1630573703955,-0.329156,-0.7305969999999999,-0.58255
1630573703965,-0.33000999999999997,-0.729194,-0.582794
1630573703974,-0.330559,-0.730353,-0.58377
1630573703984,-0.330681,-0.73078,-0.583648
1630573703994,-0.330986,-0.7305969999999999,-0.584807
1630573704003,-0.330498,-0.730475,-0.583465
1630573704013,-0.331169,-0.730536,-0.583038
1630573704022,-0.331718,-0.7309019999999999,-0.583099
1630573704032,-0.331901,-0.731634,-0.583404
1630573704042,-0.331352,-0.731268,-0.58377
1630573704051,-0.33153499999999997,-0.7309019999999999,-0.58377
1630573704061,-0.331657,-0.73017,-0.58194
1630573704070,-0.330254,-0.728706,-0.581452
1630573704080,-0.33153499999999997,-0.729926,-0.581086
1630573704090,-0.331718,-0.728279,-0.581452
1630573704099,-0.331596,-0.729011,-0.58133
1630573704109,-0.332572,-0.729194,-0.580476
1630573704118,-0.331901,-0.728218,-0.579561
1630573704128,-0.332572,-0.730475,-0.579378
1630573704138,-0.333609,-0.7321219999999999,-0.577609
1630573704147,-0.33336499999999997,-0.732061,-0.577731
1630573704157,-0.334646,-0.731268,-0.577182
1630573704166,-0.334402,-0.729133,-0.578768
1630573704176,-0.332938,-0.7296819999999999,-0.581513
1630573704186,-0.33214499999999997,-0.7305969999999999,-0.583343
1630573704195,-0.331962,-0.730475,-0.583709
1630573704205,-0.33275499999999997,-0.729926,-0.583648
1630573704214,-0.332572,-0.729804,-0.583526
1630573704224,-0.33244999999999997,-0.728401,-0.582672
1630573704234,-0.331962,-0.726754,-0.58377
1630573704243,-0.331352,-0.726754,-0.5842579999999999
1630573704253,-0.33122999999999997,-0.726022,-0.5857829999999999
1630573704262,-0.33153499999999997,-0.726754,-0.5857829999999999
1630573704272,-0.331108,-0.726388,-0.586027
1630573704282,-0.330681,-0.728279,-0.585844
1630573704291,-0.331047,-0.72712,-0.585112
1630573704301,-0.331474,-0.727364,-0.585539
1630573704310,-0.332023,-0.728035,-0.584624
1630573704320,-0.332572,-0.727791,-0.5845629999999999
1630573704330,-0.333914,-0.72712,-0.583892
1630573704339,-0.33366999999999997,-0.727303,-0.583465
1630573704349,-0.334524,-0.727669,-0.584197
1630573704358,-0.335256,-0.728096,-0.583099
1630573704368,-0.334219,-0.7281569999999999,-0.58255
1630573704378,-0.336049,-0.72895,-0.581818
1630573704387,-0.336537,-0.728035,-0.581208
1630573704397,-0.336842,-0.727364,-0.580598
1630573704406,-0.337391,-0.72895,-0.579195
1630573704416,-0.337818,-0.731024,-0.577548
1630573704426,-0.337696,-0.730841,-0.576999
1630573704435,-0.337391,-0.729621,-0.577243
1630573704445,-0.337208,-0.726998,-0.576389
1630573704454,-0.337086,-0.725961,-0.576389
1630573704464,-0.337269,-0.726571,-0.577365
1630573704474,-0.337086,-0.7278519999999999,-0.57889
1630573704483,-0.338123,-0.7284619999999999,-0.578768
1630573704493,-0.338367,-0.728645,-0.579134
1630573704502,-0.338428,-0.728828,-0.579439
1630573704512,-0.337086,-0.730414,-0.580415
1630573704522,-0.337879,-0.729804,-0.581452
1630573704531,-0.33733,-0.729011,-0.581208
1630573704541,-0.338245,-0.729316,-0.581208
1630573704550,-0.337635,-0.7281569999999999,-0.579805
1630573704560,-0.337574,-0.727425,-0.580354
1630573704570,-0.337452,-0.727303,-0.579012
1630573704579,-0.337391,-0.727913,-0.579866
1630573704589,-0.337208,-0.7275469999999999,-0.581025
1630573704598,-0.336354,-0.7278519999999999,-0.580903
1630573704608,-0.337025,-0.728218,-0.580903
1630573704618,-0.33672,-0.72773,-0.582062
1630573704627,-0.336049,-0.727791,-0.583343
1630573704637,-0.336659,-0.728096,-0.584319
1630573704646,-0.336415,-0.727486,-0.585051
1630573704656,-0.335927,-0.72773,-0.586149
1630573704666,-0.336232,-0.727913,-0.586454
1630573704675,-0.33611,-0.727425,-0.5870029999999999
1630573704685,-0.336415,-0.727913,-0.586332
1630573704694,-0.335622,-0.727974,-0.587369
1630573704704,-0.335622,-0.727974,-0.585661
1630573704714,-0.336232,-0.727303,-0.5854779999999999
1630573704723,-0.336049,-0.726632,-0.584075
1630573704733,-0.337208,-0.726754,-0.584075
1630573704742,-0.337269,-0.727608,-0.58377
1630573704752,-0.33733,-0.727181,-0.583038
1630573704762,-0.337635,-0.727181,-0.582062
1630573704771,-0.336293,-0.727425,-0.582123
1630573704781,-0.336476,-0.728584,-0.581147
1630573704790,-0.335927,-0.728035,-0.580415
1630573704800,-0.335622,-0.727974,-0.581025
1630573704810,-0.334951,-0.726449,-0.580049
1630573704819,-0.334463,-0.725595,-0.580964
1630573704829,-0.33458499999999997,-0.72651,-0.581025
1630573704838,-0.334768,-0.7259,-0.582062
1630573704848,-0.33366999999999997,-0.72712,-0.581025
1630573704858,-0.334402,-0.727181,-0.580354
1630573704867,-0.335134,-0.72712,-0.581269
1630573704877,-0.334036,-0.726998,-0.58255
1630573704886,-0.334402,-0.727059,-0.581696
1630573704896,-0.335317,-0.726571,-0.583343
1630573704906,-0.333914,-0.726388,-0.582794
1630573704915,-0.333731,-0.725229,-0.583038
1630573704925,-0.333487,-0.726449,-0.582611
1630573704934,-0.333182,-0.726266,-0.583282
1630573704944,-0.333609,-0.726388,-0.584136
1630573704954,-0.332206,-0.72651,-0.584746
1630573704963,-0.333121,-0.726144,-0.5856
1630573704973,-0.33275499999999997,-0.726876,-0.58621
1630573704982,-0.332328,-0.728218,-0.586027
1630573704992,-0.332999,-0.727181,-0.58682
1630573705002,-0.33214499999999997,-0.726022,-0.587369
1630573705011,-0.332694,-0.7269369999999999,-0.5870029999999999
1630573705021,-0.33366999999999997,-0.727669,-0.587796
1630573705030,-0.332633,-0.7275469999999999,-0.58865
1630573705040,-0.332938,-0.726998,-0.588345
1630573705050,-0.332023,-0.727303,-0.5873079999999999
1630573705059,-0.333121,-0.727974,-0.586881
1630573705069,-0.333426,-0.728279,-0.5860879999999999
1630573705078,-0.333792,-0.727791,-0.584807
1630573705088,-0.334341,-0.727669,-0.583343
1630573705098,-0.334951,-0.7287669999999999,-0.583587
1630573705107,-0.335622,-0.729926,-0.581879
1630573705117,-0.335256,-0.7293769999999999,-0.580659
1630573705126,-0.334951,-0.72956,-0.580232
1630573705136,-0.334829,-0.7269369999999999,-0.580659
1630573705146,-0.333304,-0.7278519999999999,-0.581574
1630573705155,-0.333243,-0.7287669999999999,-0.582733
1630573705165,-0.333304,-0.730353,-0.584319
1630573705174,-0.333121,-0.7290719999999999,-0.583465
1630573705184,-0.333426,-0.728584,-0.582916
1630573705194,-0.334036,-0.728584,-0.583282
1630573705203,-0.333792,-0.7287669999999999,-0.58316
1630573705213,-0.33336499999999997,-0.72712,-0.583465
1630573705222,-0.333548,-0.726327,-0.583526
1630573705232,-0.334097,-0.725778,-0.582489
1630573705242,-0.332938,-0.725961,-0.582977
1630573705251,-0.333792,-0.727486,-0.582062
1630573705261,-0.33366999999999997,-0.72773,-0.58194
1630573705270,-0.334951,-0.7281569999999999,-0.581208
1630573705280,-0.335195,-0.7290719999999999,-0.58133
1630573705290,-0.335378,-0.7290719999999999,-0.58133
1630573705299,-0.334768,-0.728645,-0.58072
1630573705309,-0.335256,-0.728218,-0.579805
1630573705318,-0.336049,-0.728828,-0.579012
1630573705328,-0.3355,-0.7281569999999999,-0.579256
1630573705338,-0.335866,-0.727608,-0.58011
1630573705347,-0.335744,-0.728279,-0.579012
1630573705357,-0.335988,-0.728828,-0.579378
1630573705366,-0.336598,-0.728584,-0.580537
1630573705376,-0.336171,-0.728584,-0.580842
1630573705386,-0.335805,-0.730048,-0.579866
1630573705395,-0.336598,-0.732183,-0.579622
1630573705405,-0.337086,-0.733708,-0.578768
1630573705414,-0.33672,-0.731939,-0.577182
1630573705424,-0.335561,-0.731024,-0.578341
1630573705434,-0.336232,-0.7293769999999999,-0.57828
1630573705443,-0.335622,-0.728889,-0.578036
1630573705453,-0.335866,-0.728401,-0.57828
1630573705462,-0.33488999999999997,-0.729316,-0.579256
1630573705472,-0.335317,-0.730536,-0.580842
1630573705482,-0.334463,-0.7302919999999999,-0.580415
1630573705491,-0.334646,-0.731573,-0.580476
1630573705501,-0.33458499999999997,-0.731695,-0.580232
1630573705510,-0.334768,-0.731451,-0.580415
1630573705520,-0.33427999999999997,-0.730536,-0.580598
1630573705530,-0.334036,-0.7296819999999999,-0.580415
1630573705539,-0.333487,-0.729316,-0.58072
1630573705549,-0.333243,-0.729316,-0.580842
1630573705558,-0.333548,-0.729438,-0.580903
1630573705568,-0.33397499999999997,-0.730048,-0.579988
1630573705578,-0.333914,-0.730109,-0.580598
1630573705587,-0.334463,-0.73139,-0.580903
1630573705597,-0.334707,-0.731085,-0.580354
1630573705606,-0.334402,-0.731146,-0.579805
1630573705616,-0.334829,-0.730841,-0.579744
1630573705626,-0.335622,-0.730109,-0.579805
1630573705635,-0.335317,-0.73017,-0.57889
1630573705645,-0.335988,-0.729926,-0.58011
1630573705654,-0.335256,-0.729316,-0.579622
1630573705664,-0.335195,-0.728828,-0.580598
1630573705674,-0.334463,-0.728706,-0.581086
1630573705683,-0.335927,-0.729316,-0.580537
1630573705693,-0.335866,-0.72956,-0.580232
1630573705702,-0.335439,-0.728889,-0.579866
1630573705712,-0.335439,-0.729133,-0.58072
1630573705722,-0.335439,-0.729255,-0.580354
1630573705731,-0.335744,-0.728645,-0.579683
1630573705741,-0.334646,-0.729255,-0.579744
1630573705750,-0.334646,-0.728645,-0.580659
1630573705760,-0.335439,-0.728401,-0.581086
1630573705770,-0.334707,-0.728096,-0.580659
1630573705779,-0.334097,-0.727913,-0.580842
1630573705789,-0.333304,-0.72773,-0.581452
1630573705798,-0.334036,-0.727791,-0.582489
1630573705808,-0.333304,-0.727913,-0.582428
1630573705818,-0.333792,-0.727608,-0.583343
1630573705827,-0.333182,-0.727181,-0.584746
1630573705837,-0.333304,-0.727608,-0.583587
1630573705846,-0.333182,-0.728096,-0.583648
1630573705856,-0.333304,-0.727486,-0.583526
1630573705866,-0.332938,-0.728218,-0.584685
1630573705875,-0.333243,-0.727913,-0.58438
1630573705885,-0.332572,-0.727486,-0.5851729999999999
1630573705894,-0.333121,-0.7281569999999999,-0.5845629999999999
1630573705904,-0.332816,-0.727974,-0.584929
1630573705914,-0.332694,-0.7275469999999999,-0.584502
1630573705923,-0.332633,-0.728218,-0.5842579999999999
1630573705933,-0.332816,-0.7281569999999999,-0.583892
1630573705942,-0.332084,-0.7281569999999999,-0.584075
1630573705952,-0.332084,-0.727181,-0.584319
1630573705962,-0.333182,-0.726815,-0.584197
1630573705971,-0.33305999999999997,-0.727486,-0.5839529999999999
1630573705981,-0.332389,-0.72712,-0.583892
1630573705990,-0.332938,-0.727791,-0.5839529999999999
1630573706000,-0.33336499999999997,-0.728096,-0.583587
1630573706010,-0.333609,-0.728035,-0.584197
1630573706019,-0.333853,-0.728645,-0.58377
1630573706029,-0.334463,-0.728035,-0.582733
1630573706038,-0.334646,-0.729133,-0.58255
1630573706048,-0.335317,-0.7284619999999999,-0.582367
1630573706058,-0.33488999999999997,-0.728279,-0.581208
1630573706067,-0.335195,-0.727913,-0.580964
1630573706077,-0.334463,-0.729926,-0.582733
1630573706086,-0.334829,-0.730841,-0.581757
1630573706096,-0.335134,-0.729865,-0.581208
1630573706106,-0.33611,-0.730109,-0.579256
1630573706115,-0.335317,-0.731329,-0.577243
1630573706125,-0.33611,-0.731695,-0.576206
1630573706134,-0.335866,-0.731451,-0.573949
1630573706144,-0.33611,-0.73017,-0.574193
1630573706154,-0.335988,-0.728706,-0.573827
1630573706163,-0.335012,-0.728401,-0.574559
1630573706173,-0.334646,-0.7299869999999999,-0.577304
1630573706182,-0.335256,-0.731756,-0.578829
1630573706192,-0.335988,-0.7318169999999999,-0.579256
1630573706202,-0.335317,-0.731878,-0.580415
1630573706211,-0.3355,-0.731024,-0.581513
1630573706221,-0.335134,-0.730536,-0.581879
1630573706230,-0.334463,-0.72895,-0.582306
1630573706240,-0.334829,-0.728218,-0.582672
1630573706250,-0.334097,-0.727486,-0.583587
1630573706259,-0.333792,-0.72773,-0.583404
1630573706269,-0.333731,-0.7278519999999999,-0.583099
1630573706278,-0.334768,-0.729255,-0.581696
1630573706288,-0.335683,-0.729621,-0.580354
1630573706298,-0.334829,-0.729743,-0.580781
1630573706307,-0.335012,-0.73017,-0.580232
1630573706317,-0.335378,-0.73017,-0.579012
1630573706326,-0.334707,-0.73017,-0.579378
1630573706336,-0.335317,-0.729194,-0.579317
1630573706346,-0.335378,-0.729194,-0.578402
1630573706355,-0.335805,-0.728645,-0.577548
1630573706365,-0.336598,-0.729865,-0.577487
1630573706374,-0.336171,-0.729621,-0.577914
1630573706384,-0.336842,-0.729926,-0.57767
1630573706394,-0.337208,-0.72956,-0.578341
1630573706403,-0.33733,-0.7305969999999999,-0.577182
1630573706413,-0.337574,-0.73261,-0.577182
1630573706422,-0.337635,-0.733281,-0.577792
1630573706432,-0.337635,-0.73261,-0.577426
1630573706442,-0.336537,-0.7312069999999999,-0.576816
1630573706451,-0.336842,-0.729499,-0.575901
1630573706461,-0.335866,-0.728889,-0.57645
1630573706470,-0.335866,-0.7293769999999999,-0.577304
1630573706480,-0.335256,-0.729011,-0.579012
1630573706490,-0.335744,-0.729438,-0.579073
1630573706499,-0.335134,-0.728828,-0.58011
1630573706509,-0.335073,-0.730719,-0.579927
1630573706518,-0.336354,-0.7312069999999999,-0.579744
1630573706528,-0.3355,-0.731329,-0.580598
1630573706538,-0.3355,-0.730536,-0.580171
1630573706547,-0.335012,-0.73017,-0.580476
1630573706557,-0.334524,-0.72956,-0.579439
1630573706566,-0.334402,-0.729499,-0.580293
1630573706576,-0.335073,-0.730048,-0.58133
1630573706586,-0.334524,-0.730109,-0.58072
1630573706595,-0.334524,-0.730109,-0.580964
1630573706605,-0.33427999999999997,-0.7309019999999999,-0.580842
1630573706614,-0.334036,-0.7309019999999999,-0.581635
1630573706624,-0.334036,-0.731146,-0.58072
1630573706634,-0.33488999999999997,-0.7293769999999999,-0.580537
1630573706643,-0.334951,-0.730231,-0.580049
1630573706653,-0.335012,-0.729621,-0.579744
1630573706662,-0.335317,-0.7299869999999999,-0.580537
1630573706672,-0.334768,-0.73017,-0.580598
1630573706682,-0.334768,-0.729926,-0.580476
1630573706691,-0.335073,-0.730536,-0.579988
1630573706701,-0.335073,-0.729926,-0.579622
1630573706710,-0.335683,-0.730048,-0.579988
1630573706720,-0.334646,-0.730109,-0.579317
1630573706730,-0.335744,-0.730231,-0.578768
1630573706739,-0.335622,-0.730414,-0.579927
1630573706749,-0.334829,-0.729865,-0.579195
1630573706758,-0.335012,-0.7302919999999999,-0.579134
1630573706768,-0.334829,-0.730475,-0.579744
1630573706778,-0.334646,-0.729133,-0.58011
1630573706787,-0.334463,-0.7287669999999999,-0.579622
1630573706797,-0.332938,-0.72895,-0.580415
1630573706806,-0.333182,-0.7290719999999999,-0.579195
1630573706816,-0.333487,-0.729316,-0.580903
1630573706826,-0.333304,-0.729255,-0.580171
1630573706835,-0.333487,-0.7293769999999999,-0.580415
1630573706845,-0.33244999999999997,-0.729194,-0.580842
1630573706854,-0.332999,-0.729316,-0.581208
1630573706864,-0.332511,-0.729865,-0.581879
1630573706874,-0.332877,-0.7293769999999999,-0.581147
1630573706883,-0.332999,-0.728828,-0.581086
1630573706893,-0.332572,-0.729194,-0.581574
1630573706902,-0.33214499999999997,-0.728889,-0.581391
1630573706912,-0.332023,-0.7302919999999999,-0.582428
1630573706922,-0.332023,-0.729438,-0.582062
1630573706931,-0.33153499999999997,-0.729621,-0.582184
1630573706941,-0.331596,-0.730536,-0.582306
1630573706950,-0.331352,-0.729804,-0.58255
1630573706960,-0.330376,-0.729743,-0.582367
1630573706970,-0.33122999999999997,-0.72956,-0.582489
1630573706979,-0.331352,-0.7296819999999999,-0.582001
1630573706989,-0.331657,-0.7296819999999999,-0.581208
1630573706998,-0.331779,-0.729255,-0.581086
1630573707008,-0.332572,-0.7296819999999999,-0.581818
1630573707018,-0.332084,-0.729926,-0.581818
1630573707027,-0.33244999999999997,-0.73017,-0.58255
1630573707037,-0.332633,-0.730658,-0.582916
1630573707046,-0.333121,-0.730353,-0.582367
1630573707056,-0.33366999999999997,-0.730414,-0.581818
1630573707066,-0.33366999999999997,-0.730658,-0.582001
1630573707075,-0.333609,-0.730536,-0.58133
1630573707085,-0.333548,-0.730475,-0.580903
1630573707094,-0.334219,-0.7312069999999999,-0.580903
1630573707104,-0.333731,-0.73139,-0.579378
1630573707114,-0.334524,-0.730658,-0.579927
1630573707123,-0.333731,-0.731329,-0.580232
1630573707133,-0.333304,-0.730841,-0.58011
1630573707142,-0.333548,-0.7312069999999999,-0.578646
1630573707152,-0.333426,-0.731756,-0.576633
1630573707162,-0.334402,-0.7333419999999999,-0.576389
1630573707171,-0.33397499999999997,-0.733098,-0.576328
1630573707181,-0.334036,-0.733403,-0.575413
1630573707190,-0.333487,-0.73078,-0.574986
1630573707200,-0.333792,-0.7284619999999999,-0.574498
1630573707210,-0.332267,-0.729194,-0.577243
1630573707219,-0.333121,-0.729804,-0.579439
1630573707229,-0.333304,-0.730536,-0.580842
1630573707238,-0.33397499999999997,-0.731329,-0.581635
1630573707248,-0.33305999999999997,-0.7309019999999999,-0.582733
1630573707258,-0.333914,-0.7305969999999999,-0.58194
1630573707267,-0.333548,-0.7305969999999999,-0.582123
1630573707277,-0.333426,-0.729621,-0.582916
1630573707286,-0.333609,-0.728584,-0.583404
1630573707296,-0.333609,-0.72834,-0.583587
1630573707306,-0.333914,-0.728279,-0.583282
1630573707315,-0.333792,-0.729499,-0.581879
1630573707325,-0.334768,-0.729926,-0.58133
1630573707334,-0.335134,-0.7299869999999999,-0.581696
1630573707344,-0.3355,-0.730048,-0.579805
1630573707354,-0.335561,-0.731268,-0.579195
1630573707363,-0.33611,-0.729743,-0.579012
1630573707373,-0.33672,-0.729743,-0.578768
1630573707382,-0.337025,-0.729011,-0.578158
1630573707392,-0.336903,-0.728218,-0.577182
1630573707402,-0.337635,-0.729133,-0.576877
1630573707411,-0.337025,-0.729133,-0.576145
1630573707421,-0.337696,-0.729743,-0.575962
1630573707430,-0.337391,-0.729865,-0.575413
1630573707440,-0.338367,-0.728828,-0.576206
1630573707450,-0.338062,-0.7309019999999999,-0.574864
1630573707459,-0.338977,-0.732488,-0.57462
1630573707469,-0.340319,-0.733281,-0.574376
1630573707478,-0.33916,-0.7327319999999999,-0.574437
1630573707488,-0.33916,-0.731268,-0.574254
1630573707498,-0.339282,-0.729621,-0.574498
1630573707507,-0.339099,-0.72834,-0.576267
1630573707517,-0.339343,-0.729743,-0.576633
1630573707526,-0.338977,-0.730658,-0.577426
1630573707536,-0.338184,-0.731634,-0.578463
1630573707546,-0.338367,-0.7309019999999999,-0.577792
1630573707555,-0.338245,-0.730048,-0.579195
1630573707565,-0.337818,-0.73017,-0.578951
1630573707574,-0.338489,-0.730109,-0.579927
1630573707584,-0.337513,-0.728645,-0.579195
1630573707594,-0.336659,-0.727486,-0.578829
1630573707603,-0.336842,-0.728279,-0.579256
1630573707613,-0.33733,-0.727181,-0.578768
1630573707622,-0.337757,-0.727913,-0.578585
1630573707632,-0.337879,-0.7290719999999999,-0.579317
1630573707642,-0.337696,-0.730536,-0.579378
1630573707651,-0.337757,-0.730414,-0.579561
1630573707661,-0.338733,-0.730109,-0.579622
1630573707670,-0.338794,-0.730109,-0.581757
1630573707680,-0.339343,-0.7299869999999999,-0.581757
1630573707690,-0.338672,-0.730658,-0.581574
1630573707699,-0.337635,-0.730536,-0.58194
1630573707709,-0.338367,-0.729865,-0.58072
1630573707718,-0.337269,-0.729133,-0.580354
1630573707728,-0.338001,-0.728035,-0.579439
1630573707738,-0.338123,-0.727974,-0.579012
1630573707747,-0.337025,-0.727669,-0.578646
1630573707757,-0.338062,-0.728035,-0.5795
1630573707766,-0.336964,-0.727425,-0.578402
1630573707776,-0.337147,-0.72773,-0.579195
1630573707786,-0.338123,-0.729133,-0.579439
1630573707795,-0.337818,-0.728218,-0.579134
1630573707805,-0.337696,-0.729499,-0.578707
1630573707814,-0.338062,-0.729011,-0.579195
1630573707824,-0.337269,-0.7290719999999999,-0.57889
1630573707834,-0.336842,-0.7278519999999999,-0.58011
1630573707843,-0.336659,-0.727364,-0.580293
1630573707853,-0.335866,-0.727669,-0.581452
1630573707862,-0.335988,-0.727425,-0.581208
1630573707872,-0.335988,-0.7272419999999999,-0.582245
1630573707882,-0.335439,-0.72712,-0.582306
1630573707891,-0.334768,-0.727303,-0.582062
1630573707901,-0.33488999999999997,-0.728096,-0.582062
1630573707910,-0.33427999999999997,-0.728401,-0.582123
1630573707920,-0.33488999999999997,-0.728523,-0.583038
1630573707930,-0.334341,-0.72834,-0.583709
1630573707939,-0.334036,-0.728279,-0.583343
1630573707949,-0.33458499999999997,-0.7278519999999999,-0.582916
1630573707958,-0.334036,-0.726693,-0.583648
1630573707968,-0.333182,-0.7259,-0.58255
1630573707978,-0.332389,-0.726327,-0.584075
1630573707987,-0.33336499999999997,-0.7275469999999999,-0.584319
1630573707997,-0.333853,-0.72773,-0.5842579999999999
1630573708006,-0.334524,-0.727669,-0.584075
1630573708016,-0.334097,-0.728401,-0.584319
1630573708026,-0.33366999999999997,-0.7287669999999999,-0.5842579999999999
1630573708035,-0.33336499999999997,-0.728828,-0.584502
1630573708045,-0.333304,-0.728828,-0.5839529999999999
1630573708054,-0.333548,-0.729011,-0.583587
1630573708064,-0.333914,-0.727913,-0.584075
1630573708074,-0.334036,-0.728096,-0.583099
1630573708083,-0.33427999999999997,-0.728279,-0.583648
1630573708093,-0.334402,-0.72773,-0.5845629999999999
1630573708102,-0.334707,-0.727913,-0.582977
1630573708112,-0.33397499999999997,-0.7278519999999999,-0.582062
1630573708122,-0.334646,-0.728218,-0.58072
1630573708131,-0.335134,-0.728401,-0.580293
1630573708141,-0.335744,-0.729133,-0.578829
1630573708150,-0.33611,-0.72956,-0.57828
1630573708160,-0.336476,-0.72834,-0.577121
1630573708170,-0.336964,-0.7312069999999999,-0.575962
1630573708179,-0.337208,-0.73261,-0.57462
1630573708189,-0.33672,-0.732061,-0.574864
1630573708198,-0.33733,-0.730719,-0.576328
1630573708208,-0.336232,-0.7290719999999999,-0.577792
1630573708218,-0.335622,-0.729011,-0.580354
1630573708227,-0.335256,-0.730658,-0.582428
1630573708237,-0.335073,-0.730048,-0.581757
1630573708246,-0.33488999999999997,-0.7293769999999999,-0.581147
1630573708256,-0.334646,-0.729255,-0.579988
1630573708266,-0.334524,-0.7290719999999999,-0.580842
1630573708275,-0.334158,-0.727364,-0.580354
1630573708285,-0.334036,-0.727608,-0.581208
1630573708294,-0.334036,-0.727669,-0.58194
1630573708304,-0.33397499999999997,-0.727608,-0.580903
1630573708314,-0.333853,-0.728218,-0.580964
1630573708323,-0.334524,-0.728096,-0.580171
1630573708333,-0.334402,-0.7284619999999999,-0.579683
1630573708342,-0.335012,-0.729133,-0.579256
1630573708352,-0.335012,-0.728035,-0.580659
1630573708362,-0.335927,-0.728706,-0.580171
1630573708371,-0.336476,-0.7287669999999999,-0.581025
1630573708381,-0.336049,-0.728889,-0.581086
1630573708390,-0.336049,-0.728706,-0.580659
1630573708400,-0.33733,-0.728706,-0.580476
1630573708410,-0.336781,-0.728889,-0.580293
1630573708419,-0.338489,-0.728279,-0.579988
1630573708429,-0.33916,-0.7293769999999999,-0.578768
1630573708438,-0.338672,-0.7281569999999999,-0.578219
1630573708448,-0.33794,-0.7309019999999999,-0.577609
1630573708458,-0.33977,-0.7318169999999999,-0.576023
1630573708467,-0.33989199999999997,-0.7305969999999999,-0.575413
1630573708477,-0.338794,-0.729194,-0.574803
1630573708486,-0.338916,-0.727486,-0.575108
1630573708496,-0.338123,-0.726449,-0.576084
1630573708506,-0.337513,-0.727181,-0.577182
1630573708515,-0.33794,-0.7278519999999999,-0.57767
1630573708525,-0.338184,-0.72834,-0.577548
1630573708534,-0.339099,-0.729194,-0.578036
1630573708544,-0.338916,-0.729621,-0.5795
1630573708554,-0.338001,-0.729316,-0.579317
1630573708563,-0.33794,-0.729743,-0.579927
1630573708573,-0.33794,-0.72895,-0.58072
1630573708582,-0.338306,-0.728218,-0.579622
1630573708592,-0.338245,-0.72651,-0.579256
1630573708602,-0.338184,-0.7269369999999999,-0.579256
1630573708611,-0.339038,-0.727913,-0.578707
1630573708621,-0.338611,-0.729011,-0.579317
1630573708630,-0.33855,-0.728645,-0.58011
1630573708640,-0.338306,-0.7290719999999999,-0.580598
1630573708650,-0.339221,-0.72895,-0.581025
1630573708659,-0.338367,-0.728523,-0.582184
1630573708669,-0.338855,-0.72773,-0.582672
1630573708678,-0.339038,-0.727486,-0.583282
1630573708688,-0.338611,-0.727913,-0.583343
1630573708698,-0.338367,-0.7275469999999999,-0.583892
1630573708707,-0.338916,-0.726754,-0.58316
1630573708717,-0.339526,-0.727059,-0.583526
1630573708726,-0.33958699999999997,-0.727486,-0.583648
1630573708736,-0.338611,-0.727364,-0.584197
1630573708746,-0.338428,-0.727486,-0.583038
1630573708755,-0.339526,-0.72773,-0.582245
1630573708765,-0.33855,-0.726876,-0.582123
1630573708774,-0.338367,-0.727059,-0.58194
1630573708784,-0.33855,-0.727181,-0.581025
1630573708794,-0.339404,-0.72651,-0.580598
1630573708803,-0.338062,-0.726388,-0.579988
1630573708813,-0.338794,-0.726022,-0.580232
1630573708822,-0.338123,-0.726327,-0.579622
1630573708832,-0.338306,-0.726022,-0.579378
1630573708842,-0.338062,-0.725839,-0.579744
1630573708851,-0.338916,-0.726266,-0.580049
1630573708861,-0.338794,-0.726632,-0.579805
1630573708870,-0.33855,-0.72651,-0.580293
1630573708880,-0.338184,-0.726998,-0.580415
1630573708890,-0.338062,-0.727181,-0.581696
1630573708899,-0.337757,-0.726754,-0.58194
1630573708909,-0.337757,-0.7269369999999999,-0.581269
1630573708918,-0.337818,-0.72651,-0.580842
1630573708928,-0.33672,-0.726205,-0.581818
1630573708938,-0.336415,-0.725961,-0.581879
1630573708947,-0.336171,-0.725595,-0.583038
1630573708957,-0.336171,-0.725534,-0.583404
1630573708966,-0.336049,-0.725656,-0.584136
1630573708976,-0.335683,-0.724192,-0.585539
1630573708986,-0.335805,-0.724802,-0.585844
1630573708995,-0.335317,-0.726022,-0.586332
1630573709005,-0.336415,-0.726754,-0.587491
1630573709014,-0.336354,-0.72651,-0.587857
1630573709024,-0.337269,-0.726571,-0.587247
1630573709034,-0.336598,-0.726693,-0.586942
1630573709043,-0.337208,-0.726022,-0.5860879999999999
1630573709053,-0.33672,-0.726388,-0.584929
1630573709062,-0.337269,-0.726571,-0.5848679999999999
1630573709072,-0.337452,-0.726022,-0.5842579999999999
1630573709082,-0.337086,-0.727425,-0.584014
1630573709091,-0.337696,-0.727791,-0.584319
1630573709101,-0.337269,-0.72651,-0.583282
1630573709110,-0.336659,-0.726876,-0.582916
1630573709120,-0.338245,-0.727303,-0.581025
1630573709130,-0.337513,-0.728584,-0.580781
1630573709139,-0.338123,-0.729316,-0.579866
1630573709149,-0.337513,-0.728828,-0.578646
1630573709158,-0.33794,-0.726998,-0.578646
1630573709168,-0.337818,-0.725351,-0.5795
1630573709178,-0.33672,-0.725412,-0.580476
1630573709187,-0.336232,-0.727364,-0.582855
1630573709197,-0.336049,-0.729011,-0.584136
1630573709206,-0.336903,-0.7281569999999999,-0.583526
1630573709216,-0.337635,-0.728279,-0.583648
1630573709226,-0.337208,-0.727608,-0.582916
1630573709235,-0.336537,-0.726754,-0.583343
1630573709245,-0.336476,-0.725534,-0.583038
1630573709254,-0.336232,-0.724802,-0.582428
1630573709264,-0.336354,-0.724802,-0.582672
1630573709274,-0.33672,-0.725961,-0.58377
1630573709283,-0.336171,-0.725595,-0.582001
1630573709293,-0.336781,-0.726266,-0.581818
1630573709302,-0.337757,-0.7259,-0.582184
1630573709312,-0.33733,-0.727059,-0.582306
1630573709322,-0.337208,-0.726632,-0.582672
1630573709331,-0.337513,-0.726876,-0.582367
1630573709341,-0.338367,-0.725412,-0.581452
1630573709350,-0.338184,-0.725961,-0.582184
1630573709360,-0.338367,-0.725534,-0.581574
1630573709370,-0.337818,-0.7259,-0.581635
1630573709379,-0.338855,-0.725595,-0.581574
1630573709389,-0.33916,-0.725839,-0.582428
1630573709398,-0.338489,-0.72651,-0.582245
1630573709408,-0.338184,-0.726449,-0.58133
1630573709418,-0.338855,-0.72773,-0.580842
1630573709427,-0.33989199999999997,-0.730048,-0.580598
1630573709437,-0.340014,-0.729926,-0.580049
1630573709446,-0.339465,-0.7290719999999999,-0.580232
1630573709456,-0.339526,-0.727913,-0.579073
1630573709466,-0.338001,-0.725595,-0.580354
1630573709475,-0.337452,-0.725046,-0.580781
1630573709485,-0.337635,-0.724924,-0.581757
1630573709494,-0.337391,-0.726205,-0.582306
1630573709504,-0.338489,-0.727791,-0.582367
1630573709514,-0.337879,-0.727669,-0.582489
1630573709523,-0.337452,-0.728218,-0.583404
1630573709533,-0.337452,-0.7284619999999999,-0.583221
1630573709542,-0.337452,-0.728401,-0.582489
1630573709552,-0.337879,-0.726693,-0.581818
1630573709562,-0.337269,-0.725717,-0.581513
1630573709571,-0.337696,-0.725717,-0.581818
1630573709581,-0.338489,-0.725534,-0.581696
1630573709590,-0.33855,-0.725717,-0.581635
1630573709600,-0.339099,-0.726815,-0.582062
1630573709610,-0.33855,-0.726998,-0.582306
1630573709619,-0.339099,-0.7272419999999999,-0.58194
1630573709629,-0.339038,-0.727364,-0.582672
1630573709638,-0.338672,-0.7275469999999999,-0.582245
1630573709648,-0.338916,-0.7272419999999999,-0.581513
1630573709658,-0.338428,-0.726327,-0.581574
1630573709667,-0.339038,-0.726998,-0.582916
1630573709677,-0.338123,-0.726083,-0.582245
1630573709686,-0.337574,-0.725595,-0.581696
1630573709696,-0.337391,-0.725656,-0.581635
1630573709706,-0.338611,-0.726022,-0.581574
1630573709715,-0.33794,-0.72529,-0.581147
1630573709725,-0.338977,-0.726083,-0.580842
1630573709734,-0.339099,-0.725961,-0.580659
1630573709744,-0.338916,-0.725168,-0.58011
1630573709754,-0.338916,-0.726388,-0.580171
1630573709763,-0.339526,-0.726266,-0.579988
1630573709773,-0.340014,-0.726266,-0.580964
1630573709782,-0.33855,-0.726266,-0.580537
1630573709792,-0.338611,-0.726876,-0.581757
1630573709802,-0.339953,-0.726693,-0.58255
1630573709811,-0.338001,-0.725778,-0.582672
1630573709821,-0.337757,-0.724924,-0.583038
1630573709830,-0.337818,-0.72529,-0.583343
1630573709840,-0.336415,-0.72529,-0.584685
1630573709850,-0.337696,-0.726022,-0.58438
1630573709859,-0.336476,-0.726266,-0.585112
1630573709869,-0.335744,-0.725656,-0.585539
1630573709878,-0.336659,-0.725778,-0.5851729999999999
1630573709888,-0.335927,-0.725778,-0.585051
1630573709898,-0.335866,-0.725778,-0.5857829999999999
1630573709907,-0.336598,-0.725168,-0.585539
1630573709917,-0.335988,-0.725168,-0.585234
1630573709926,-0.336964,-0.725473,-0.584014
1630573709936,-0.336781,-0.724619,-0.584502
1630573709946,-0.337391,-0.725473,-0.585417
1630573709955,-0.336049,-0.724436,-0.584624
1630573709965,-0.336293,-0.724375,-0.585051
1630573709974,-0.335988,-0.725229,-0.5860879999999999
1630573709984,-0.337574,-0.72468,-0.584624
1630573709994,-0.33733,-0.725473,-0.585295
1630573710003,-0.337147,-0.725595,-0.585295
1630573710013,-0.337879,-0.724924,-0.5856
1630573710022,-0.337696,-0.726022,-0.585051
1630573710032,-0.337635,-0.724436,-0.585722
1630573710042,-0.338062,-0.725595,-0.584319
1630573710051,-0.338367,-0.725229,-0.584441
1630573710061,-0.338245,-0.725473,-0.58377
1630573710070,-0.338733,-0.724985,-0.582123
1630573710080,-0.338184,-0.725107,-0.582855
1630573710090,-0.338916,-0.724802,-0.582733
1630573710099,-0.337635,-0.725839,-0.582672
1630573710109,-0.338489,-0.725534,-0.58255
1630573710118,-0.338306,-0.725107,-0.582001
1630573710128,-0.33958699999999997,-0.726571,-0.581513
1630573710138,-0.340929,-0.727669,-0.580354
1630573710147,-0.339648,-0.727913,-0.578158
1630573710157,-0.339099,-0.726754,-0.578585
1630573710166,-0.338306,-0.724375,-0.578097
1630573710176,-0.338001,-0.724741,-0.581086
1630573710186,-0.337635,-0.724802,-0.583099
1630573710195,-0.336903,-0.726266,-0.584197
1630573710205,-0.33733,-0.726388,-0.584624
1630573710214,-0.338001,-0.725107,-0.585844
1630573710224,-0.338062,-0.724436,-0.586027
1630573710234,-0.337818,-0.724497,-0.587125
1630573710243,-0.336171,-0.72346,-0.587369
1630573710253,-0.33672,-0.72285,-0.587552
1630573710262,-0.337452,-0.722545,-0.588955
1630573710272,-0.33733,-0.722789,-0.588406
1630573710282,-0.338245,-0.722972,-0.58743
1630573710291,-0.338245,-0.723948,-0.587369
1630573710301,-0.338672,-0.724558,-0.586637
1630573710310,-0.339038,-0.724619,-0.586576
1630573710320,-0.338489,-0.724741,-0.585356
1630573710330,-0.339953,-0.724741,-0.585112
1630573710339,-0.339526,-0.724741,-0.584746
1630573710349,-0.339526,-0.724497,-0.583892
1630573710358,-0.338916,-0.724253,-0.5839529999999999
1630573710368,-0.340075,-0.723338,-0.583221
1630573710378,-0.34050199999999997,-0.723704,-0.583038
1630573710387,-0.34019699999999997,-0.72407,-0.583221
1630573710397,-0.340136,-0.723826,-0.58255
1630573710406,-0.340868,-0.723948,-0.582733
1630573710416,-0.340624,-0.724253,-0.582428
1630573710426,-0.340929,-0.726388,-0.581757
1630573710435,-0.341478,-0.727181,-0.582245
1630573710445,-0.3416,-0.7278519999999999,-0.581818
1630573710454,-0.340929,-0.72529,-0.580476
1630573710464,-0.339282,-0.723948,-0.579927
1630573710474,-0.33989199999999997,-0.72407,-0.580354
1630573710483,-0.34038,-0.723033,-0.581208
1630573710493,-0.339953,-0.723948,-0.581025
1630573710502,-0.34019699999999997,-0.724924,-0.582306
1630573710512,-0.340014,-0.726144,-0.581879
1630573710522,-0.340319,-0.7259,-0.583221
1630573710531,-0.33977,-0.725961,-0.582977
1630573710541,-0.339709,-0.726205,-0.583709
1630573710550,-0.340319,-0.725656,-0.583709
1630573710560,-0.33958699999999997,-0.725046,-0.5851729999999999
1630573710570,-0.339282,-0.724192,-0.5856
1630573710579,-0.338977,-0.723887,-0.585295
1630573710589,-0.338916,-0.724131,-0.585112
1630573710598,-0.338977,-0.724253,-0.585661
1630573710608,-0.33855,-0.7259,-0.585722
1630573710618,-0.338855,-0.724924,-0.585234
1630573710627,-0.339709,-0.725534,-0.584685
1630573710637,-0.339709,-0.724924,-0.584502
1630573710646,-0.339099,-0.72468,-0.5845629999999999
1630573710656,-0.340014,-0.725168,-0.5845629999999999
1630573710666,-0.33977,-0.725168,-0.584075
1630573710675,-0.340014,-0.724619,-0.584441
1630573710685,-0.340441,-0.724253,-0.585112
1630573710694,-0.34019699999999997,-0.724802,-0.583892
1630573710704,-0.340563,-0.724375,-0.583892
1630573710714,-0.340258,-0.723948,-0.584441
1630573710723,-0.340258,-0.724314,-0.583343
1630573710733,-0.340746,-0.724985,-0.583282
1630573710742,-0.34080699999999997,-0.724131,-0.582611
1630573710752,-0.34050199999999997,-0.724558,-0.581635
1630573710762,-0.3416,-0.724436,-0.58194
1630573710771,-0.340563,-0.723521,-0.58316
1630573710781,-0.34080699999999997,-0.724009,-0.581635
1630573710790,-0.340441,-0.723582,-0.581757
1630573710800,-0.339831,-0.724436,-0.582367
1630573710810,-0.33977,-0.724009,-0.582611
1630573710819,-0.339099,-0.723765,-0.583221
1630573710829,-0.339221,-0.724619,-0.58438
1630573710838,-0.338855,-0.723216,-0.584441
1630573710848,-0.338916,-0.72346,-0.584075
1630573710858,-0.33855,-0.723521,-0.584807
1630573710867,-0.339404,-0.723338,-0.584685
1630573710877,-0.338306,-0.723094,-0.585112
1630573710886,-0.338611,-0.723216,-0.5854779999999999
1630573710896,-0.339038,-0.723765,-0.586332
1630573710906,-0.338123,-0.723826,-0.586637
1630573710915,-0.337574,-0.723887,-0.58621
1630573710925,-0.338245,-0.722972,-0.585966
1630573710934,-0.338428,-0.723948,-0.586271
1630573710944,-0.337635,-0.723765,-0.586637
1630573710954,-0.336964,-0.723826,-0.587186
1630573710963,-0.337269,-0.723582,-0.586759
1630573710973,-0.337574,-0.72346,-0.58621
1630573710982,-0.337757,-0.723948,-0.586576
1630573710992,-0.338306,-0.723582,-0.586637
1630573711002,-0.338001,-0.723826,-0.585356
1630573711011,-0.33855,-0.723399,-0.585966
1630573711021,-0.338855,-0.723155,-0.586759
1630573711030,-0.338184,-0.723094,-0.586576
1630573711040,-0.338611,-0.722484,-0.587735
1630573711050,-0.338855,-0.723033,-0.587796
1630573711059,-0.33916,-0.723338,-0.587186
1630573711069,-0.339465,-0.723582,-0.5876129999999999
1630573711078,-0.339465,-0.723033,-0.587247
1630573711088,-0.339221,-0.723094,-0.5860879999999999
1630573711098,-0.339648,-0.723338,-0.586637
1630573711107,-0.340014,-0.723338,-0.585417
1630573711117,-0.340075,-0.72285,-0.58499
1630573711126,-0.340014,-0.724192,-0.5842579999999999
1630573711136,-0.340075,-0.724436,-0.584075
1630573711146,-0.340563,-0.724436,-0.582489
1630573711155,-0.34038,-0.724314,-0.582306
1630573711165,-0.340624,-0.725961,-0.581452
1630573711174,-0.340624,-0.726693,-0.581086
1630573711184,-0.340624,-0.726327,-0.580049
1630573711194,-0.34038,-0.725656,-0.579378
1630573711203,-0.339953,-0.722484,-0.578402
1630573711213,-0.338733,-0.722362,-0.580781
1630573711222,-0.338062,-0.723704,-0.583526
1630573711232,-0.338367,-0.724192,-0.585905
1630573711242,-0.338489,-0.724863,-0.586149
1630573711251,-0.33855,-0.724192,-0.5860879999999999
1630573711261,-0.338916,-0.724131,-0.586881
1630573711270,-0.338611,-0.724924,-0.587125
1630573711280,-0.338672,-0.723338,-0.5879179999999999
1630573711290,-0.338611,-0.721996,-0.587186
1630573711299,-0.338794,-0.721874,-0.5882229999999999
1630573711309,-0.338916,-0.722179,-0.587796
1630573711318,-0.339343,-0.722423,-0.586149
1630573711328,-0.33989199999999997,-0.722972,-0.586576
1630573711338,-0.340258,-0.72407,-0.585539
1630573711347,-0.33977,-0.724314,-0.584624
1630573711357,-0.34099,-0.723521,-0.584075
1630573711366,-0.340746,-0.724375,-0.583404
1630573711376,-0.340258,-0.724192,-0.583709
1630573711386,-0.339831,-0.723643,-0.583526
1630573711395,-0.339648,-0.722789,-0.5842579999999999
1630573711405,-0.340136,-0.723216,-0.583526
1630573711414,-0.339343,-0.722606,-0.58377
1630573711424,-0.339526,-0.722362,-0.583221
1630573711434,-0.340075,-0.722789,-0.584014
1630573711443,-0.339831,-0.72285,-0.584075
1630573711453,-0.339526,-0.723094,-0.584746
1630573711462,-0.340319,-0.725351,-0.58438
1630573711472,-0.340929,-0.725961,-0.58377
1630573711482,-0.34050199999999997,-0.725839,-0.58377
1630573711491,-0.33977,-0.723765,-0.58377
1630573711501,-0.340075,-0.723765,-0.58377
1630573711510,-0.340563,-0.722545,-0.582916
1630573711520,-0.339343,-0.722728,-0.582733
1630573711530,-0.339709,-0.723399,-0.584014
1630573711539,-0.338489,-0.723887,-0.585234
1630573711549,-0.338855,-0.724619,-0.5854779999999999
1630573711558,-0.33916,-0.724924,-0.5870029999999999
1630573711568,-0.338733,-0.725107,-0.587857
1630573711578,-0.338611,-0.72468,-0.588894
1630573711587,-0.338428,-0.724558,-0.5891379999999999
1630573711597,-0.33855,-0.724558,-0.588345
1630573711606,-0.338489,-0.72346,-0.58743
1630573711616,-0.338306,-0.723704,-0.586027
1630573711626,-0.338184,-0.72407,-0.586027
1630573711635,-0.339526,-0.724802,-0.584929
1630573711645,-0.339038,-0.724253,-0.584685
1630573711654,-0.33916,-0.725168,-0.583282
1630573711664,-0.339526,-0.725168,-0.583404
1630573711674,-0.339465,-0.725107,-0.582977
1630573711683,-0.338977,-0.724741,-0.583831
1630573711693,-0.339404,-0.724192,-0.582794
1630573711702,-0.34019699999999997,-0.724497,-0.582428
1630573711712,-0.340319,-0.723887,-0.582794
1630573711722,-0.340746,-0.724009,-0.58316
1630573711731,-0.340685,-0.724558,-0.582794
1630573711741,-0.340075,-0.724009,-0.582672
1630573711750,-0.341356,-0.725717,-0.583038
1630573711760,-0.34141699999999997,-0.724192,-0.582916
1630573711770,-0.34141699999999997,-0.723765,-0.581696
1630573711779,-0.3416,-0.724558,-0.581635
1630573711789,-0.34172199999999997,-0.725107,-0.581269
1630573711798,-0.340685,-0.723643,-0.581391
1630573711808,-0.34141699999999997,-0.723094,-0.580842
1630573711818,-0.340624,-0.725168,-0.580171
1630573711827,-0.340441,-0.725168,-0.580049
1630573711837,-0.340136,-0.724192,-0.581452
1630573711846,-0.339343,-0.724436,-0.58194
1630573711856,-0.338855,-0.724558,-0.582733
1630573711866,-0.339648,-0.723765,-0.583526
1630573711875,-0.339709,-0.723338,-0.58438
1630573711885,-0.338672,-0.723216,-0.584441
1630573711894,-0.339099,-0.723704,-0.5845629999999999
1630573711904,-0.338367,-0.724009,-0.586332
1630573711914,-0.338794,-0.723887,-0.586332
1630573711923,-0.338489,-0.723948,-0.58621
1630573711933,-0.338184,-0.723704,-0.586515
1630573711942,-0.337696,-0.724436,-0.586454
1630573711952,-0.337269,-0.724802,-0.5866979999999999
1630573711962,-0.337086,-0.724802,-0.586454
1630573711971,-0.337086,-0.72468,-0.586271
1630573711981,-0.337025,-0.724192,-0.586454
1630573711990,-0.337208,-0.723826,-0.586332
1630573712000,-0.337147,-0.72346,-0.586149
1630573712010,-0.336171,-0.722911,-0.586942
1630573712019,-0.336781,-0.723948,-0.586881
1630573712029,-0.337208,-0.723216,-0.587674
1630573712038,-0.337269,-0.724802,-0.5870029999999999
1630573712048,-0.336964,-0.72407,-0.587552
1630573712058,-0.338184,-0.724131,-0.587552
1630573712067,-0.336903,-0.723521,-0.587369
1630573712077,-0.337513,-0.723826,-0.58743
1630573712086,-0.337757,-0.723826,-0.5882229999999999
1630573712096,-0.337208,-0.723765,-0.586759
1630573712106,-0.337208,-0.723704,-0.586942
1630573712115,-0.338001,-0.724009,-0.58682
1630573712125,-0.337208,-0.724863,-0.5866979999999999
1630573712134,-0.338306,-0.724802,-0.5866979999999999
1630573712144,-0.337208,-0.72346,-0.585905
1630573712154,-0.337452,-0.722545,-0.585966
1630573712163,-0.337452,-0.723094,-0.585905
1630573712173,-0.337025,-0.723643,-0.58438
1630573712182,-0.337757,-0.723704,-0.583465
1630573712192,-0.33855,-0.723521,-0.582672
1630573712202,-0.337696,-0.723216,-0.581574
1630573712211,-0.336781,-0.725168,-0.581208
1630573712221,-0.338367,-0.726632,-0.580659
1630573712230,-0.338916,-0.725168,-0.581818
1630573712240,-0.338062,-0.723094,-0.582855
1630573712250,-0.336781,-0.723033,-0.586271
1630573712259,-0.336964,-0.723765,-0.5873079999999999
1630573712269,-0.337086,-0.725107,-0.589016
1630573712278,-0.336842,-0.724619,-0.589626
1630573712288,-0.336537,-0.723155,-0.587979
1630573712298,-0.33611,-0.723216,-0.588101
1630573712307,-0.335927,-0.722301,-0.588406
1630573712317,-0.335012,-0.721691,-0.589321
1630573712326,-0.335622,-0.720471,-0.589382
1630573712336,-0.335195,-0.719983,-0.58926
1630573712346,-0.335317,-0.721447,-0.588772
1630573712355,-0.335561,-0.720532,-0.587857
1630573712365,-0.3355,-0.722057,-0.58865
1630573712374,-0.335988,-0.723094,-0.5888329999999999
1630573712384,-0.337269,-0.724375,-0.587369
1630573712394,-0.337208,-0.722545,-0.587857
1630573712403,-0.337269,-0.722179,-0.587552
1630573712413,-0.337818,-0.72285,-0.586454
1630573712422,-0.338001,-0.723094,-0.586759
1630573712432,-0.337818,-0.723338,-0.5873079999999999
1630573712442,-0.338306,-0.723033,-0.586271
1630573712451,-0.337818,-0.723399,-0.586454
1630573712461,-0.337574,-0.722972,-0.586942
1630573712470,-0.338184,-0.721996,-0.585966
1630573712480,-0.33794,-0.722972,-0.585539
1630573712490,-0.338489,-0.725656,-0.58499
1630573712499,-0.340136,-0.726327,-0.58438
1630573712509,-0.339526,-0.725107,-0.583892
1630573712518,-0.338367,-0.723338,-0.583526
1630573712528,-0.33855,-0.721691,-0.584136
1630573712538,-0.337452,-0.722057,-0.5845629999999999
1630573712547,-0.337086,-0.723033,-0.5845629999999999
1630573712557,-0.33672,-0.723033,-0.586332
1630573712566,-0.33855,-0.724253,-0.586332
1630573712576,-0.338123,-0.724619,-0.586576
1630573712586,-0.338428,-0.726266,-0.586332
1630573712595,-0.338001,-0.725717,-0.5876129999999999
1630573712605,-0.337879,-0.724314,-0.588101
1630573712614,-0.337818,-0.724741,-0.587552
1630573712624,-0.33855,-0.725046,-0.587369
1630573712634,-0.338001,-0.724253,-0.587796
1630573712643,-0.338428,-0.724436,-0.587125
1630573712653,-0.338733,-0.724558,-0.585051
1630573712662,-0.338428,-0.724497,-0.584746
1630573712672,-0.338611,-0.725229,-0.584502
1630573712682,-0.33855,-0.724253,-0.584136
1630573712691,-0.33855,-0.724497,-0.583892
1630573712701,-0.338916,-0.723582,-0.584441
1630573712710,-0.338489,-0.724131,-0.584319
1630573712720,-0.338306,-0.723643,-0.585112
1630573712730,-0.338672,-0.723338,-0.584502
1630573712739,-0.338611,-0.723704,-0.58499
1630573712749,-0.338367,-0.723704,-0.584807
1630573712758,-0.338977,-0.72407,-0.585234
1630573712768,-0.339526,-0.723216,-0.583282
1630573712778,-0.339465,-0.723704,-0.582428
1630573712787,-0.33989199999999997,-0.723216,-0.583099
1630573712797,-0.340014,-0.72346,-0.582428
1630573712806,-0.340075,-0.723582,-0.581696
1630573712816,-0.340319,-0.722911,-0.581635
1630573712826,-0.339282,-0.72346,-0.582733
1630573712835,-0.339343,-0.722301,-0.582794
1630573712845,-0.338489,-0.722728,-0.583404
1630573712854,-0.339221,-0.722118,-0.584502
1630573712864,-0.338977,-0.72163,-0.585051
1630573712874,-0.338916,-0.721386,-0.585234
1630573712883,-0.338672,-0.721508,-0.586759
1630573712893,-0.338123,-0.721691,-0.5873079999999999
1630573712902,-0.337879,-0.721508,-0.588467
1630573712912,-0.33794,-0.722606,-0.58926
1630573712922,-0.337513,-0.722179,-0.590602
1630573712931,-0.337635,-0.721996,-0.590602
1630573712941,-0.337391,-0.722728,-0.5909679999999999
1630573712950,-0.338062,-0.722362,-0.5906629999999999
1630573712960,-0.337513,-0.722179,-0.591151
1630573712970,-0.337086,-0.722545,-0.591334
1630573712979,-0.337208,-0.722057,-0.5912729999999999
1630573712989,-0.336476,-0.72163,-0.591212
1630573712998,-0.335805,-0.721935,-0.591517
1630573713008,-0.335744,-0.721691,-0.591517
1630573713018,-0.335805,-0.721081,-0.591334
1630573713027,-0.336842,-0.720837,-0.5915779999999999
1630573713037,-0.336781,-0.721325,-0.591212
1630573713046,-0.336476,-0.721325,-0.592066
1630573713056,-0.336842,-0.721874,-0.59109
1630573713066,-0.337635,-0.721264,-0.5909679999999999
1630573713075,-0.337025,-0.721447,-0.590602
1630573713085,-0.336781,-0.721996,-0.5891379999999999
1630573713094,-0.337391,-0.722911,-0.588284
1630573713104,-0.337574,-0.722484,-0.5888329999999999
1630573713114,-0.337757,-0.722423,-0.5882229999999999
1630573713123,-0.336964,-0.722362,-0.587491
1630573713133,-0.336781,-0.721691,-0.585905
1630573713142,-0.337513,-0.721752,-0.585844
1630573713152,-0.338794,-0.721813,-0.586271
1630573713162,-0.338489,-0.722545,-0.586027
1630573713171,-0.338184,-0.723033,-0.585905
1630573713181,-0.337574,-0.722972,-0.584624
1630573713190,-0.338672,-0.72346,-0.582245
1630573713200,-0.338428,-0.72529,-0.582245
1630573713210,-0.337574,-0.724924,-0.582123
1630573713219,-0.337513,-0.723887,-0.582062
1630573713229,-0.338184,-0.722301,-0.583587
1630573713238,-0.337513,-0.722972,-0.585234
1630573713248,-0.336537,-0.723765,-0.586576
1630573713258,-0.336476,-0.72407,-0.587857
1630573713267,-0.33672,-0.724375,-0.588101
1630573713277,-0.337025,-0.724131,-0.587674
1630573713286,-0.337086,-0.723399,-0.588162
1630573713296,-0.33733,-0.721935,-0.587979
1630573713306,-0.336781,-0.721325,-0.589504
1630573713315,-0.335622,-0.721264,-0.589931
1630573713325,-0.335988,-0.721142,-0.589565
1630573713334,-0.336293,-0.721081,-0.5897479999999999
1630573713344,-0.336598,-0.72163,-0.588772
1630573713354,-0.336537,-0.72163,-0.589199
1630573713363,-0.336964,-0.722972,-0.589809
1630573713373,-0.337574,-0.721691,-0.588894
1630573713382,-0.338306,-0.721874,-0.58804
1630573713392,-0.339038,-0.721569,-0.588955
1630573713402,-0.338733,-0.723033,-0.588894
1630573713411,-0.339099,-0.721996,-0.5876129999999999
1630573713421,-0.339648,-0.721508,-0.587796
1630573713430,-0.34019699999999997,-0.722179,-0.587125
1630573713440,-0.339831,-0.721691,-0.586576
1630573713450,-0.339465,-0.721386,-0.586027
1630573713459,-0.340136,-0.721996,-0.587064
1630573713469,-0.340014,-0.720288,-0.587064
1630573713478,-0.33958699999999997,-0.72163,-0.585112
1630573713488,-0.339648,-0.724131,-0.58499
1630573713498,-0.340075,-0.724192,-0.584014
1630573713507,-0.341051,-0.722545,-0.584136
1630573713517,-0.341295,-0.721264,-0.584502
1630573713526,-0.340014,-0.720288,-0.5856
1630573713536,-0.340868,-0.719678,-0.58499
1630573713546,-0.340685,-0.720898,-0.5866979999999999
1630573713555,-0.341478,-0.72285,-0.587186
1630573713565,-0.341783,-0.723704,-0.587857
1630573713574,-0.341478,-0.724436,-0.587552
1630573713584,-0.34172199999999997,-0.724619,-0.587369
1630573713594,-0.341844,-0.724314,-0.58804
1630573713603,-0.341234,-0.722667,-0.587491
1630573713613,-0.34038,-0.721813,-0.586942
1630573713622,-0.341051,-0.721142,-0.587186
1630573713632,-0.34080699999999997,-0.721386,-0.586637
1630573713642,-0.339953,-0.721325,-0.586332
1630573713651,-0.34050199999999997,-0.721447,-0.586576
1630573713661,-0.339526,-0.721691,-0.586881
1630573713670,-0.340136,-0.722545,-0.587552
1630573713680,-0.340319,-0.721996,-0.5870029999999999
1630573713690,-0.340441,-0.722972,-0.587674
1630573713699,-0.33977,-0.721508,-0.5882229999999999
1630573713709,-0.340136,-0.72041,-0.588589
1630573713718,-0.339953,-0.720471,-0.5888329999999999
1630573713728,-0.340319,-0.719495,-0.588955
1630573713738,-0.340319,-0.72041,-0.589809
1630573713747,-0.340746,-0.721813,-0.589199
1630573713757,-0.34141699999999997,-0.721264,-0.589626
1630573713766,-0.341966,-0.721386,-0.587674
1630573713776,-0.342088,-0.721386,-0.587796
1630573713786,-0.341783,-0.721813,-0.5863929999999999
1630573713795,-0.341966,-0.721874,-0.585661
1630573713805,-0.342088,-0.722057,-0.585417
1630573713814,-0.342881,-0.721874,-0.584807
1630573713824,-0.34141699999999997,-0.722118,-0.5845629999999999
1630573713834,-0.3416,-0.721996,-0.584807
1630573713843,-0.340624,-0.720837,-0.585539
1630573713853,-0.341051,-0.720898,-0.586576
1630573713862,-0.340075,-0.720166,-0.586454
1630573713872,-0.33958699999999997,-0.720166,-0.586942
1630573713882,-0.339831,-0.720105,-0.588284
1630573713891,-0.33958699999999997,-0.719861,-0.5879179999999999
1630573713901,-0.338916,-0.720044,-0.587796
1630573713910,-0.338428,-0.720776,-0.589077
1630573713920,-0.337452,-0.720532,-0.58865
1630573713930,-0.338062,-0.721508,-0.589687
1630573713939,-0.338794,-0.722362,-0.58926
1630573713949,-0.338245,-0.721386,-0.58987
1630573713958,-0.338489,-0.721996,-0.590175
1630573713968,-0.337513,-0.721508,-0.590114
1630573713978,-0.337086,-0.721325,-0.589931
1630573713987,-0.33672,-0.721752,-0.58987
1630573713997,-0.336293,-0.720837,-0.58987
1630573714006,-0.33611,-0.720837,-0.589504
1630573714016,-0.336171,-0.720654,-0.5891379999999999
1630573714026,-0.336354,-0.720776,-0.590419
1630573714035,-0.336415,-0.721203,-0.589809
1630573714045,-0.335683,-0.721203,-0.590175
1630573714054,-0.33611,-0.721447,-0.5912729999999999
1630573714064,-0.335744,-0.720898,-0.590785
1630573714074,-0.336476,-0.721813,-0.591212
1630573714083,-0.335561,-0.72163,-0.591639
1630573714093,-0.335073,-0.720227,-0.591151
1630573714102,-0.336171,-0.719861,-0.591334
1630573714112,-0.336415,-0.720532,-0.590724
1630573714122,-0.337147,-0.72163,-0.591761
1630573714131,-0.338123,-0.721386,-0.590114
1630573714141,-0.338611,-0.721325,-0.5900529999999999
1630573714150,-0.339648,-0.722118,-0.589199
1630573714160,-0.339099,-0.721874,-0.589016
1630573714170,-0.339282,-0.723094,-0.588772
1630573714179,-0.33989199999999997,-0.723338,-0.587064
1630573714189,-0.33989199999999997,-0.723765,-0.5848679999999999
1630573714198,-0.339526,-0.723582,-0.5842579999999999
1630573714208,-0.340014,-0.723277,-0.583587
1630573714218,-0.339709,-0.722484,-0.583404
1630573714227,-0.338794,-0.720776,-0.583526
1630573714237,-0.338855,-0.720837,-0.5854779999999999
1630573714246,-0.338611,-0.72285,-0.5870029999999999
1630573714256,-0.337818,-0.723094,-0.5882229999999999
1630573714266,-0.338245,-0.723033,-0.589016
1630573714275,-0.337574,-0.722972,-0.589626
1630573714285,-0.337818,-0.722972,-0.589321
1630573714294,-0.33794,-0.723033,-0.5900529999999999
1630573714304,-0.337391,-0.722606,-0.589565
1630573714314,-0.337086,-0.721264,-0.58926
1630573714323,-0.336964,-0.719922,-0.5897479999999999
1630573714333,-0.336049,-0.719434,-0.589626
1630573714342,-0.337086,-0.720227,-0.58865
1630573714352,-0.337208,-0.720593,-0.588772
1630573714362,-0.337269,-0.721508,-0.587735
1630573714371,-0.337513,-0.722728,-0.587979
1630573714381,-0.337879,-0.723216,-0.587186
1630573714390,-0.337635,-0.722667,-0.587491
1630573714400,-0.337574,-0.723765,-0.58682
1630573714410,-0.337574,-0.722301,-0.586942
1630573714419,-0.337086,-0.721691,-0.586332
1630573714429,-0.337208,-0.721386,-0.585417
1630573714438,-0.338001,-0.721447,-0.585966
1630573714448,-0.338306,-0.722057,-0.5856
1630573714458,-0.338977,-0.722301,-0.5851729999999999
1630573714467,-0.33989199999999997,-0.722606,-0.585112
1630573714477,-0.34038,-0.723155,-0.584502
1630573714486,-0.340746,-0.724802,-0.583343
1630573714496,-0.340441,-0.727608,-0.583038
1630573714506,-0.34111199999999997,-0.726266,-0.58377
1630573714515,-0.340746,-0.72529,-0.582855
1630573714525,-0.339953,-0.724009,-0.583221
1630573714534,-0.338916,-0.722606,-0.584197
1630573714544,-0.338062,-0.721203,-0.585356
1630573714554,-0.33916,-0.722057,-0.5854779999999999
1630573714563,-0.338977,-0.723582,-0.586149
1630573714573,-0.33916,-0.724436,-0.587796
1630573714582,-0.339282,-0.723216,-0.587369
1630573714592,-0.338428,-0.724009,-0.587674
1630573714602,-0.338428,-0.724436,-0.587552
1630573714611,-0.338489,-0.724253,-0.586942
1630573714621,-0.33733,-0.723948,-0.5856
1630573714630,-0.337513,-0.72407,-0.585966
1630573714640,-0.338367,-0.72346,-0.586332
1630573714650,-0.337635,-0.723948,-0.586759
1630573714659,-0.336293,-0.723277,-0.585722
1630573714669,-0.336842,-0.723582,-0.586454
1630573714678,-0.337452,-0.723155,-0.58621
1630573714688,-0.337757,-0.723521,-0.585234
1630573714698,-0.337757,-0.723765,-0.5856
1630573714707,-0.338672,-0.723826,-0.587064
1630573714717,-0.338428,-0.723887,-0.5870029999999999
1630573714726,-0.338489,-0.724741,-0.586454
1630573714736,-0.338123,-0.72407,-0.586149
1630573714746,-0.338428,-0.724619,-0.585966
1630573714755,-0.338062,-0.723277,-0.5863929999999999
1630573714765,-0.337696,-0.723033,-0.58621
1630573714774,-0.33855,-0.722545,-0.586027
1630573714784,-0.337208,-0.722179,-0.585234
1630573714794,-0.337696,-0.722667,-0.5851729999999999
1630573714803,-0.337574,-0.722911,-0.584624
1630573714813,-0.337818,-0.723216,-0.5848679999999999
1630573714822,-0.337391,-0.722789,-0.585234
1630573714832,-0.336781,-0.722362,-0.586332
1630573714842,-0.336354,-0.723216,-0.58682
1630573714851,-0.336537,-0.721874,-0.5876129999999999
1630573714861,-0.336781,-0.722057,-0.587186
1630573714870,-0.336781,-0.721203,-0.58804
1630573714880,-0.33672,-0.721874,-0.588894
1630573714890,-0.335805,-0.72163,-0.588894
1630573714899,-0.336415,-0.721813,-0.588894
1630573714909,-0.336232,-0.721691,-0.589626
1630573714918,-0.335988,-0.722423,-0.590724
1630573714928,-0.336476,-0.721447,-0.5909679999999999
1630573714938,-0.336537,-0.721508,-0.590114
1630573714947,-0.336903,-0.721508,-0.589809
1630573714957,-0.336171,-0.721569,-0.589565
1630573714966,-0.336293,-0.720959,-0.59048
1630573714976,-0.3355,-0.721508,-0.5900529999999999
1630573714986,-0.33672,-0.72163,-0.590541
1630573714995,-0.336354,-0.721752,-0.5909679999999999
1630573715005,-0.336476,-0.722301,-0.590236
1630573715014,-0.335744,-0.721813,-0.590236
1630573715024,-0.336171,-0.721447,-0.591334
1630573715034,-0.336903,-0.720593,-0.590846
1630573715043,-0.336537,-0.72041,-0.590907
1630573715053,-0.33672,-0.720776,-0.590724
1630573715062,-0.33672,-0.721386,-0.591212
1630573715072,-0.33672,-0.72102,-0.590724
1630573715082,-0.336964,-0.721874,-0.590236
1630573715091,-0.337696,-0.721447,-0.591029
1630573715101,-0.337391,-0.721386,-0.59048
1630573715110,-0.337574,-0.721447,-0.590297
1630573715120,-0.337452,-0.720898,-0.590541
1630573715130,-0.338306,-0.720959,-0.5900529999999999
1630573715139,-0.337879,-0.721386,-0.5903579999999999
1630573715149,-0.338245,-0.721752,-0.5900529999999999
1630573715158,-0.338306,-0.721508,-0.589199
1630573715168,-0.338916,-0.721813,-0.588894
1630573715178,-0.339282,-0.722423,-0.588772
1630573715187,-0.33916,-0.723582,-0.589382
1630573715197,-0.337879,-0.722911,-0.588101
1630573715206,-0.338611,-0.721874,-0.586637
1630573715216,-0.338672,-0.722301,-0.585966
1630573715226,-0.338611,-0.724009,-0.585722
1630573715235,-0.339526,-0.723826,-0.584624
1630573715245,-0.33916,-0.72346,-0.583404
1630573715254,-0.338672,-0.722911,-0.582855
1630573715264,-0.337574,-0.720654,-0.58255
1630573715274,-0.337757,-0.72102,-0.5839529999999999
1630573715283,-0.337452,-0.722667,-0.58682
1630573715293,-0.338184,-0.723338,-0.587674
1630573715302,-0.338916,-0.72346,-0.588894
1630573715312,-0.339709,-0.723094,-0.58804
1630573715322,-0.338855,-0.721996,-0.588711
1630573715331,-0.338794,-0.722118,-0.589565
1630573715341,-0.338367,-0.721447,-0.590602
1630573715350,-0.338611,-0.7198,-0.590602
1630573715360,-0.33916,-0.7198,-0.590785
1630573715370,-0.338977,-0.721081,-0.589992
1630573715379,-0.33977,-0.721142,-0.5891379999999999
1630573715389,-0.340624,-0.721935,-0.5879179999999999
1630573715398,-0.341173,-0.722362,-0.588589
1630573715408,-0.341051,-0.722972,-0.588406
1630573715418,-0.341539,-0.721996,-0.586881
1630573715427,-0.34141699999999997,-0.721874,-0.586576
1630573715437,-0.34080699999999997,-0.722057,-0.586271
1630573715446,-0.341051,-0.720654,-0.585539
1630573715456,-0.341234,-0.721447,-0.585661
1630573715466,-0.341478,-0.720959,-0.585112
1630573715475,-0.34050199999999997,-0.721203,-0.584441
1630573715485,-0.34050199999999997,-0.721325,-0.584929
1630573715494,-0.34038,-0.721935,-0.584014
1630573715504,-0.34141699999999997,-0.721996,-0.5854779999999999
1630573715514,-0.34111199999999997,-0.72163,-0.5856
1630573715523,-0.34099,-0.723033,-0.584441
1630573715533,-0.341661,-0.724375,-0.585112
1630573715542,-0.34111199999999997,-0.723765,-0.585234
1630573715552,-0.34019699999999997,-0.722728,-0.584685
1630573715562,-0.339221,-0.721264,-0.5845629999999999
1630573715571,-0.338794,-0.72041,-0.585112
1630573715581,-0.338977,-0.719861,-0.5856
1630573715590,-0.338916,-0.721569,-0.58682
1630573715600,-0.339343,-0.723338,-0.587674
1630573715610,-0.339953,-0.723521,-0.58743
1630573715619,-0.338855,-0.722972,-0.5882229999999999
1630573715629,-0.338306,-0.724192,-0.58926
1630573715638,-0.337757,-0.722972,-0.589077
1630573715648,-0.338672,-0.722789,-0.589321
1630573715658,-0.338367,-0.722484,-0.589504
1630573715667,-0.337696,-0.722118,-0.588284
1630573715677,-0.338062,-0.721752,-0.58865
1630573715686,-0.336781,-0.721996,-0.5888329999999999
1630573715696,-0.33794,-0.721935,-0.58865
1630573715706,-0.338001,-0.723094,-0.589016
1630573715715,-0.338306,-0.722911,-0.589199
1630573715725,-0.33855,-0.723155,-0.588589
1630573715734,-0.338062,-0.722606,-0.589016
1630573715744,-0.338794,-0.722972,-0.588284
1630573715754,-0.338733,-0.723216,-0.588772
1630573715763,-0.338794,-0.722484,-0.587979
1630573715773,-0.338855,-0.721691,-0.5873079999999999
1630573715782,-0.339953,-0.721325,-0.58682
1630573715792,-0.340441,-0.72163,-0.586271
1630573715802,-0.340685,-0.721874,-0.585661
1630573715811,-0.340441,-0.72224,-0.584746
1630573715821,-0.33977,-0.722301,-0.5839529999999999
1630573715830,-0.340746,-0.723216,-0.584319
1630573715840,-0.34080699999999997,-0.722484,-0.583587
1630573715850,-0.34111199999999997,-0.722423,-0.584014
1630573715859,-0.340685,-0.722301,-0.584502
1630573715869,-0.340258,-0.722179,-0.584746
1630573715878,-0.340136,-0.722057,-0.5854779999999999
1630573715888,-0.340136,-0.72163,-0.585112
1630573715898,-0.340014,-0.721142,-0.585844
1630573715907,-0.339709,-0.721325,-0.585722
1630573715917,-0.340136,-0.721508,-0.586027
1630573715926,-0.34019699999999997,-0.721325,-0.586454
1630573715936,-0.339831,-0.721691,-0.586942
1630573715946,-0.340258,-0.720471,-0.587186
1630573715955,-0.33989199999999997,-0.720959,-0.586759
1630573715965,-0.339221,-0.720654,-0.587552
1630573715974,-0.338306,-0.720715,-0.588406
1630573715984,-0.338794,-0.721569,-0.588345
1630573715994,-0.338855,-0.721386,-0.588894
1630573716003,-0.338428,-0.721935,-0.589809
1630573716013,-0.338001,-0.721386,-0.589321
1630573716022,-0.338977,-0.721752,-0.58987
1630573716032,-0.338916,-0.721813,-0.589382
1630573716042,-0.338489,-0.720715,-0.589321
1630573716051,-0.338428,-0.721264,-0.58926
1630573716061,-0.339831,-0.721447,-0.589626
1630573716070,-0.339648,-0.720166,-0.5897479999999999
1630573716080,-0.338916,-0.72102,-0.58987
1630573716090,-0.339526,-0.72102,-0.59048
1630573716099,-0.339038,-0.720715,-0.590297
1630573716109,-0.339709,-0.721508,-0.590175
1630573716118,-0.340075,-0.721264,-0.590724
1630573716128,-0.34038,-0.721691,-0.590602
1630573716138,-0.34111199999999997,-0.720776,-0.589992
1630573716147,-0.340319,-0.720776,-0.58987
1630573716157,-0.340258,-0.720654,-0.588284
1630573716166,-0.34019699999999997,-0.720532,-0.5888329999999999
1630573716176,-0.340624,-0.720349,-0.588894
1630573716186,-0.340258,-0.721752,-0.5879179999999999
1630573716195,-0.34038,-0.721508,-0.588162
1630573716205,-0.33958699999999997,-0.722118,-0.588162
1630573716214,-0.34038,-0.720959,-0.586515
1630573716224,-0.340258,-0.721569,-0.586637
1630573716234,-0.339648,-0.722301,-0.586332
1630573716243,-0.34038,-0.721874,-0.5851729999999999
1630573716253,-0.33916,-0.72163,-0.585112
1630573716262,-0.338794,-0.721081,-0.58377
1630573716272,-0.33855,-0.72224,-0.583648
1630573716282,-0.338672,-0.723765,-0.583038
1630573716291,-0.340258,-0.724985,-0.58316
1630573716301,-0.339343,-0.724314,-0.58377
1630573716310,-0.338184,-0.721935,-0.586027
1630573716320,-0.337635,-0.721386,-0.5879179999999999
1630573716330,-0.336598,-0.723033,-0.590114
1630573716339,-0.337391,-0.723094,-0.5906629999999999
1630573716349,-0.337269,-0.723826,-0.590846
1630573716358,-0.337818,-0.723094,-0.590114
1630573716368,-0.336659,-0.723094,-0.589992
1630573716378,-0.336903,-0.722972,-0.590297
1630573716387,-0.337086,-0.722118,-0.589382
1630573716397,-0.336476,-0.721447,-0.589992
1630573716406,-0.335561,-0.72163,-0.591334
1630573716416,-0.334829,-0.723155,-0.593042
1630573716426,-0.334768,-0.723094,-0.592432
1630573716435,-0.334646,-0.723094,-0.592737
1630573716445,-0.333304,-0.722179,-0.592249
1630573716454,-0.33397499999999997,-0.720532,-0.592615
1630573716464,-0.334707,-0.721203,-0.592005
1630573716474,-0.333609,-0.720166,-0.59231
1630573716483,-0.333914,-0.720471,-0.591761
1630573716493,-0.334646,-0.720959,-0.590724
1630573716502,-0.335317,-0.720471,-0.590114
1630573716512,-0.335561,-0.720776,-0.5900529999999999
1630573716522,-0.33733,-0.721447,-0.5891379999999999
1630573716531,-0.336598,-0.722484,-0.5882229999999999
1630573716541,-0.33733,-0.721264,-0.588711
1630573716550,-0.337574,-0.721386,-0.5870029999999999
1630573716560,-0.338916,-0.723094,-0.5851729999999999
1630573716570,-0.339953,-0.725717,-0.584441
1630573716579,-0.340746,-0.724436,-0.58316
1630573716589,-0.340624,-0.723338,-0.582001
1630573716598,-0.34099,-0.721996,-0.581086
1630573716608,-0.339526,-0.721752,-0.580659
1630573716618,-0.340624,-0.721264,-0.580964
1630573716627,-0.340624,-0.722972,-0.580354
1630573716637,-0.341051,-0.723582,-0.581391
1630573716646,-0.341234,-0.724375,-0.582062
1630573716656,-0.342149,-0.7259,-0.581635
1630573716666,-0.342576,-0.725839,-0.580476
1630573716675,-0.341295,-0.726083,-0.580964
1630573716685,-0.341539,-0.724863,-0.582245
1630573716694,-0.34141699999999997,-0.72407,-0.582428
1630573716704,-0.341356,-0.72407,-0.582916
1630573716714,-0.341661,-0.723216,-0.582367
1630573716723,-0.341844,-0.724192,-0.582855
1630573716733,-0.341295,-0.724131,-0.58316
1630573716742,-0.341173,-0.724375,-0.583282
1630573716752,-0.340868,-0.724558,-0.58377
1630573716762,-0.341051,-0.724558,-0.584136
1630573716771,-0.34038,-0.724924,-0.585051
1630573716781,-0.340868,-0.723887,-0.5848679999999999
1630573716790,-0.340624,-0.723399,-0.584746
1630573716800,-0.34141699999999997,-0.722484,-0.584807
1630573716810,-0.341478,-0.722057,-0.5848679999999999
1630573716819,-0.343064,-0.722667,-0.584014
1630573716829,-0.343308,-0.723765,-0.582794
1630573716838,-0.344284,-0.723948,-0.582123
1630573716848,-0.345199,-0.724375,-0.581635
1630573716858,-0.346419,-0.724863,-0.579805
1630573716867,-0.34660199999999997,-0.723582,-0.579317
1630573716877,-0.346724,-0.723216,-0.578646
1630573716886,-0.347029,-0.723155,-0.576999
1630573716896,-0.348676,-0.72224,-0.576206
1630573716906,-0.348005,-0.722789,-0.575962
1630573716915,-0.348676,-0.723887,-0.575535
1630573716925,-0.349652,-0.722545,-0.575474
1630573716934,-0.350933,-0.724619,-0.575474
1630573716944,-0.351299,-0.724253,-0.576084
1630573716954,-0.350689,-0.723643,-0.576877
1630573716963,-0.350811,-0.724436,-0.577304
1630573716973,-0.350811,-0.725046,-0.578158
1630573716982,-0.35014,-0.724863,-0.579561
1630573716992,-0.349652,-0.723765,-0.580476
1630573717002,-0.349042,-0.722911,-0.581574
1630573717011,-0.348615,-0.721996,-0.581574
1630573717021,-0.347578,-0.722362,-0.582062
1630573717030,-0.347578,-0.72163,-0.583526
1630573717040,-0.34709,-0.721569,-0.583099
1630573717050,-0.346846,-0.722362,-0.582672
1630573717059,-0.346419,-0.722423,-0.583099
1630573717069,-0.346846,-0.721264,-0.582428
1630573717078,-0.346968,-0.721386,-0.582672
1630573717088,-0.346541,-0.721508,-0.582611
1630573717098,-0.34721199999999997,-0.721874,-0.58255
1630573717107,-0.34721199999999997,-0.720654,-0.582733
1630573717117,-0.347273,-0.721996,-0.583404
1630573717126,-0.348432,-0.721752,-0.583526
1630573717136,-0.347639,-0.72285,-0.582489
1630573717146,-0.34892,-0.723582,-0.581391
1630573717155,-0.349835,-0.722545,-0.581574
1630573717165,-0.34953,-0.722362,-0.580415
1630573717174,-0.350872,-0.722972,-0.579256
1630573717184,-0.350872,-0.722911,-0.578219
1630573717194,-0.350994,-0.72224,-0.577975
1630573717203,-0.350445,-0.721142,-0.57645
1630573717213,-0.351482,-0.722423,-0.576511
1630573717222,-0.351848,-0.723582,-0.577426
1630573717232,-0.351848,-0.722972,-0.577487
1630573717242,-0.35258,-0.723033,-0.577121
1630573717251,-0.352031,-0.723094,-0.576816
1630573717261,-0.351543,-0.722667,-0.575535
1630573717270,-0.352702,-0.724863,-0.575169
1630573717280,-0.35251899999999997,-0.725656,-0.57584
1630573717290,-0.351116,-0.724131,-0.576633
1630573717299,-0.350262,-0.72224,-0.57828
1630573717309,-0.34953,-0.720593,-0.581025
1630573717318,-0.348859,-0.721996,-0.583404
1630573717328,-0.3477,-0.72163,-0.583709
1630573717338,-0.347578,-0.721935,-0.58499
1630573717347,-0.347029,-0.721996,-0.585661
1630573717357,-0.347334,-0.722545,-0.584136
1630573717366,-0.347883,-0.72163,-0.584807
1630573717376,-0.346785,-0.7198,-0.584075
1630573717386,-0.346724,-0.719495,-0.584136
1630573717395,-0.347334,-0.721081,-0.584319
1630573717405,-0.347029,-0.720837,-0.583526
1630573717414,-0.347761,-0.72041,-0.583709
1630573717424,-0.347944,-0.720593,-0.583526
1630573717434,-0.348066,-0.721142,-0.5839529999999999
1630573717443,-0.349225,-0.720837,-0.583404
1630573717453,-0.349286,-0.721264,-0.582062
1630573717462,-0.350872,-0.72041,-0.581147
1630573717472,-0.350689,-0.719922,-0.58072
1630573717482,-0.35075,-0.720532,-0.580049
1630573717491,-0.351116,-0.719678,-0.579317
1630573717501,-0.352336,-0.720593,-0.578463
1630573717510,-0.35258,-0.721264,-0.576694
1630573717520,-0.352763,-0.721081,-0.576572
1630573717530,-0.352702,-0.721935,-0.576755
1630573717539,-0.35343399999999997,-0.721813,-0.576511
1630573717549,-0.353251,-0.722179,-0.576816
1630573717558,-0.353312,-0.724314,-0.577304
1630573717568,-0.354776,-0.724741,-0.57706
1630573717578,-0.35343399999999997,-0.723338,-0.577121
1630573717587,-0.352275,-0.722118,-0.577243
1630573717597,-0.352397,-0.721325,-0.578036
1630573717606,-0.351726,-0.721142,-0.57889
1630573717616,-0.350262,-0.721081,-0.579561
1630573717626,-0.35014,-0.720776,-0.579561
1630573717635,-0.351421,-0.721874,-0.580476
1630573717645,-0.350872,-0.722911,-0.580781
1630573717654,-0.350628,-0.723704,-0.580903
1630573717664,-0.350628,-0.724131,-0.581391
1630573717674,-0.350872,-0.723155,-0.581269
1630573717683,-0.349896,-0.723948,-0.582367
1630573717693,-0.349652,-0.723094,-0.582489
1630573717702,-0.349408,-0.721996,-0.582245
1630573717712,-0.349896,-0.721996,-0.580964
1630573717722,-0.350079,-0.722301,-0.581696
1630573717731,-0.34953,-0.722484,-0.58072
1630573717741,-0.35014,-0.722789,-0.580476
1630573717750,-0.34953,-0.723582,-0.580415
1630573717760,-0.351421,-0.724131,-0.579805
1630573717770,-0.350628,-0.723338,-0.578646
1630573717779,-0.350506,-0.723094,-0.579012
1630573717789,-0.350811,-0.722057,-0.578768
1630573717798,-0.351787,-0.722301,-0.579378
1630573717808,-0.35136,-0.722118,-0.578585
1630573717818,-0.351543,-0.72224,-0.57767
1630573717827,-0.35197,-0.722484,-0.576816
1630573717837,-0.352092,-0.722179,-0.576206
1630573717846,-0.35190899999999997,-0.723948,-0.575718
1630573717856,-0.352153,-0.723643,-0.575657
1630573717866,-0.352397,-0.722911,-0.575596
1630573717875,-0.352702,-0.72285,-0.575352
1630573717885,-0.352702,-0.722911,-0.575962
1630573717894,-0.35258,-0.722789,-0.575352
1630573717904,-0.351665,-0.722362,-0.575535
1630573717914,-0.351421,-0.722301,-0.576084
1630573717923,-0.351116,-0.722789,-0.57767
1630573717933,-0.350384,-0.722667,-0.577853
1630573717942,-0.349652,-0.72163,-0.578768
1630573717952,-0.348615,-0.721935,-0.580354
1630573717962,-0.348371,-0.72102,-0.579744
1630573717971,-0.348127,-0.721569,-0.581574
1630573717981,-0.3477,-0.721081,-0.582916
1630573717990,-0.347822,-0.722301,-0.584197
1630573718000,-0.346663,-0.721508,-0.584685
1630573718010,-0.346114,-0.722362,-0.58499
1630573718019,-0.34599199999999997,-0.72346,-0.5851729999999999
1630573718029,-0.34526,-0.721813,-0.5845629999999999
1630573718038,-0.34538199999999997,-0.722118,-0.585356
1630573718048,-0.344833,-0.72224,-0.585234
1630573718058,-0.34446699999999997,-0.721264,-0.586454
1630573718067,-0.344711,-0.720898,-0.586576
1630573718077,-0.34465,-0.721569,-0.586454
1630573718086,-0.344528,-0.720715,-0.586881
1630573718096,-0.34465,-0.720776,-0.587247
1630573718106,-0.343491,-0.721081,-0.5873079999999999
1630573718115,-0.344406,-0.720105,-0.5885279999999999
1630573718125,-0.34465,-0.719922,-0.588711
1630573718134,-0.34477199999999997,-0.720471,-0.588101
1630573718144,-0.34416199999999997,-0.720044,-0.587552
1630573718154,-0.345016,-0.72102,-0.587125
1630573718163,-0.344528,-0.720715,-0.587186
1630573718173,-0.345565,-0.720044,-0.585966
1630573718182,-0.344833,-0.720715,-0.585356
1630573718192,-0.345016,-0.720654,-0.585051
1630573718202,-0.345199,-0.720715,-0.584624
1630573718211,-0.345626,-0.719861,-0.585234
1630573718221,-0.34507699999999997,-0.72163,-0.584746
1630573718230,-0.344406,-0.720776,-0.58438
1630573718240,-0.343674,-0.719922,-0.584197
1630573718250,-0.344284,-0.720532,-0.583587
1630573718259,-0.345016,-0.721996,-0.582367
1630573718269,-0.345199,-0.722972,-0.582428
1630573718278,-0.34538199999999997,-0.723277,-0.58133
1630573718288,-0.345016,-0.721142,-0.580293
1630573718298,-0.343674,-0.718702,-0.581757
1630573718307,-0.343308,-0.719678,-0.583099
1630573718317,-0.342271,-0.719983,-0.585539
1630573718326,-0.34263699999999997,-0.720898,-0.587186
1630573718336,-0.342088,-0.720898,-0.587552
1630573718346,-0.342393,-0.720105,-0.58865
1630573718355,-0.342515,-0.720898,-0.589504
1630573718365,-0.342576,-0.719861,-0.5906629999999999
1630573718374,-0.340868,-0.7187629999999999,-0.590724
1630573718384,-0.341234,-0.7175429999999999,-0.592554
1630573718394,-0.341051,-0.71797,-0.592371
1630573718403,-0.3416,-0.7184579999999999,-0.591761
1630573718413,-0.341966,-0.718702,-0.592676
1630573718422,-0.343003,-0.718946,-0.5918829999999999
1630573718432,-0.34282,-0.71919,-0.591395
1630573718442,-0.341844,-0.720227,-0.592066
1630573718451,-0.342698,-0.7198,-0.590602
1630573718461,-0.343491,-0.720166,-0.59048
1630573718470,-0.343979,-0.720715,-0.5894429999999999
1630573718480,-0.34404,-0.719678,-0.589016
1630573718490,-0.344223,-0.7198,-0.588284
1630573718499,-0.344589,-0.719556,-0.587369
1630573718509,-0.343979,-0.719251,-0.586576
1630573718518,-0.343979,-0.719495,-0.5856
1630573718528,-0.344101,-0.719617,-0.5856
1630573718538,-0.344223,-0.719556,-0.58499
1630573718547,-0.34477199999999997,-0.720471,-0.584746
1630573718557,-0.34507699999999997,-0.72102,-0.58377
1630573718566,-0.345748,-0.723094,-0.583343
1630573718576,-0.345504,-0.723094,-0.583099
1630573718586,-0.344406,-0.721813,-0.582306
1630573718595,-0.344894,-0.720227,-0.580781
1630573718605,-0.34465,-0.7198,-0.580293
1630573718614,-0.34404,-0.720166,-0.581757
1630573718624,-0.34416199999999997,-0.719983,-0.582672
1630573718634,-0.344833,-0.720471,-0.582977
1630573718643,-0.345443,-0.721508,-0.583526
1630573718653,-0.344894,-0.722057,-0.58316
1630573718662,-0.344589,-0.723094,-0.58438
1630573718672,-0.344406,-0.722911,-0.585234
1630573718682,-0.342881,-0.722057,-0.586149
1630573718691,-0.342576,-0.721935,-0.586454
1630573718701,-0.343308,-0.720776,-0.587186
1630573718710,-0.342759,-0.720715,-0.5866979999999999
1630573718720,-0.34294199999999997,-0.720715,-0.587369
1630573718730,-0.34233199999999997,-0.721386,-0.58743
1630573718739,-0.34233199999999997,-0.72285,-0.587735
1630573718749,-0.341844,-0.723704,-0.58804
1630573718758,-0.342576,-0.724314,-0.587369
1630573718768,-0.34221,-0.72346,-0.587186
1630573718778,-0.34221,-0.72224,-0.586332
1630573718787,-0.342393,-0.720654,-0.585844
1630573718797,-0.341661,-0.719922,-0.585234
1630573718806,-0.34172199999999997,-0.71919,-0.585417
1630573718816,-0.341783,-0.719922,-0.5860879999999999
1630573718826,-0.342576,-0.721386,-0.586332
1630573718835,-0.34294199999999997,-0.722728,-0.585417
1630573718845,-0.343613,-0.723399,-0.585722
1630573718854,-0.343918,-0.723704,-0.5854779999999999
1630573718864,-0.34416199999999997,-0.723399,-0.584929
1630573718874,-0.34343,-0.722606,-0.584685
1630573718883,-0.342881,-0.722606,-0.58499
1630573718893,-0.343674,-0.721752,-0.5854779999999999
1630573718902,-0.34282,-0.720227,-0.585356
1630573718912,-0.342271,-0.721386,-0.586332
1630573718922,-0.34202699999999997,-0.721081,-0.586454
1630573718931,-0.341356,-0.720776,-0.58621
1630573718941,-0.341783,-0.720532,-0.5856
1630573718950,-0.341905,-0.721386,-0.585661
1630573718960,-0.341539,-0.720959,-0.584685
1630573718970,-0.34111199999999997,-0.720349,-0.5842579999999999
1630573718979,-0.340929,-0.720044,-0.584319
1630573718989,-0.340929,-0.720532,-0.584624
1630573718998,-0.340258,-0.719983,-0.585905
1630573719008,-0.33977,-0.718397,-0.587857
1630573719018,-0.33855,-0.719312,-0.589016
1630573719027,-0.339221,-0.719739,-0.588955
1630573719037,-0.33989199999999997,-0.720288,-0.5900529999999999
1630573719046,-0.340258,-0.720776,-0.589809
1630573719056,-0.338855,-0.721325,-0.59048
1630573719066,-0.339831,-0.722606,-0.589992
1630573719075,-0.339953,-0.721447,-0.590602
1630573719085,-0.338367,-0.721203,-0.591517
1630573719094,-0.338001,-0.719678,-0.592432
1630573719104,-0.337696,-0.719678,-0.592127
1630573719114,-0.337086,-0.719617,-0.592066
1630573719123,-0.337208,-0.7190679999999999,-0.592127
1630573719133,-0.33733,-0.71919,-0.5921879999999999
1630573719142,-0.33733,-0.718702,-0.591456
1630573719152,-0.33733,-0.71797,-0.5915779999999999
1630573719162,-0.338062,-0.719312,-0.592615
1630573719171,-0.338062,-0.720105,-0.592737
1630573719181,-0.338794,-0.72041,-0.592615
1630573719190,-0.338001,-0.7198,-0.592676
1630573719200,-0.337818,-0.719678,-0.592432
1630573719210,-0.339099,-0.720715,-0.592615
1630573719219,-0.338916,-0.720898,-0.592554
1630573719229,-0.338367,-0.7198,-0.5924929999999999
1630573719238,-0.338916,-0.719922,-0.5912729999999999
1630573719248,-0.338184,-0.721081,-0.5918829999999999
1630573719258,-0.338062,-0.72102,-0.591822
1630573719267,-0.338123,-0.719678,-0.58987
1630573719277,-0.338001,-0.719678,-0.589321
1630573719286,-0.338794,-0.72163,-0.587796
1630573719296,-0.338916,-0.72285,-0.58743
1630573719306,-0.338306,-0.721508,-0.585539
1630573719315,-0.337696,-0.720288,-0.584746
1630573719325,-0.337574,-0.7181529999999999,-0.584441
1630573719334,-0.336903,-0.719007,-0.5863929999999999
1630573719344,-0.336415,-0.72041,-0.589077
1630573719354,-0.337635,-0.722301,-0.590236
1630573719363,-0.338062,-0.72224,-0.590846
1630573719373,-0.339282,-0.722179,-0.591517
1630573719382,-0.339404,-0.721569,-0.591639
1630573719392,-0.339038,-0.721386,-0.592432
1630573719402,-0.338794,-0.720166,-0.592249
1630573719411,-0.339099,-0.719556,-0.592249
1630573719421,-0.339648,-0.720593,-0.591212
1630573719430,-0.338611,-0.720837,-0.590419
1630573719440,-0.338489,-0.721142,-0.589992
1630573719450,-0.338672,-0.720593,-0.58926
1630573719459,-0.338123,-0.721447,-0.587552
1630573719469,-0.338062,-0.722789,-0.5879179999999999
1630573719478,-0.338367,-0.720898,-0.587064
1630573719488,-0.33855,-0.720532,-0.587796
1630573719498,-0.338184,-0.720105,-0.587979
1630573719507,-0.338916,-0.719617,-0.586637
1630573719517,-0.339648,-0.7198,-0.587186
1630573719526,-0.339343,-0.7198,-0.586271
1630573719536,-0.340563,-0.721569,-0.586332
1630573719546,-0.34141699999999997,-0.721874,-0.585905
1630573719555,-0.34111199999999997,-0.721142,-0.586332
1630573719565,-0.342088,-0.721935,-0.5856
1630573719574,-0.342454,-0.721813,-0.58499
1630573719584,-0.344223,-0.722484,-0.584075
1630573719594,-0.344284,-0.724619,-0.583343
1630573719603,-0.344833,-0.724436,-0.582123
1630573719613,-0.34507699999999997,-0.722545,-0.580415
1630573719622,-0.345565,-0.721386,-0.580171
1630573719632,-0.34587,-0.720593,-0.580049
1630573719642,-0.345199,-0.720593,-0.581025
1630573719651,-0.34446699999999997,-0.720837,-0.581818
1630573719661,-0.34568699999999997,-0.722484,-0.58316
1630573719670,-0.34587,-0.721996,-0.5842579999999999
1630573719680,-0.34538199999999997,-0.722911,-0.5848679999999999
1630573719690,-0.344894,-0.722301,-0.585844
1630573719699,-0.34507699999999997,-0.721325,-0.586759
1630573719709,-0.344711,-0.720776,-0.586576
1630573719718,-0.344528,-0.719678,-0.5870029999999999
1630573719728,-0.34446699999999997,-0.720898,-0.58743
1630573719738,-0.344711,-0.719983,-0.58743
1630573719747,-0.344406,-0.721386,-0.5873079999999999
1630573719757,-0.344223,-0.721264,-0.587247
1630573719766,-0.343125,-0.72163,-0.588467
1630573719776,-0.343735,-0.722667,-0.5876129999999999
1630573719786,-0.343613,-0.721996,-0.586576
1630573719795,-0.34282,-0.720593,-0.587369
1630573719805,-0.34282,-0.719434,-0.587796
1630573719814,-0.34233199999999997,-0.719312,-0.588345
1630573719824,-0.343064,-0.719251,-0.589016
1630573719834,-0.342515,-0.719312,-0.589321
1630573719843,-0.34263699999999997,-0.719312,-0.588711
1630573719853,-0.343308,-0.719678,-0.588589
1630573719862,-0.34324699999999997,-0.71858,-0.5888329999999999
1630573719872,-0.343064,-0.718885,-0.588101
1630573719882,-0.34324699999999997,-0.719617,-0.587552
1630573719891,-0.34343,-0.720349,-0.586942
1630573719901,-0.34355199999999997,-0.720593,-0.587064
1630573719910,-0.344589,-0.720593,-0.586881
1630573719920,-0.344406,-0.720837,-0.585539
1630573719930,-0.344223,-0.719922,-0.585661
1630573719939,-0.344284,-0.7190679999999999,-0.586027
1630573719949,-0.343003,-0.718946,-0.585722
1630573719958,-0.34416199999999997,-0.719434,-0.586149
1630573719968,-0.34385699999999997,-0.719556,-0.587064
1630573719978,-0.343491,-0.718946,-0.587186
1630573719987,-0.34385699999999997,-0.71858,-0.587247
1630573719997,-0.343003,-0.718641,-0.5876129999999999
1630573720006,-0.34294199999999997,-0.718519,-0.588589
1630573720016,-0.342454,-0.71858,-0.589382
1630573720026,-0.342881,-0.7178479999999999,-0.589626
1630573720035,-0.341966,-0.718397,-0.589382
1630573720045,-0.341234,-0.71919,-0.5897479999999999
1630573720054,-0.341844,-0.717726,-0.590175
1630573720064,-0.341234,-0.71797,-0.5900529999999999
1630573720074,-0.34141699999999997,-0.717177,-0.5903579999999999
1630573720083,-0.341905,-0.7169329999999999,-0.590419
1630573720093,-0.341356,-0.717177,-0.590724
1630573720102,-0.340624,-0.716994,-0.591334
1630573720112,-0.341173,-0.718214,-0.5918829999999999
1630573720122,-0.341478,-0.718641,-0.591395
1630573720131,-0.340929,-0.718031,-0.593164
1630573720141,-0.341295,-0.718519,-0.593652
1630573720150,-0.34099,-0.7181529999999999,-0.593286
1630573720160,-0.341051,-0.717726,-0.59292
1630573720170,-0.340136,-0.718214,-0.5931029999999999
1630573720179,-0.340746,-0.71858,-0.5924929999999999
1630573720189,-0.341966,-0.719251,-0.592432
1630573720198,-0.340624,-0.71919,-0.592371
1630573720208,-0.34221,-0.719007,-0.591822
1630573720218,-0.341783,-0.719983,-0.591761
1630573720227,-0.34172199999999997,-0.7190679999999999,-0.590907
1630573720237,-0.3416,-0.719007,-0.59048
1630573720246,-0.341905,-0.718824,-0.5897479999999999
1630573720256,-0.34111199999999997,-0.7198,-0.5888329999999999
1630573720266,-0.34172199999999997,-0.719495,-0.587186
1630573720275,-0.34221,-0.718519,-0.585356
1630573720285,-0.341783,-0.7187629999999999,-0.584197
1630573720294,-0.342759,-0.721752,-0.582489
1630573720304,-0.343735,-0.723216,-0.582367
1630573720314,-0.34416199999999997,-0.722545,-0.582977
1630573720323,-0.34465,-0.720776,-0.5842579999999999
1630573720333,-0.34324699999999997,-0.720471,-0.586027
1630573720342,-0.343125,-0.721508,-0.587552
1630573720352,-0.343003,-0.721996,-0.58865
1630573720362,-0.34385699999999997,-0.721264,-0.5885279999999999
1630573720371,-0.34385699999999997,-0.721386,-0.589016
1630573720381,-0.343491,-0.720959,-0.58865
1630573720390,-0.343186,-0.7190679999999999,-0.588772
1630573720400,-0.34233199999999997,-0.718641,-0.5882229999999999
1630573720410,-0.342393,-0.7190679999999999,-0.588589
1630573720419,-0.341478,-0.718275,-0.588284
1630573720429,-0.340868,-0.718336,-0.587796
1630573720438,-0.340014,-0.719312,-0.586332
1630573720448,-0.34080699999999997,-0.718824,-0.586576
1630573720458,-0.341844,-0.719922,-0.586271
1630573720467,-0.34141699999999997,-0.720166,-0.586454
1630573720477,-0.341478,-0.720105,-0.585844
1630573720486,-0.34111199999999997,-0.720898,-0.5856
1630573720496,-0.341539,-0.720959,-0.585722
1630573720506,-0.34172199999999997,-0.721325,-0.586332
1630573720515,-0.34221,-0.722118,-0.585417
1630573720525,-0.342149,-0.722057,-0.58499
1630573720534,-0.342515,-0.723033,-0.584746
1630573720544,-0.342393,-0.722362,-0.584624
1630573720554,-0.34282,-0.722728,-0.584807
1630573720563,-0.34172199999999997,-0.721996,-0.584746
1630573720573,-0.340929,-0.722057,-0.583343
1630573720582,-0.34172199999999997,-0.724375,-0.583282
1630573720592,-0.340868,-0.723216,-0.582855
1630573720602,-0.339953,-0.721874,-0.582916
1630573720611,-0.33916,-0.721935,-0.582977
1630573720621,-0.338794,-0.721264,-0.584014
1630573720630,-0.338062,-0.722179,-0.585234
1630573720640,-0.337696,-0.722301,-0.585356
1630573720650,-0.33855,-0.72346,-0.5860879999999999
1630573720659,-0.339099,-0.724619,-0.58682
1630573720669,-0.33855,-0.726022,-0.5879179999999999
1630573720678,-0.338489,-0.726083,-0.588711
1630573720688,-0.338367,-0.725412,-0.589687
1630573720698,-0.338794,-0.724131,-0.5900529999999999
1630573720707,-0.338184,-0.723216,-0.59048
1630573720717,-0.338306,-0.721752,-0.589504
1630573720726,-0.337879,-0.721508,-0.5888329999999999
1630573720736,-0.338855,-0.720898,-0.589016
1630573720746,-0.338245,-0.721996,-0.588101
1630573720755,-0.338794,-0.722728,-0.586759
1630573720765,-0.339831,-0.722911,-0.587857
1630573720774,-0.339953,-0.722362,-0.586332
1630573720784,-0.33989199999999997,-0.723338,-0.587064
1630573720794,-0.340929,-0.722911,-0.586027
1630573720803,-0.340258,-0.723521,-0.586576
1630573720813,-0.34050199999999997,-0.72163,-0.586576
1630573720822,-0.340014,-0.722057,-0.5873079999999999
1630573720832,-0.340685,-0.721996,-0.587735
1630573720842,-0.34038,-0.721264,-0.587125
1630573720851,-0.34038,-0.721874,-0.587186
1630573720861,-0.339648,-0.721935,-0.5870029999999999
1630573720870,-0.340319,-0.721386,-0.585539
1630573720880,-0.33989199999999997,-0.721325,-0.585966
1630573720890,-0.339953,-0.721203,-0.585356
1630573720899,-0.339404,-0.721569,-0.585356
1630573720909,-0.339282,-0.72163,-0.585051
1630573720918,-0.339404,-0.721386,-0.5848679999999999
1630573720928,-0.33794,-0.721081,-0.585356
1630573720938,-0.339038,-0.720959,-0.585844
1630573720947,-0.338001,-0.720227,-0.585722
1630573720957,-0.338794,-0.720532,-0.5857829999999999
1630573720966,-0.338367,-0.720654,-0.586271
1630573720976,-0.338001,-0.72041,-0.587247
1630573720986,-0.33794,-0.720166,-0.588467
1630573720995,-0.337513,-0.720715,-0.58926
1630573721005,-0.338062,-0.720715,-0.589687
1630573721014,-0.338123,-0.719678,-0.589016
1630573721024,-0.337574,-0.719922,-0.58987
1630573721034,-0.337086,-0.719983,-0.590602
1630573721043,-0.33733,-0.719922,-0.590846
1630573721053,-0.337513,-0.720166,-0.590419
1630573721062,-0.337452,-0.719861,-0.590907
1630573721072,-0.338306,-0.718824,-0.5915779999999999
1630573721082,-0.337818,-0.71858,-0.5917
1630573721091,-0.338733,-0.720532,-0.5918829999999999
1630573721101,-0.338733,-0.719861,-0.592615
1630573721110,-0.338794,-0.718946,-0.593042
1630573721120,-0.338245,-0.720288,-0.594384
1630573721130,-0.338306,-0.719739,-0.5934079999999999
1630573721139,-0.338977,-0.719739,-0.59353
1630573721149,-0.33977,-0.719617,-0.593591
1630573721158,-0.340136,-0.720471,-0.591944
1630573721168,-0.340014,-0.720044,-0.591334
1630573721178,-0.340014,-0.720349,-0.591395
1630573721187,-0.33916,-0.720105,-0.591151
1630573721197,-0.339648,-0.720166,-0.590236
1630573721206,-0.339648,-0.719983,-0.590419
1630573721216,-0.339282,-0.718275,-0.589809
1630573721226,-0.33916,-0.71919,-0.588589
1630573721235,-0.34038,-0.719678,-0.58743
1630573721245,-0.340136,-0.720776,-0.5866979999999999
1630573721254,-0.341051,-0.721508,-0.586271
1630573721264,-0.340624,-0.72285,-0.5854779999999999
1630573721274,-0.341356,-0.721142,-0.585295
1630573721283,-0.34038,-0.720166,-0.585966
1630573721293,-0.340136,-0.719739,-0.589016
1630573721302,-0.339343,-0.721508,-0.590724
1630573721312,-0.339404,-0.721691,-0.5915779999999999
1630573721322,-0.340136,-0.72102,-0.590724
1630573721331,-0.339648,-0.720105,-0.591029
1630573721341,-0.339709,-0.7198,-0.5897479999999999
1630573721350,-0.339343,-0.719922,-0.590236
1630573721360,-0.33916,-0.718031,-0.590419
1630573721370,-0.339099,-0.718885,-0.58987
1630573721379,-0.339038,-0.719922,-0.59109
1630573721389,-0.338916,-0.719678,-0.590541
1630573721398,-0.338611,-0.71919,-0.58987
1630573721408,-0.33916,-0.7190679999999999,-0.5891379999999999
1630573721418,-0.338733,-0.71919,-0.589077
1630573721427,-0.338733,-0.7198,-0.588467
1630573721437,-0.338245,-0.72041,-0.5900529999999999
1630573721446,-0.338428,-0.719312,-0.590602
1630573721456,-0.338123,-0.718885,-0.5900529999999999
1630573721466,-0.338733,-0.719678,-0.59048
1630573721475,-0.338855,-0.719251,-0.590541
1630573721485,-0.33855,-0.719739,-0.590419
1630573721494,-0.339526,-0.720593,-0.589382
1630573721504,-0.340258,-0.719861,-0.589687
1630573721514,-0.339526,-0.719739,-0.5900529999999999
1630573721523,-0.339465,-0.719922,-0.588711
1630573721533,-0.34050199999999997,-0.721569,-0.588467
1630573721542,-0.341234,-0.724131,-0.588467
1630573721552,-0.341173,-0.72285,-0.5879179999999999
1630573721562,-0.34050199999999997,-0.721325,-0.587552
1630573721571,-0.340441,-0.720166,-0.587796
1630573721581,-0.339404,-0.719861,-0.58804
1630573721590,-0.338916,-0.718824,-0.5885279999999999
1630573721600,-0.338977,-0.720105,-0.588589
1630573721610,-0.339343,-0.720593,-0.5888329999999999
1630573721619,-0.34019699999999997,-0.720959,-0.589321
1630573721629,-0.339343,-0.722179,-0.589077
1630573721638,-0.33989199999999997,-0.722301,-0.588711
1630573721648,-0.339709,-0.722362,-0.590724
1630573721658,-0.338672,-0.721935,-0.590541
1630573721667,-0.337879,-0.721569,-0.58987
1630573721677,-0.337818,-0.720044,-0.589931
1630573721686,-0.33794,-0.719495,-0.589992
1630573721696,-0.337879,-0.7198,-0.589931
1630573721706,-0.337757,-0.720715,-0.588345
1630573721715,-0.338245,-0.721813,-0.588467
1630573721725,-0.338489,-0.721264,-0.588894
1630573721734,-0.338611,-0.721569,-0.588467
1630573721744,-0.338672,-0.721325,-0.588955
1630573721754,-0.338306,-0.721081,-0.5891379999999999
1630573721763,-0.339404,-0.721142,-0.589504
1630573721773,-0.338672,-0.72041,-0.589504
1630573721782,-0.338489,-0.720349,-0.5906629999999999
1630573721792,-0.339038,-0.720898,-0.589931
1630573721802,-0.338062,-0.719861,-0.588955
1630573721811,-0.338184,-0.719739,-0.589016
1630573721821,-0.33855,-0.720227,-0.588284
1630573721830,-0.33916,-0.720288,-0.588772
1630573721840,-0.338672,-0.720044,-0.588772
1630573721850,-0.338672,-0.720654,-0.589504
1630573721859,-0.339526,-0.720776,-0.588772
1630573721869,-0.338794,-0.720288,-0.5882229999999999
1630573721878,-0.338428,-0.720349,-0.589077
1630573721888,-0.33794,-0.719739,-0.589321
1630573721898,-0.337818,-0.719739,-0.589992
1630573721907,-0.338489,-0.720227,-0.5903579999999999
1630573721917,-0.33794,-0.72041,-0.589382
1630573721926,-0.338611,-0.718702,-0.58987
1630573721936,-0.33794,-0.719312,-0.591517
1630573721946,-0.338184,-0.718946,-0.5918829999999999
1630573721955,-0.336903,-0.719251,-0.592005
1630573721965,-0.337147,-0.71919,-0.5927979999999999
1630573721974,-0.337086,-0.719434,-0.593286
1630573721984,-0.337208,-0.720288,-0.593347
1630573721994,-0.33794,-0.720776,-0.592859
1630573722003,-0.338062,-0.719739,-0.5921879999999999
1630573722013,-0.337574,-0.719312,-0.592005
1630573722022,-0.337818,-0.719861,-0.5918829999999999
1630573722032,-0.33733,-0.719129,-0.591212
1630573722042,-0.337452,-0.719007,-0.591517
1630573722051,-0.337025,-0.718519,-0.591029
1630573722061,-0.336903,-0.718092,-0.5921879999999999
1630573722070,-0.336537,-0.718946,-0.5924929999999999
1630573722080,-0.336415,-0.719617,-0.592615
1630573722090,-0.338001,-0.718702,-0.592981
1630573722099,-0.337513,-0.720105,-0.593286
1630573722109,-0.337208,-0.719556,-0.59292
1630573722118,-0.337574,-0.720227,-0.59231
1630573722128,-0.338001,-0.71919,-0.5915779999999999
1630573722138,-0.337208,-0.719678,-0.5912729999999999
1630573722147,-0.337391,-0.719922,-0.590846
1630573722157,-0.338367,-0.720044,-0.590602
1630573722166,-0.338062,-0.720776,-0.590541
1630573722176,-0.338428,-0.720715,-0.59048
1630573722186,-0.337818,-0.720349,-0.590175
1630573722195,-0.337452,-0.720593,-0.590297
1630573722205,-0.33794,-0.719678,-0.5891379999999999
1630573722214,-0.337269,-0.71919,-0.589626
1630573722224,-0.338672,-0.7198,-0.588467
1630573722234,-0.338733,-0.721569,-0.5885279999999999
1630573722243,-0.339404,-0.722484,-0.587247
1630573722253,-0.338672,-0.723521,-0.586149
1630573722262,-0.339099,-0.721325,-0.5860879999999999
1630573722272,-0.338428,-0.719678,-0.58621
1630573722282,-0.338184,-0.720044,-0.588101
1630573722291,-0.337757,-0.720715,-0.590297
1630573722301,-0.337452,-0.721752,-0.591029
1630573722310,-0.337879,-0.721508,-0.5918829999999999
1630573722320,-0.337757,-0.721203,-0.591822
1630573722330,-0.338428,-0.720532,-0.591395
1630573722339,-0.337574,-0.720898,-0.5912729999999999
1630573722349,-0.337513,-0.719678,-0.592066
1630573722358,-0.337208,-0.719129,-0.592676
1630573722368,-0.33733,-0.719129,-0.592737
1630573722378,-0.337452,-0.719678,-0.592432
1630573722387,-0.338184,-0.7190679999999999,-0.5921879999999999
1630573722397,-0.33855,-0.719739,-0.592066
1630573722406,-0.33733,-0.720166,-0.5906629999999999
1630573722416,-0.338489,-0.720776,-0.5906629999999999
1630573722426,-0.338794,-0.720898,-0.590602
1630573722435,-0.338916,-0.719495,-0.589809
1630573722445,-0.338733,-0.7198,-0.589992
1630573722454,-0.338428,-0.720471,-0.5900529999999999
1630573722464,-0.338672,-0.719678,-0.5897479999999999
1630573722474,-0.338306,-0.719617,-0.588589
1630573722483,-0.338306,-0.719739,-0.589077
1630573722493,-0.337452,-0.720532,-0.588894
1630573722502,-0.338916,-0.720471,-0.589382
1630573722512,-0.338489,-0.720166,-0.588955
1630573722522,-0.338428,-0.720105,-0.589016
1630573722531,-0.337879,-0.72224,-0.587735
1630573722541,-0.338672,-0.723765,-0.587979
1630573722550,-0.33916,-0.722484,-0.587674
1630573722560,-0.338367,-0.721752,-0.587674
1630573722570,-0.33794,-0.720105,-0.587125
1630573722579,-0.338367,-0.719007,-0.587247
1630573722589,-0.338001,-0.7187629999999999,-0.588772
1630573722598,-0.336842,-0.7198,-0.588955
1630573722608,-0.337452,-0.721813,-0.589565
1630573722618,-0.338001,-0.722545,-0.590602
1630573722627,-0.337696,-0.722728,-0.590541
1630573722637,-0.33794,-0.72224,-0.591212
1630573722646,-0.338001,-0.721386,-0.591456
1630573722656,-0.337269,-0.72102,-0.590236
1630573722666,-0.337879,-0.720166,-0.591334
1630573722675,-0.337208,-0.720715,-0.590236
1630573722685,-0.337086,-0.72041,-0.590419
1630573722694,-0.337452,-0.720776,-0.590785
1630573722704,-0.337818,-0.721325,-0.590419
1630573722714,-0.337879,-0.72163,-0.590724
1630573722723,-0.336903,-0.721203,-0.590297
1630573722733,-0.337391,-0.721813,-0.590724
1630573722742,-0.338306,-0.721508,-0.59109
1630573722752,-0.337879,-0.721447,-0.591029
1630573722762,-0.337208,-0.720288,-0.591761
1630573722771,-0.336659,-0.720898,-0.590236
1630573722781,-0.336842,-0.721081,-0.591456
1630573722790,-0.336842,-0.720593,-0.591212
1630573722800,-0.336903,-0.720471,-0.5906629999999999
1630573722810,-0.337391,-0.719251,-0.590236
1630573722819,-0.337879,-0.7198,-0.589626
1630573722829,-0.337452,-0.719861,-0.589382
1630573722838,-0.338489,-0.720166,-0.588162
1630573722848,-0.337818,-0.720471,-0.587979
1630573722858,-0.338062,-0.720532,-0.588345
1630573722867,-0.337879,-0.721142,-0.589382
1630573722877,-0.338733,-0.720837,-0.588711
1630573722886,-0.338672,-0.720715,-0.588772
1630573722896,-0.337818,-0.720166,-0.589382
1630573722906,-0.338001,-0.720349,-0.588894
1630573722915,-0.338001,-0.720227,-0.5903579999999999
1630573722925,-0.336781,-0.720776,-0.591151
1630573722934,-0.336781,-0.720532,-0.590602
1630573722944,-0.335927,-0.719617,-0.5912729999999999
1630573722954,-0.335988,-0.718885,-0.591212
1630573722963,-0.336598,-0.719556,-0.591944
1630573722973,-0.334951,-0.719861,-0.5921879999999999
1630573722982,-0.335622,-0.7190679999999999,-0.592005
1630573722992,-0.33488999999999997,-0.719129,-0.591395
1630573723002,-0.334402,-0.719495,-0.591822
1630573723011,-0.33458499999999997,-0.7198,-0.592066
1630573723021,-0.335622,-0.719617,-0.5927979999999999
1630573723030,-0.335378,-0.720532,-0.592066
1630573723040,-0.336415,-0.720776,-0.5924929999999999
1630573723050,-0.335988,-0.719861,-0.592554
1630573723059,-0.335744,-0.719434,-0.593957
1630573723069,-0.335866,-0.719373,-0.593469
1630573723078,-0.335744,-0.7190679999999999,-0.5943229999999999
1630573723088,-0.336476,-0.7190679999999999,-0.593469
1630573723098,-0.33611,-0.719434,-0.593835
1630573723107,-0.335927,-0.7198,-0.593896
1630573723117,-0.336476,-0.719861,-0.594445
1630573723126,-0.336293,-0.719434,-0.59414
1630573723136,-0.335805,-0.719251,-0.593957
1630573723146,-0.33611,-0.719251,-0.594262
1630573723155,-0.336293,-0.719556,-0.59353
1630573723165,-0.336903,-0.718702,-0.592432
1630573723174,-0.33611,-0.719739,-0.59231
1630573723184,-0.335927,-0.720044,-0.592432
1630573723194,-0.336354,-0.718946,-0.59231
1630573723203,-0.337208,-0.720532,-0.5921879999999999
1630573723213,-0.336293,-0.720227,-0.591822
1630573723222,-0.336476,-0.719861,-0.590602
1630573723232,-0.337086,-0.719983,-0.589382
1630573723242,-0.339282,-0.721142,-0.5882229999999999
1630573723251,-0.33916,-0.723155,-0.587857
1630573723261,-0.338428,-0.721935,-0.587125
1630573723270,-0.338367,-0.721386,-0.585661
1630573723280,-0.338428,-0.720044,-0.585112
1630573723290,-0.33733,-0.7181529999999999,-0.587247
1630573723299,-0.337086,-0.719617,-0.588772
1630573723309,-0.33733,-0.720349,-0.589504
1630573723318,-0.336903,-0.721203,-0.5909679999999999
1630573723328,-0.336659,-0.720715,-0.591639
1630573723338,-0.337269,-0.7190679999999999,-0.593225
1630573723347,-0.337147,-0.719007,-0.594506
1630573723357,-0.337086,-0.717604,-0.593896
1630573723366,-0.336171,-0.71797,-0.594262
1630573723376,-0.336354,-0.717482,-0.594872
1630573723386,-0.335927,-0.717482,-0.5952379999999999
1630573723395,-0.336354,-0.7178479999999999,-0.594201
1630573723405,-0.337574,-0.71797,-0.5924929999999999
1630573723414,-0.338123,-0.71919,-0.592554
1630573723424,-0.339221,-0.720105,-0.591639
