timestamp,ax,ay,az
1629724976216,-0.384422,-0.546011,0.747189
1629724976226,-0.387167,-0.5465599999999999,0.746823
1629724976235,-0.38734999999999997,-0.549244,0.747616
1629724976245,-0.387533,-0.552538,0.748897
1629724976255,-0.388753,-0.553209,0.7509709999999999
1629724976264,-0.387594,-0.552355,0.754997
1629724976274,-0.386984,-0.550281,0.75701
1629724976283,-0.386557,-0.547353,0.759999
1629724976293,-0.384788,-0.544974,0.7607309999999999
1629724976303,-0.385459,-0.542473,0.760548
1629724976312,-0.386069,-0.541924,0.761158
1629724976322,-0.385825,-0.542351,0.760304
1629724976331,-0.386923,-0.541436,0.759572
1629724976341,-0.38978999999999997,-0.540582,0.761524
1629724976351,-0.389851,-0.539911,0.7625
1629724976360,-0.387594,-0.538691,0.762988
1629724976370,-0.389424,-0.535214,0.763964
1629724976379,-0.388692,-0.534665,0.7637809999999999
1629724976389,-0.389119,-0.534299,0.765245
1629724976399,-0.389729,-0.53253,0.763903
1629724976408,-0.390217,-0.53253,0.76311
1629724976418,-0.390888,-0.532286,0.763842
1629724976427,-0.392047,-0.531127,0.763964
1629724976437,-0.393511,-0.529907,0.763659
1629724976447,-0.39405999999999997,-0.529663,0.7650009999999999
1629724976456,-0.39436499999999997,-0.529053,0.7656109999999999
1629724976466,-0.396073,-0.52704,0.76616
1629724976475,-0.396805,-0.525637,0.76677
1629724976485,-0.395524,-0.5240509999999999,0.766953
1629724976495,-0.39497499999999997,-0.521184,0.766709
1629724976504,-0.394121,-0.517768,0.765977
1629724800003,-0.798002,-0.560956,0.015493999999999999
1629724800012,-0.7902549999999999,-0.569252,0.015006
1629724800022,-0.774761,-0.574742,0.023241
1629724800032,-0.748165,-0.578951,0.039406
1629724800041,-0.721569,-0.590846,0.058926
1629724800051,-0.705282,-0.615673,0.069235
1629724800060,-0.692655,-0.6390359999999999,0.078019
1629724800070,-0.676063,-0.6466,0.089487
1629724800080,-0.667279,-0.652029,0.100467
1629724800089,-0.665022,-0.658068,0.105896
1629724800099,-0.657031,-0.6591049999999999,0.107055
1629724800108,-0.653554,-0.658983,0.093696
1629724800118,-0.656177,-0.661118,0.072712
1629724800128,-0.6639849999999999,-0.666303,0.047945999999999996
1629724800137,-0.673684,-0.670634,0.025742
1629724800147,-0.6861889999999999,-0.67344,0.0044529999999999995
1629724800156,-0.698145,-0.670512,-0.01647
1629724800166,-0.713212,-0.6630699999999999,-0.033549999999999996
1629724800176,-0.729011,-0.654652,-0.046482
1629724800185,-0.744322,-0.644953,-0.053314
1629724800195,-0.757742,-0.6369009999999999,-0.059231
1629724800204,-0.769393,-0.626958,-0.062037
1629724800214,-0.781837,-0.617686,-0.062525
1629724800224,-0.796294,-0.61244,-0.061061
1629724800233,-0.810263,-0.604998,-0.059597
1629724800243,-0.820572,-0.594689,-0.058377
1629724800252,-0.826367,-0.578219,-0.057034999999999995
1629724800262,-0.833382,-0.560468,-0.058621
1629724800272,-0.842715,-0.544974,-0.060756
1629724800281,-0.850279,-0.53436,-0.057096
1629724800291,-0.8596119999999999,-0.529114,-0.05002
1629724800300,-0.874435,-0.530517,-0.043798
1629724800310,-0.8860859999999999,-0.526857,-0.037515
1629724800320,-0.893894,-0.5191709999999999,-0.031842
1629724800329,-0.8966999999999999,-0.50691,-0.02562
1629724800339,-0.897432,-0.4941,-0.021594
1629724800348,-0.8951749999999999,-0.481961,-0.016165
1629724800358,-0.894382,-0.47299399999999997,-0.012565999999999999
1629724800368,-0.8991399999999999,-0.469334,-0.013237
1629724800377,-0.907436,-0.471957,-0.014395999999999999
1629724800387,-0.910547,-0.47604399999999997,-0.0073809999999999995
1629724800396,-0.9055449999999999,-0.47519,0.0025009999999999998
1629724800406,-0.900848,-0.469822,0.010492
1629724800416,-0.897188,-0.46738199999999996,0.018727
1629724800425,-0.895419,-0.465003,0.024156
1629724800435,-0.902922,-0.465735,0.024217
1629724800444,-0.909388,-0.471347,0.022326
1629724800454,-0.9125599999999999,-0.472506,0.020618
1629724800464,-0.913841,-0.472445,0.018788
1629724800473,-0.916159,-0.471652,0.016714
1629724800483,-0.915061,-0.469151,0.018666
1629724800492,-0.911401,-0.46646699999999996,0.024034
1629724800502,-0.908107,-0.465003,0.026352
1629724800512,-0.906277,-0.466406,0.027694
1629724800521,-0.905362,-0.469517,0.028426
1629724800531,-0.906582,-0.472201,0.02989
1629724800540,-0.908107,-0.47817899999999997,0.030805
1629724800550,-0.907009,-0.479338,0.03477
1629724800560,-0.9024949999999999,-0.479338,0.040077
1629724800569,-0.9021899999999999,-0.479948,0.041174999999999996
1629724800579,-0.898896,-0.48031399999999996,0.042943999999999996
1629724800588,-0.8966999999999999,-0.482815,0.044286
1629724800598,-0.8936499999999999,-0.484279,0.043798
1629724800608,-0.890478,-0.486353,0.042395
1629724800617,-0.889319,-0.48897599999999997,0.042395
1629724800627,-0.887794,-0.487512,0.0366
1629724800636,-0.8845609999999999,-0.48251,0.030622
1629724800646,-0.879498,-0.482754,0.03172
1629724800656,-0.8744959999999999,-0.487268,0.039162
1629724800665,-0.868518,-0.490013,0.052643
1629724800675,-0.860466,-0.495625,0.069052
1629724800684,-0.854854,-0.502884,0.08479
1629724800694,-0.8461919999999999,-0.509655,0.10638399999999999
1629724800704,-0.842288,-0.514474,0.124135
1629724800713,-0.839177,-0.5188659999999999,0.142862
1629724800723,-0.8349679999999999,-0.521794,0.160186
1629724800732,-0.83692,-0.526064,0.169763
1629724800742,-0.8343579999999999,-0.52643,0.174826
1629724800752,-0.8343579999999999,-0.526125,0.176961
1629724800761,-0.8357,-0.526796,0.174155
1629724800771,-0.8357,-0.529663,0.169153
1629724800780,-0.8367979999999999,-0.528687,0.16043
1629724800790,-0.8377129999999999,-0.526979,0.147803
1629724800800,-0.83814,-0.526186,0.134993
1629724800809,-0.841434,-0.526003,0.120841
1629724800819,-0.844728,-0.526186,0.105408
1629724800828,-0.849059,-0.525149,0.090524
1629724800838,-0.854244,-0.52338,0.077958
1629724800848,-0.858636,-0.519842,0.062098
1629724800857,-0.85949,-0.5170359999999999,0.051422999999999996
1629724800867,-0.859063,-0.51606,0.047030999999999996
1629724800876,-0.860283,-0.517219,0.045871999999999996
1629724800886,-0.861198,-0.519964,0.04575
1629724800896,-0.860893,-0.5231359999999999,0.048799999999999996
1629724800905,-0.862235,-0.525271,0.053191999999999996
1629724800915,-0.861076,-0.526247,0.05978
1629724800924,-0.8605269999999999,-0.527528,0.065026
1629724800934,-0.8583919999999999,-0.527833,0.069296
1629724800944,-0.857538,-0.529785,0.074908
1629724800953,-0.8556469999999999,-0.530151,0.08064199999999999
1629724800963,-0.853451,-0.532408,0.085522
1629724800972,-0.8519869999999999,-0.533262,0.08942599999999999
1629724800982,-0.849059,-0.53192,0.096441
1629724800992,-0.845094,-0.531432,0.099369
1629724801001,-0.843142,-0.530212,0.104432
1629724801011,-0.842044,-0.531859,0.10900699999999999
1629724801020,-0.839116,-0.53131,0.11223999999999999
1629724801030,-0.838506,-0.530151,0.112179
1629724801040,-0.832955,-0.529968,0.11345999999999999
1629724801049,-0.832345,-0.531432,0.120109
1629724801059,-0.835334,-0.534299,0.123098
1629724801068,-0.8334429999999999,-0.53558,0.126209
1629724801078,-0.8395429999999999,-0.538996,0.126331
1629724801088,-0.840946,-0.543632,0.127795
1629724801097,-0.841495,-0.544486,0.12864899999999999
1629724801107,-0.842654,-0.545767,0.126697
1629724801116,-0.840214,-0.544974,0.12956399999999998
1629724801126,-0.832772,-0.544791,0.135176
1629724801136,-0.8242929999999999,-0.541436,0.142557
1629724801145,-0.816058,-0.541314,0.15207299999999999
1629724801155,-0.811666,-0.544974,0.16043
1629724801164,-0.8063589999999999,-0.551257,0.164456
1629724801174,-0.805993,-0.554185,0.168787
1629724801184,-0.8054439999999999,-0.557113,0.167933
1629724801193,-0.806298,-0.559553,0.167872
1629724801203,-0.8097139999999999,-0.5614439999999999,0.167384
1629724801212,-0.81069,-0.561932,0.163968
1629724801222,-0.813191,-0.562847,0.162504
1629724801232,-0.8106289999999999,-0.55693,0.160247
1629724801241,-0.810507,-0.55449,0.158966
1629724801251,-0.8124589999999999,-0.552782,0.156038
1629724801260,-0.814838,-0.551196,0.150792
1629724801270,-0.818498,-0.55327,0.149816
1629724801280,-0.816912,-0.553026,0.149999
1629724801289,-0.814045,-0.551745,0.156404
1629724801299,-0.812337,-0.553514,0.16097899999999998
1629724801308,-0.807945,-0.553941,0.167323
1629724801318,-0.8078839999999999,-0.549976,0.170495
1629724801328,-0.803248,-0.550342,0.17641199999999999
1629724801337,-0.80215,-0.553392,0.180987
1629724801347,-0.8014789999999999,-0.554795,0.183854
1629724801356,-0.802943,-0.558882,0.187636
1629724801366,-0.808616,-0.565958,0.187209
1629724801376,-0.808433,-0.570716,0.187697
1629724801385,-0.810385,-0.572363,0.185196
1629724801395,-0.811422,-0.571692,0.181597
1629724801404,-0.816546,-0.569923,0.175009
1629724801414,-0.819169,-0.563945,0.164334
1629724801424,-0.8113,-0.55693,0.161528
1629724801433,-0.814716,-0.556198,0.158905
1629724801443,-0.8174,-0.559309,0.157685
1629724801452,-0.818254,-0.558089,0.154147
1629724801462,-0.81679,-0.554124,0.150609
1629724801472,-0.815326,-0.548573,0.150426
1629724801481,-0.815082,-0.5468649999999999,0.149938
1629724801491,-0.817156,-0.546743,0.148108
1629724801500,-0.82289,-0.548939,0.14005599999999999
1629724801510,-0.826062,-0.549,0.130052
1629724801520,-0.825757,-0.549427,0.123098
1629724801529,-0.829051,-0.550464,0.114253
1629724801539,-0.829966,-0.552599,0.111203
1629724801548,-0.833931,-0.552843,0.10668899999999999
1629724801558,-0.8337479999999999,-0.55205,0.104432
1629724801568,-0.836615,-0.551562,0.104432
1629724801577,-0.8398479999999999,-0.551074,0.105896
1629724801587,-0.838994,-0.549671,0.108519
1629724801596,-0.839604,-0.549,0.111386
1629724801606,-0.841678,-0.549732,0.112667
1629724801616,-0.841434,-0.550769,0.113948
1629724801625,-0.845216,-0.554307,0.113826
1629724801635,-0.8461919999999999,-0.554856,0.114131
1629724801644,-0.84729,-0.55266,0.11529
1629724801654,-0.846558,-0.549427,0.11486299999999999
1629724801664,-0.846375,-0.545767,0.113704
1629724801673,-0.844545,-0.543388,0.113887
1629724801683,-0.841434,-0.539423,0.113704
1629724801692,-0.841678,-0.539362,0.11486299999999999
1629724801702,-0.84058,-0.538203,0.115656
1629724801712,-0.8392379999999999,-0.5377149999999999,0.116449
1629724801721,-0.839604,-0.536434,0.11779099999999999
1629724801731,-0.8389329999999999,-0.535458,0.117181
1629724801740,-0.838567,-0.534116,0.117852
1629724801750,-0.839421,-0.531066,0.117608
1629724801760,-0.8380179999999999,-0.529846,0.116876
1629724801769,-0.837835,-0.529175,0.11730299999999999
1629724801779,-0.8389329999999999,-0.531188,0.115595
1629724801788,-0.839726,-0.531737,0.115656
1629724801798,-0.840092,-0.531371,0.114985
1629724801808,-0.840702,-0.530212,0.113094
1629724801817,-0.840336,-0.531432,0.114314
1629724801827,-0.841312,-0.53131,0.11638799999999999
1629724801836,-0.841312,-0.53131,0.11699799999999999
1629724801846,-0.842471,-0.53009,0.11669299999999999
1629724801856,-0.842166,-0.530395,0.116266
1629724801865,-0.843996,-0.530212,0.115961
1629724801875,-0.843691,-0.529724,0.114741
1629724801884,-0.841556,-0.529114,0.113887
1629724801894,-0.841983,-0.528809,0.11254499999999999
1629724801904,-0.840702,-0.531188,0.114619
1629724801913,-0.838262,-0.53253,0.114985
1629724801923,-0.838445,-0.53253,0.115595
1629724801932,-0.836554,-0.533689,0.11516799999999999
1629724801942,-0.8349679999999999,-0.533933,0.114314
1629724801952,-0.834175,-0.533933,0.115046
1629724801961,-0.834297,-0.534299,0.112606
1629724801971,-0.833687,-0.5364949999999999,0.113582
1629724801980,-0.833992,-0.536556,0.114802
1629724801990,-0.8346629999999999,-0.538081,0.113704
1629724802000,-0.833992,-0.538386,0.114741
1629724802009,-0.833931,-0.5380199999999999,0.115351
1629724802019,-0.835334,-0.538142,0.11468
1629724802028,-0.838567,-0.540643,0.114375
1629724802038,-0.839482,-0.5435099999999999,0.114619
1629724802048,-0.842471,-0.549183,0.114924
1629724802057,-0.843142,-0.553331,0.111264
1629724802067,-0.845094,-0.552965,0.10790899999999999
1629724802076,-0.844423,-0.548451,0.105652
1629724802086,-0.842227,-0.5441199999999999,0.103029
1629724802096,-0.83936,-0.540704,0.100101
1629724802105,-0.8386279999999999,-0.540277,0.098027
1629724802115,-0.83753,-0.541497,0.097478
1629724802124,-0.837957,-0.543693,0.096624
1629724802134,-0.838506,-0.545218,0.095038
1629724802144,-0.837042,-0.543632,0.094611
1629724802153,-0.837042,-0.543144,0.093147
1629724802163,-0.836371,-0.543632,0.093513
1629724802172,-0.83631,-0.544547,0.094733
1629724802182,-0.836127,-0.545889,0.098149
1629724802192,-0.83631,-0.547048,0.098881
1629724802201,-0.8340529999999999,-0.544913,0.10022299999999999
1629724802211,-0.834724,-0.543266,0.097234
1629724802220,-0.835212,-0.543632,0.09406199999999999
1629724802230,-0.8371029999999999,-0.542839,0.090524
1629724802240,-0.837286,-0.544608,0.089548
1629724802249,-0.83875,-0.547292,0.088633
1629724802259,-0.839116,-0.5471699999999999,0.088328
1629724802268,-0.840824,-0.546499,0.088999
1629724802278,-0.842166,-0.546316,0.08845
1629724802288,-0.83997,-0.5447299999999999,0.087047
1629724802297,-0.837652,-0.540277,0.086559
1629724802307,-0.8392379999999999,-0.537044,0.087474
1629724802316,-0.839604,-0.537837,0.090158
1629724802326,-0.839726,-0.538752,0.092537
1629724802336,-0.841373,-0.540216,0.09211
1629724802345,-0.843264,-0.541619,0.093269
1629724802355,-0.845338,-0.543083,0.09235399999999999
1629724802364,-0.846985,-0.542412,0.088877
1629724802374,-0.847534,-0.535824,0.08784
1629724802384,-0.847656,-0.531859,0.091317
1629724802393,-0.845765,-0.526308,0.094245
1629724802403,-0.840641,-0.521184,0.096441
1629724802412,-0.836737,-0.518012,0.099064
1629724802422,-0.832772,-0.514718,0.100711
1629724802432,-0.82838,-0.508557,0.10309
1629724802441,-0.818193,-0.499102,0.116632
1629724802451,-0.808555,-0.490989,0.135176
1629724802460,-0.7990389999999999,-0.485804,0.151524
1629724802470,-0.797087,-0.48312,0.16165
1629724802480,-0.8008689999999999,-0.48983,0.166042
1629724802489,-0.803858,-0.501969,0.17507
1629724802499,-0.812276,-0.514962,0.185562
1629724802508,-0.822097,-0.528565,0.195322
1629724802518,-0.832284,-0.540643,0.200263
1629724802528,-0.842227,-0.545523,0.20813199999999998
1629724802537,-0.8510719999999999,-0.544913,0.21533
1629724802547,-0.85583,-0.532225,0.217892
1629724802556,-0.859429,-0.517097,0.216245
1629724802566,-0.864675,-0.504287,0.208254
1629724802576,-0.865468,-0.494283,0.201544
1629724802585,-0.862479,-0.484157,0.198616
1629724802595,-0.8626619999999999,-0.477203,0.198555
1629724802604,-0.8651019999999999,-0.473665,0.197762
1629724802614,-0.867054,-0.47329899999999997,0.197823
1629724802624,-0.869128,-0.475068,0.198433
1629724802633,-0.875472,-0.47885,0.197823
1629724802643,-0.8812059999999999,-0.485743,0.195688
1629724802652,-0.8879159999999999,-0.493307,0.195749
1629724802662,-0.893467,-0.499041,0.196176
1629724802672,-0.895968,-0.49824799999999997,0.197701
1629724802681,-0.895419,-0.497516,0.199531
1629724802691,-0.8945649999999999,-0.4941,0.19947
1629724802700,-0.893894,-0.494039,0.199348
1629724802710,-0.899323,-0.49794299999999997,0.200812
1629724802720,-0.908168,-0.506178,0.197457
1629724802729,-0.917135,-0.514352,0.183366
1629724802739,-0.918782,-0.513498,0.171959
1629724802748,-0.9140849999999999,-0.508679,0.169336
1629724802758,-0.907192,-0.504287,0.16958
1629724802768,-0.897981,-0.49885799999999997,0.171959
1629724802777,-0.887672,-0.492514,0.174582
1629724802787,-0.873215,-0.483852,0.17732699999999998
1629724802796,-0.859124,-0.477935,0.17751
1629724802806,-0.8510719999999999,-0.47726399999999997,0.169458
1629724802816,-0.845887,-0.480863,0.158661
1629724802825,-0.8377129999999999,-0.48348599999999997,0.150243
1629724802835,-0.829051,-0.48806099999999997,0.146583
1629724802844,-0.823195,-0.494527,0.145546
1629724802854,-0.81923,-0.50081,0.148718
1629724802864,-0.816729,-0.508313,0.15189
1629724802873,-0.814167,-0.51423,0.153354
1629724802883,-0.812642,-0.5200859999999999,0.158051
1629724802892,-0.811483,-0.522404,0.16408999999999999
1629724802902,-0.808311,-0.524966,0.170922
1629724802912,-0.809836,-0.525454,0.174155
1629724802921,-0.81313,-0.524905,0.171898
1629724802931,-0.816485,-0.519537,0.169214
1629724802940,-0.818254,-0.51362,0.165188
1629724802950,-0.820206,-0.514474,0.16104
1629724802960,-0.822646,-0.517158,0.156526
1629724802969,-0.825086,-0.519964,0.151036
1629724802979,-0.8294779999999999,-0.522587,0.14762
1629724802988,-0.832162,-0.524966,0.14621699999999999
1629724802998,-0.8334429999999999,-0.527772,0.145363
1629724803008,-0.834602,-0.528809,0.14804699999999998
1629724803017,-0.836127,-0.531249,0.14896199999999998
1629724803027,-0.838872,-0.535458,0.149084
1629724803036,-0.8401529999999999,-0.541314,0.14926699999999998
1629724803046,-0.8389329999999999,-0.545889,0.147925
1629724803056,-0.838872,-0.5480849999999999,0.146644
1629724803065,-0.837835,-0.550647,0.14774199999999998
1629724803075,-0.836066,-0.551562,0.146156
1629724803084,-0.833504,-0.551989,0.1464
1629724803094,-0.829661,-0.551318,0.150365
1629724803104,-0.8252079999999999,-0.549549,0.155855
1629724803113,-0.821792,-0.546499,0.161528
1629724803123,-0.818254,-0.544242,0.166347
1629724803132,-0.815692,-0.5419849999999999,0.17086099999999999
1629724803142,-0.8155089999999999,-0.540277,0.175192
1629724803152,-0.8133739999999999,-0.539179,0.180438
1629724803161,-0.813618,-0.537776,0.183671
1629724803171,-0.811666,-0.538691,0.189283
1629724803180,-0.812642,-0.539728,0.19397999999999999
1629724803190,-0.811666,-0.539484,0.196847
1629724803200,-0.8142889999999999,-0.539484,0.200385
1629724803209,-0.814472,-0.539728,0.204838
1629724803219,-0.8133739999999999,-0.539118,0.209596
1629724803228,-0.81313,-0.539972,0.212524
1629724803238,-0.814167,-0.540216,0.215269
1629724803248,-0.815021,-0.541314,0.217648
1629724803257,-0.815082,-0.541314,0.2196
1629724803267,-0.816912,-0.5407649999999999,0.21984399999999998
1629724803276,-0.818559,-0.540948,0.22021
1629724803286,-0.822097,-0.540582,0.216672
1629724803296,-0.824476,-0.539301,0.212951
1629724803305,-0.825452,-0.538142,0.21307299999999998
1629724803315,-0.826062,-0.5371049999999999,0.214659
1629724803324,-0.825696,-0.536556,0.21490299999999998
1629724803334,-0.823561,-0.53375,0.217038
1629724803344,-0.823012,-0.532591,0.21838
1629724803353,-0.821792,-0.532225,0.220027
1629724803363,-0.820511,-0.531798,0.221735
1629724803372,-0.818559,-0.530822,0.22417499999999999
1629724803382,-0.818986,-0.530822,0.226737
1629724803392,-0.818193,-0.53009,0.22752999999999998
1629724803401,-0.8174,-0.529602,0.229116
1629724803411,-0.817278,-0.529785,0.23003099999999999
1629724803420,-0.818437,-0.530273,0.231495
1629724803430,-0.818315,-0.530151,0.232227
1629724803440,-0.818071,-0.529419,0.232898
1629724803449,-0.817217,-0.528992,0.232898
1629724803459,-0.818254,-0.530334,0.23277599999999998
1629724803468,-0.818681,-0.531737,0.232044
1629724803478,-0.819352,-0.533079,0.23302
1629724803488,-0.820206,-0.533506,0.23277599999999998
1629724803497,-0.820572,-0.533262,0.232105
1629724803507,-0.820816,-0.532774,0.2318
1629724803516,-0.821243,-0.533201,0.23119
1629724803526,-0.821853,-0.533262,0.231312
1629724803536,-0.820633,-0.533445,0.231129
1629724803545,-0.819901,-0.535214,0.231129
1629724803555,-0.819047,-0.5374099999999999,0.229055
1629724803564,-0.820206,-0.538386,0.227957
1629724803574,-0.819962,-0.539362,0.22752999999999998
1629724803584,-0.819413,-0.538752,0.226188
1629724803593,-0.81984,-0.5367999999999999,0.227896
1629724803603,-0.820694,-0.535458,0.227164
1629724803612,-0.821365,-0.536678,0.228811
1629724803622,-0.820816,-0.536861,0.229787
1629724803632,-0.82167,-0.536068,0.230458
1629724803641,-0.822097,-0.537654,0.2318
1629724803651,-0.8227679999999999,-0.538996,0.230824
1629724803660,-0.822951,-0.5392399999999999,0.232349
1629724803670,-0.82106,-0.5386299999999999,0.2318
1629724803680,-0.820206,-0.538569,0.232044
1629724803689,-0.817766,-0.536007,0.233752
1629724803699,-0.816546,-0.53497,0.233264
1629724803708,-0.815143,-0.534482,0.233142
1629724803718,-0.8145939999999999,-0.53375,0.232837
1629724803728,-0.814777,-0.53436,0.23308099999999998
1629724803737,-0.8133739999999999,-0.533811,0.233142
1629724803747,-0.813618,-0.53436,0.232105
1629724803756,-0.8155089999999999,-0.535275,0.231617
1629724803766,-0.815875,-0.536068,0.231495
1629724803776,-0.815936,-0.5367999999999999,0.22942099999999999
1629724803785,-0.814411,-0.535885,0.228933
1629724803795,-0.814838,-0.533933,0.226676
1629724803804,-0.81557,-0.533018,0.225883
1629724803814,-0.814777,-0.535641,0.225578
1629724803824,-0.814777,-0.534055,0.224724
1629724803833,-0.814045,-0.534543,0.223138
1629724803843,-0.814838,-0.53497,0.223077
1629724803852,-0.814838,-0.53375,0.223504
1629724803862,-0.814838,-0.532713,0.223443
1629724803872,-0.81496,-0.533018,0.22386999999999999
1629724803881,-0.816729,-0.53497,0.225334
1629724803891,-0.817949,-0.539484,0.225212
1629724803900,-0.817217,-0.543022,0.224541
1629724803910,-0.817827,-0.5428999999999999,0.224236
1629724803920,-0.81862,-0.5401549999999999,0.223992
1629724803929,-0.817583,-0.536922,0.224724
1629724803939,-0.816058,-0.535031,0.22630999999999998
1629724803948,-0.8152039999999999,-0.533079,0.227408
1629724803958,-0.81496,-0.533323,0.22752999999999998
1629724803968,-0.814655,-0.53375,0.22722499999999998
1629724803977,-0.814655,-0.536068,0.226798
1629724803987,-0.815143,-0.535336,0.226554
1629724803996,-0.81496,-0.535458,0.225334
1629724804006,-0.815692,-0.535763,0.222894
1629724804016,-0.815448,-0.536068,0.222528
1629724804025,-0.816607,-0.535946,0.222528
1629724804035,-0.8174,-0.535275,0.222528
1629724804044,-0.8174,-0.534604,0.222894
1629724804054,-0.817644,-0.533201,0.22265
1629724804064,-0.819413,-0.534543,0.223443
1629724804073,-0.821792,-0.535946,0.22386999999999999
1629724804083,-0.821914,-0.5361899999999999,0.22386999999999999
1629724804092,-0.8224629999999999,-0.537471,0.222589
1629724804102,-0.8235,-0.538569,0.221552
1629724804112,-0.824354,-0.536983,0.22167399999999998
1629724804121,-0.824842,-0.536556,0.22021
1629724804131,-0.824354,-0.536861,0.218685
1629724804140,-0.822646,-0.532896,0.21777
1629724804150,-0.822951,-0.530517,0.218197
1629724804160,-0.8236829999999999,-0.531432,0.21801399999999999
1629724804169,-0.8221579999999999,-0.532713,0.21899
1629724804179,-0.823134,-0.53497,0.21777
1629724804188,-0.822585,-0.536434,0.217038
1629724804198,-0.822646,-0.535641,0.216672
1629724804208,-0.822219,-0.535641,0.216245
1629724804217,-0.821487,-0.533628,0.216062
1629724804227,-0.820328,-0.532103,0.216489
1629724804236,-0.818864,-0.530822,0.216611
1629724804246,-0.818132,-0.531188,0.217221
1629724804256,-0.818864,-0.531432,0.216184
1629724804265,-0.818498,-0.53253,0.21551299999999998
1629724804275,-0.819596,-0.534848,0.215574
1629724804284,-0.819718,-0.535275,0.21581799999999998
1629724804294,-0.820511,-0.536739,0.216611
1629724804304,-0.820755,-0.536556,0.215635
1629724804313,-0.821914,-0.537288,0.21612299999999998
1629724804323,-0.820999,-0.537471,0.215269
1629724804332,-0.82167,-0.537227,0.21655
1629724804342,-0.820206,-0.537471,0.21594
1629724804352,-0.820084,-0.5371049999999999,0.216306
1629724804361,-0.819413,-0.538752,0.215757
1629724804371,-0.81923,-0.538996,0.214842
1629724804380,-0.819535,-0.540521,0.214476
1629724804390,-0.818986,-0.540643,0.213622
1629724804400,-0.818864,-0.540643,0.213744
1629724804409,-0.819108,-0.540338,0.213134
1629724804419,-0.81923,-0.540521,0.212402
1629724804428,-0.817461,-0.5398499999999999,0.21228
1629724804438,-0.817949,-0.5395449999999999,0.210694
1629724804448,-0.817583,-0.538752,0.209413
1629724804457,-0.816912,-0.539728,0.209413
1629724804467,-0.815326,-0.539301,0.209779
1629724804476,-0.8164239999999999,-0.540277,0.21106
1629724804486,-0.81679,-0.540643,0.21276799999999998
1629724804496,-0.816058,-0.541619,0.213805
1629724804505,-0.816973,-0.540887,0.213805
1629724804515,-0.8161189999999999,-0.541924,0.21398799999999998
1629724804524,-0.816546,-0.541436,0.210694
1629724804534,-0.817095,-0.540399,0.21106
1629724804544,-0.818498,-0.540887,0.208498
1629724804553,-0.820572,-0.540887,0.20374
1629724804563,-0.822219,-0.542778,0.20008
1629724804572,-0.82472,-0.543876,0.195932
1629724804582,-0.8249029999999999,-0.542473,0.196908
1629724804592,-0.827892,-0.542961,0.18964899999999998
1629724804601,-0.832284,-0.5407649999999999,0.180499
1629724804611,-0.832345,-0.5392399999999999,0.178486
1629724804620,-0.835517,-0.539789,0.171654
1629724804630,-0.837835,-0.538081,0.168543
1629724804640,-0.836249,-0.5367999999999999,0.170678
1629724804649,-0.837652,-0.536373,0.173972
1629724804659,-0.835639,-0.537166,0.182634
1629724804668,-0.831552,-0.540277,0.191418
1629724804678,-0.840214,-0.544364,0.174216
1629724804688,-0.84729,-0.544913,0.151829
1629724804697,-0.84912,-0.541802,0.137738
1629724804707,-0.8418,-0.5364949999999999,0.14396
1629724804716,-0.837164,-0.534787,0.160552
1629724804726,-0.832894,-0.533262,0.17793699999999998
1629724804736,-0.8276479999999999,-0.53436,0.19580999999999998
1629724804745,-0.825147,-0.5361899999999999,0.204411
1629724804755,-0.823561,-0.537288,0.207583
1629724804764,-0.82411,-0.540033,0.20618
1629724804774,-0.821853,-0.542656,0.203557
1629724804784,-0.82106,-0.544974,0.198128
1629724804793,-0.81801,-0.542839,0.189527
1629724804803,-0.815448,-0.535397,0.180621
1629724804812,-0.813496,-0.530273,0.168482
1629724804822,-0.816607,-0.527772,0.150304
1629724804832,-0.818376,-0.5219159999999999,0.133834
1629724804841,-0.81801,-0.517463,0.12395199999999999
1629724804851,-0.818254,-0.516914,0.12017
1629724804860,-0.81801,-0.519354,0.121756
1629724804870,-0.820389,-0.52582,0.12322
1629724804880,-0.819474,-0.530944,0.12627
1629724804889,-0.823805,-0.5361899999999999,0.127063
1629724804899,-0.828685,-0.537471,0.121573
1629724804908,-0.831125,-0.53436,0.11529
1629724804918,-0.83387,-0.53009,0.108275
1629724804928,-0.837774,-0.528809,0.100467
1629724804937,-0.83997,-0.528809,0.098454
1629724804947,-0.841556,-0.52887,0.09881999999999999
1629724804956,-0.8461919999999999,-0.533262,0.101016
1629724804966,-0.8507669999999999,-0.537776,0.103578
1629724804976,-0.852658,-0.5419849999999999,0.109983
1629724804985,-0.85644,-0.544486,0.114558
1629724804995,-0.856623,-0.5477799999999999,0.12322
1629724805004,-0.856318,-0.551135,0.133834
1629724805014,-0.852475,-0.553758,0.144143
1629724805024,-0.8479,-0.549549,0.155001
1629724805033,-0.846253,-0.547353,0.161223
1629724805043,-0.841556,-0.545828,0.166347
1629724805052,-0.8377129999999999,-0.5453399999999999,0.169275
1629724805062,-0.8352729999999999,-0.5468649999999999,0.170617
1629724805072,-0.833504,-0.5465599999999999,0.17324
1629724805081,-0.831186,-0.544303,0.175558
1629724805091,-0.83021,-0.544242,0.1769
1629724805100,-0.829112,-0.5422899999999999,0.179279
1629724805110,-0.828624,-0.540704,0.180072
1629724805120,-0.82655,-0.539484,0.18287799999999999
1629724805129,-0.827099,-0.539789,0.185806
1629724805139,-0.827526,-0.540338,0.18727
1629724805148,-0.825879,-0.5398499999999999,0.190137
1629724805158,-0.824354,-0.539484,0.196603
1629724805168,-0.826672,-0.541558,0.196237
1629724805177,-0.826916,-0.540216,0.197701
1629724805187,-0.825391,-0.539667,0.20288599999999998
1629724805196,-0.8236829999999999,-0.537776,0.207339
1629724805206,-0.822524,-0.5392399999999999,0.215757
1629724805216,-0.820633,-0.539423,0.22386999999999999
1629724805225,-0.818925,-0.540826,0.230885
1629724805235,-0.816973,-0.5410699999999999,0.232898
1629724805244,-0.816668,-0.540826,0.23302
1629724805254,-0.816668,-0.538691,0.229299
1629724805264,-0.814472,-0.536678,0.22783499999999998
1629724805273,-0.8121539999999999,-0.534177,0.227164
1629724805283,-0.810812,-0.531554,0.226371
1629724805292,-0.808372,-0.529541,0.226127
1629724805302,-0.807518,-0.527955,0.225578
1629724805312,-0.80642,-0.527162,0.224907
1629724805321,-0.807091,-0.528321,0.223626
1629724805331,-0.806786,-0.527589,0.223748
1629724805340,-0.806603,-0.528687,0.223809
1629724805350,-0.80703,-0.528138,0.222833
1629724805360,-0.807823,-0.52765,0.221857
1629724805369,-0.808738,-0.528748,0.220027
1629724805379,-0.81069,-0.527223,0.21777
1629724805388,-0.8118489999999999,-0.527101,0.215086
1629724805398,-0.815143,-0.526552,0.21289
1629724805408,-0.818498,-0.52887,0.209291
1629724805417,-0.820145,-0.529602,0.208315
1629724805427,-0.823561,-0.530334,0.207095
1629724805436,-0.8252079999999999,-0.531005,0.205204
1629724805446,-0.828624,-0.532408,0.20374
1629724805456,-0.83143,-0.533262,0.20227599999999998
1629724805465,-0.833687,-0.533567,0.198616
1629724805475,-0.835212,-0.533628,0.197091
1629724805484,-0.83631,-0.533628,0.19519999999999998
1629724805494,-0.836615,-0.534482,0.19580999999999998
1629724805504,-0.837347,-0.535763,0.19550499999999998
1629724805513,-0.8383229999999999,-0.537044,0.196542
1629724805523,-0.838262,-0.5386299999999999,0.198128
1629724805532,-0.8386279999999999,-0.539179,0.199714
1629724805542,-0.837591,-0.5392399999999999,0.20227599999999998
1629724805552,-0.8374079999999999,-0.539484,0.202825
1629724805561,-0.83631,-0.539423,0.203923
1629724805571,-0.833992,-0.539667,0.205875
1629724805580,-0.834602,-0.539118,0.207705
1629724805590,-0.832955,-0.539118,0.20862
1629724805600,-0.828807,-0.5377149999999999,0.209291
1629724805609,-0.827831,-0.534238,0.210938
1629724805619,-0.82533,-0.531432,0.212097
1629724805628,-0.822646,-0.531371,0.212524
1629724805638,-0.821426,-0.529907,0.21411
1629724805648,-0.823744,-0.529846,0.213622
1629724805657,-0.824354,-0.532347,0.215147
1629724805667,-0.82411,-0.536251,0.217648
1629724805676,-0.823744,-0.539911,0.219173
1629724805686,-0.82228,-0.540399,0.21953899999999998
1629724805696,-0.820023,-0.539301,0.220088
1629724805705,-0.817461,-0.535275,0.222345
1629724805715,-0.813557,-0.532347,0.224541
1629724805724,-0.810995,-0.530212,0.226554
1629724805734,-0.8084939999999999,-0.529846,0.227713
1629724805744,-0.80642,-0.529846,0.229665
1629724805753,-0.805505,-0.530883,0.23064099999999998
1629724805763,-0.8052,-0.531859,0.231373
1629724805772,-0.804956,-0.532164,0.23216599999999998
1629724805782,-0.804895,-0.532286,0.233569
1629724805792,-0.805322,-0.534055,0.234362
1629724805801,-0.80581,-0.53375,0.23710699999999998
1629724805811,-0.805566,-0.533201,0.237595
1629724805820,-0.8054439999999999,-0.532164,0.238266
1629724805830,-0.807091,-0.53314,0.24015699999999998
1629724805840,-0.807213,-0.53314,0.240584
1629724805849,-0.80886,-0.533445,0.240401
1629724805859,-0.810568,-0.534055,0.241133
1629724805868,-0.811727,-0.535031,0.24156
1629724805878,-0.8145939999999999,-0.536556,0.241072
1629724805888,-0.8164239999999999,-0.536983,0.241804
1629724805897,-0.817156,-0.5374099999999999,0.24265799999999998
1629724805907,-0.818498,-0.537959,0.242719
1629724805916,-0.819474,-0.538203,0.241987
1629724805926,-0.819657,-0.538874,0.24156
1629724805936,-0.818986,-0.537044,0.241316
1629724805945,-0.821914,-0.536129,0.241133
1629724805955,-0.82167,-0.536251,0.242109
1629724805964,-0.822707,-0.537898,0.242231
1629724805974,-0.825147,-0.541619,0.240035
1629724805984,-0.825574,-0.542351,0.239791
1629724805993,-0.825696,-0.541253,0.23802199999999998
1629724806003,-0.824049,-0.5398499999999999,0.238449
1629724806012,-0.820938,-0.537044,0.237168
1629724806022,-0.819169,-0.537288,0.236863
1629724806032,-0.818071,-0.536312,0.235826
1629724806041,-0.817827,-0.536007,0.235643
1629724806051,-0.8161189999999999,-0.535275,0.237534
1629724806060,-0.815692,-0.534543,0.237351
1629724806070,-0.814533,-0.534604,0.2379
1629724806080,-0.8142889999999999,-0.532957,0.238571
1629724806089,-0.8130689999999999,-0.533506,0.2379
1629724806099,-0.8127639999999999,-0.533567,0.23912
1629724806108,-0.812825,-0.533567,0.23832699999999998
1629724806118,-0.812703,-0.533262,0.236924
1629724806128,-0.812947,-0.533933,0.236314
1629724806137,-0.8127639999999999,-0.534482,0.23558199999999999
1629724806147,-0.813923,-0.533567,0.23399599999999998
1629724806156,-0.813923,-0.532713,0.232837
1629724806166,-0.813557,-0.531249,0.231129
1629724806176,-0.812703,-0.530456,0.229482
1629724806185,-0.8115439999999999,-0.530029,0.228872
1629724806195,-0.8124589999999999,-0.530456,0.228323
1629724806204,-0.811788,-0.531371,0.228872
1629724806214,-0.811727,-0.530456,0.229055
1629724806224,-0.811117,-0.530273,0.23003099999999999
1629724806233,-0.8121539999999999,-0.530639,0.232532
1629724806243,-0.811971,-0.531188,0.232288
1629724806252,-0.811422,-0.530761,0.233813
1629724806262,-0.81191,-0.531554,0.234728
1629724806272,-0.812398,-0.532042,0.234972
1629724806281,-0.813923,-0.532713,0.236924
1629724806291,-0.814045,-0.533262,0.238693
1629724806300,-0.8148989999999999,-0.533384,0.24034
1629724806310,-0.815753,-0.534543,0.24034
1629724806320,-0.817217,-0.534726,0.239913
1629724806329,-0.817644,-0.535092,0.240218
1629724806339,-0.817888,-0.534787,0.23985199999999998
1629724806348,-0.818559,-0.534665,0.239181
1629724806358,-0.820145,-0.535092,0.237656
1629724806368,-0.820389,-0.534055,0.23680199999999998
1629724806377,-0.820389,-0.534299,0.236985
1629724806387,-0.821548,-0.534543,0.23680199999999998
1629724806396,-0.821792,-0.53497,0.236985
1629724806406,-0.822646,-0.536007,0.23771699999999998
1629724806416,-0.822646,-0.535519,0.23729
1629724806425,-0.822951,-0.536129,0.236924
1629724806435,-0.822646,-0.535336,0.236375
1629724806444,-0.8221579999999999,-0.534909,0.235216
1629724806454,-0.820694,-0.534726,0.235338
1629724806464,-0.82106,-0.535092,0.235826
1629724806473,-0.820023,-0.533689,0.235399
1629724806483,-0.818864,-0.531981,0.23546
1629724806492,-0.817949,-0.531127,0.235704
1629724806502,-0.81679,-0.531554,0.235338
1629724806512,-0.816851,-0.530883,0.235643
1629724806521,-0.815936,-0.530212,0.234484
1629724806531,-0.816668,-0.529663,0.233813
1629724806540,-0.815936,-0.53009,0.232654
1629724806550,-0.814838,-0.529785,0.233508
1629724806560,-0.8148989999999999,-0.529358,0.233325
1629724806569,-0.815875,-0.527772,0.23430099999999998
1629724806579,-0.8152039999999999,-0.527772,0.235155
1629724806588,-0.814472,-0.526674,0.233813
1629724806598,-0.815936,-0.525088,0.234667
1629724806608,-0.81679,-0.52704,0.234911
1629724806617,-0.818315,-0.52948,0.23558199999999999
1629724806627,-0.81862,-0.533323,0.23619199999999999
1629724806636,-0.820145,-0.536129,0.233813
1629724806646,-0.820572,-0.535153,0.23241
1629724806656,-0.819474,-0.533018,0.23302
1629724806665,-0.8174,-0.52765,0.230763
1629724806675,-0.81679,-0.525027,0.232288
1629724806684,-0.8158139999999999,-0.525637,0.231678
1629724806694,-0.815936,-0.527162,0.23241
1629724806704,-0.815875,-0.528504,0.23363
1629724806713,-0.817156,-0.531005,0.234179
1629724806723,-0.81801,-0.531737,0.234484
1629724806732,-0.818376,-0.533079,0.234667
1629724806742,-0.817705,-0.533018,0.235765
1629724806752,-0.818803,-0.532896,0.236436
1629724806761,-0.81862,-0.532835,0.236924
1629724806771,-0.819291,-0.531737,0.237534
1629724806780,-0.818864,-0.530517,0.237168
1629724806790,-0.820389,-0.531493,0.23588699999999999
1629724806800,-0.820206,-0.531493,0.23424
1629724806809,-0.8235,-0.533994,0.234911
1629724806819,-0.823866,-0.535763,0.23302
1629724806828,-0.824537,-0.535336,0.23155599999999998
1629724806838,-0.824659,-0.534604,0.229848
1629724806848,-0.824964,-0.534299,0.229238
1629724806857,-0.824842,-0.533506,0.227774
1629724806867,-0.823805,-0.532774,0.226554
1629724806876,-0.8230729999999999,-0.535275,0.226249
1629724806886,-0.822219,-0.53131,0.226432
1629724806896,-0.821792,-0.530334,0.224602
1629724806905,-0.820755,-0.531005,0.224602
1629724806915,-0.820206,-0.532774,0.225822
1629724806924,-0.820389,-0.53497,0.22356499999999999
1629724806934,-0.820633,-0.534543,0.222589
1629724806944,-0.818925,-0.533872,0.222467
1629724806953,-0.818254,-0.532225,0.22167399999999998
1629724806963,-0.8174,-0.531188,0.222345
1629724806972,-0.816546,-0.530639,0.221491
1629724806982,-0.815936,-0.529236,0.221857
1629724806992,-0.815631,-0.529419,0.22204
1629724807001,-0.814228,-0.529846,0.221247
1629724807011,-0.81496,-0.529968,0.221247
1629724807020,-0.815387,-0.531188,0.221552
1629724807030,-0.816851,-0.530944,0.222162
1629724807040,-0.817827,-0.531981,0.222772
1629724807049,-0.817522,-0.532835,0.223443
1629724807059,-0.819962,-0.532286,0.222955
1629724807068,-0.820694,-0.532469,0.222772
1629724807078,-0.821365,-0.531981,0.22197899999999998
1629724807088,-0.821304,-0.532103,0.221735
1629724807097,-0.821731,-0.531066,0.220637
1629724807107,-0.822219,-0.530456,0.219356
1629724807116,-0.823012,-0.531798,0.219356
1629724807126,-0.823805,-0.531554,0.21838
1629724807136,-0.823317,-0.532347,0.21838
1629724807145,-0.824232,-0.531981,0.218807
1629724807155,-0.824171,-0.531066,0.21838
1629724807164,-0.824659,-0.531371,0.218746
1629724807174,-0.8249029999999999,-0.531554,0.219356
1629724807184,-0.82533,-0.531127,0.218746
1629724807193,-0.82472,-0.531554,0.220332
1629724807203,-0.824476,-0.530944,0.220088
1629724807212,-0.824476,-0.53009,0.22045399999999998
1629724807222,-0.823439,-0.530517,0.220637
1629724807232,-0.824659,-0.530639,0.221308
1629724807241,-0.823744,-0.530883,0.221613
1629724807251,-0.824171,-0.530883,0.220881
1629724807260,-0.824049,-0.52887,0.22143
1629724807270,-0.8242929999999999,-0.529419,0.22045399999999998
1629724807280,-0.825025,-0.529541,0.219478
1629724807289,-0.824659,-0.528321,0.21923399999999998
1629724807299,-0.8242929999999999,-0.528138,0.218807
1629724807308,-0.8255129999999999,-0.529724,0.217648
1629724807318,-0.825696,-0.528931,0.216428
1629724807328,-0.824842,-0.529053,0.217648
1629724807337,-0.825879,-0.528992,0.217648
1629724807347,-0.82533,-0.528382,0.21655
1629724807356,-0.824476,-0.526857,0.216184
1629724807366,-0.825879,-0.528382,0.215452
1629724807376,-0.826184,-0.529114,0.216489
1629724807385,-0.826306,-0.528687,0.215757
1629724807395,-0.82533,-0.528382,0.215757
1629724807404,-0.825025,-0.529297,0.215879
1629724807414,-0.8252079999999999,-0.528504,0.216428
1629724807424,-0.82411,-0.528443,0.21831899999999999
1629724807433,-0.823012,-0.527711,0.22021
1629724807443,-0.823317,-0.528565,0.220088
1629724807452,-0.822585,-0.529236,0.2196
1629724807462,-0.821548,-0.52765,0.220088
1629724807472,-0.821487,-0.527711,0.220271
1629724807481,-0.820633,-0.528382,0.22136899999999998
1629724807491,-0.821243,-0.527528,0.221552
1629724807500,-0.820694,-0.528321,0.222162
1629724807510,-0.821365,-0.528504,0.22386999999999999
1629724807520,-0.820633,-0.529297,0.224419
1629724807529,-0.820694,-0.530151,0.224663
1629724807539,-0.821182,-0.528687,0.224724
1629724807548,-0.820999,-0.528748,0.224358
1629724807558,-0.821914,-0.52765,0.221918
1629724807568,-0.821792,-0.526796,0.220271
1629724807577,-0.822951,-0.526247,0.22075899999999998
1629724807587,-0.82472,-0.528565,0.221857
1629724807596,-0.826062,-0.53314,0.222162
1629724807606,-0.82777,-0.536556,0.223138
1629724807616,-0.82716,-0.5371049999999999,0.223626
1629724807625,-0.826916,-0.534604,0.22136899999999998
1629724807635,-0.824171,-0.531554,0.21984399999999998
1629724807644,-0.8224629999999999,-0.528565,0.220393
1629724807654,-0.82106,-0.526918,0.22021
1629724807664,-0.82045,-0.526369,0.219722
1629724807673,-0.821365,-0.526918,0.21953899999999998
1629724807683,-0.822524,-0.52887,0.2196
1629724807692,-0.823134,-0.529907,0.220576
1629724807702,-0.823195,-0.529968,0.220515
1629724807712,-0.823012,-0.531127,0.221308
1629724807721,-0.82228,-0.530212,0.222467
1629724807731,-0.823256,-0.528443,0.222772
1629724807740,-0.821487,-0.527833,0.222772
1629724807750,-0.821304,-0.526796,0.222589
1629724807760,-0.821304,-0.527284,0.222528
1629724807769,-0.8221579999999999,-0.528077,0.222345
1629724807779,-0.822646,-0.530273,0.222345
1629724807788,-0.824354,-0.530456,0.223077
1629724807798,-0.824659,-0.530456,0.222101
1629724807808,-0.8245979999999999,-0.531066,0.222223
1629724807817,-0.825025,-0.530456,0.223138
1629724807827,-0.8235,-0.529968,0.223077
1629724807836,-0.823317,-0.530456,0.223504
1629724807846,-0.823256,-0.529663,0.223382
1629724807856,-0.821914,-0.526979,0.223443
1629724807865,-0.822402,-0.52643,0.222528
1629724807875,-0.82228,-0.526613,0.224419
1629724807884,-0.821975,-0.528443,0.223992
1629724807894,-0.825269,-0.532408,0.223443
1629724807904,-0.825452,-0.532347,0.222894
1629724807913,-0.8255129999999999,-0.531249,0.222162
1629724807923,-0.823622,-0.528992,0.222589
1629724807932,-0.822402,-0.526918,0.224358
1629724807942,-0.821426,-0.527345,0.224602
1629724807952,-0.82228,-0.527467,0.22478499999999998
1629724807961,-0.822585,-0.527894,0.22508999999999998
1629724807971,-0.82167,-0.528748,0.224846
1629724807980,-0.8221579999999999,-0.528443,0.22417499999999999
1629724807990,-0.822036,-0.528626,0.22447999999999999
1629724808000,-0.821792,-0.531188,0.224358
1629724808009,-0.822036,-0.532408,0.224846
1629724808019,-0.822402,-0.532652,0.225029
1629724808028,-0.822036,-0.531859,0.224907
1629724808038,-0.821914,-0.530944,0.225883
1629724808048,-0.821121,-0.53009,0.226249
1629724808057,-0.820816,-0.530944,0.226493
1629724808067,-0.820755,-0.532225,0.226737
1629724808076,-0.820023,-0.533323,0.226737
1629724808086,-0.819474,-0.533811,0.227469
1629724808096,-0.820267,-0.533994,0.226859
1629724808105,-0.818254,-0.533689,0.226798
1629724808115,-0.818315,-0.53436,0.226432
1629724808124,-0.818071,-0.534482,0.22875
1629724808134,-0.817217,-0.534482,0.228323
1629724808144,-0.817583,-0.534726,0.229604
1629724808153,-0.816973,-0.534238,0.228933
1629724808163,-0.815875,-0.533628,0.229665
1629724808172,-0.81496,-0.533506,0.230824
1629724808182,-0.8161189999999999,-0.533933,0.229848
1629724808192,-0.815326,-0.532835,0.23033599999999999
1629724808201,-0.8148989999999999,-0.533628,0.231129
1629724808211,-0.815448,-0.533323,0.230885
1629724808220,-0.8164239999999999,-0.534604,0.231495
1629724808230,-0.815082,-0.533994,0.232654
1629724808240,-0.81496,-0.533384,0.23302
1629724808249,-0.815387,-0.533201,0.232898
1629724808259,-0.815875,-0.53314,0.232654
1629724808268,-0.8174,-0.534055,0.233874
1629724808278,-0.817339,-0.535275,0.23363
1629724808288,-0.818559,-0.535214,0.233142
1629724808297,-0.819108,-0.535092,0.232288
1629724808307,-0.818986,-0.534116,0.231495
1629724808316,-0.818986,-0.534665,0.23058
1629724808326,-0.817888,-0.534604,0.229848
1629724808336,-0.818437,-0.534055,0.230519
1629724808345,-0.818132,-0.533323,0.23003099999999999
1629724808355,-0.817827,-0.533445,0.230153
1629724808364,-0.818742,-0.534055,0.232593
1629724808374,-0.817766,-0.534238,0.23302
1629724808384,-0.817583,-0.534055,0.234179
1629724808393,-0.817766,-0.534482,0.23430099999999998
1629724808403,-0.818132,-0.534299,0.234972
1629724808412,-0.816485,-0.534299,0.235399
1629724808422,-0.817461,-0.533018,0.234789
1629724808432,-0.818498,-0.533628,0.235277
1629724808441,-0.819108,-0.534848,0.235643
1629724808451,-0.818925,-0.536434,0.234667
1629724808460,-0.818254,-0.534604,0.23363
1629724808470,-0.817339,-0.531737,0.23369099999999998
1629724808480,-0.8164239999999999,-0.529236,0.23558199999999999
1629724808489,-0.817644,-0.530944,0.235216
1629724808499,-0.81679,-0.532713,0.235094
1629724808508,-0.816973,-0.53314,0.235277
1629724808518,-0.819413,-0.534909,0.235826
1629724808528,-0.818803,-0.536434,0.23607
1629724808537,-0.818254,-0.539728,0.235521
1629724808547,-0.81923,-0.540338,0.23729
1629724808556,-0.817034,-0.537593,0.236863
1629724808566,-0.816485,-0.533811,0.23588699999999999
1629724808576,-0.8142889999999999,-0.531005,0.236314
1629724808585,-0.813618,-0.530639,0.237473
1629724808595,-0.814838,-0.531859,0.235826
1629724808604,-0.8139839999999999,-0.533567,0.235948
1629724808614,-0.814472,-0.534543,0.235643
1629724808624,-0.813496,-0.535092,0.23485
1629724808633,-0.813496,-0.536068,0.234728
1629724808643,-0.8133739999999999,-0.535458,0.234911
1629724808652,-0.8113,-0.535946,0.235826
1629724808662,-0.811971,-0.534726,0.236619
1629724808672,-0.811605,-0.534787,0.23710699999999998
1629724808681,-0.81191,-0.535214,0.237168
1629724808691,-0.81252,-0.534848,0.235948
1629724808700,-0.813496,-0.5367999999999999,0.23546
1629724808710,-0.814838,-0.5374099999999999,0.23680199999999998
1629724808720,-0.815143,-0.538081,0.23668
1629724808729,-0.815387,-0.5386299999999999,0.23619199999999999
1629724808739,-0.816302,-0.538813,0.23588699999999999
1629724808748,-0.816546,-0.538813,0.236314
1629724808758,-0.816302,-0.538996,0.23680199999999998
1629724808768,-0.815082,-0.538508,0.236741
1629724808777,-0.8133739999999999,-0.534055,0.235338
1629724808787,-0.81496,-0.53314,0.235521
1629724808796,-0.814472,-0.534848,0.23710699999999998
1629724808806,-0.814228,-0.539118,0.2379
1629724808816,-0.81618,-0.540521,0.237168
1629724808825,-0.815875,-0.5401549999999999,0.236741
1629724808835,-0.8155089999999999,-0.538691,0.235948
1629724808844,-0.814411,-0.5371049999999999,0.236253
1629724808854,-0.813862,-0.535763,0.235399
1629724808864,-0.812276,-0.534726,0.23558199999999999
1629724808873,-0.812032,-0.533567,0.235399
1629724808883,-0.8121539999999999,-0.534055,0.235826
1629724808892,-0.8130689999999999,-0.535397,0.235948
1629724808902,-0.813496,-0.537837,0.23710699999999998
1629724808912,-0.814838,-0.538447,0.236314
1629724808921,-0.814167,-0.5389349999999999,0.23680199999999998
1629724808931,-0.814838,-0.539789,0.23680199999999998
1629724808940,-0.8155089999999999,-0.538386,0.236009
1629724808950,-0.814045,-0.538142,0.236375
1629724808960,-0.814533,-0.538813,0.234728
1629724808969,-0.814228,-0.538569,0.234911
1629724808979,-0.814777,-0.538386,0.234118
1629724808988,-0.814167,-0.537959,0.233264
1629724808998,-0.813496,-0.538874,0.233935
1629724809008,-0.813252,-0.539789,0.23247099999999998
1629724809017,-0.8130689999999999,-0.539911,0.233447
1629724809027,-0.8133739999999999,-0.5395449999999999,0.232044
1629724809036,-0.812886,-0.539362,0.23277599999999998
1629724809046,-0.813252,-0.539362,0.233508
1629724809056,-0.813008,-0.537776,0.232898
1629724809065,-0.81374,-0.538081,0.23460599999999998
1629724809075,-0.813252,-0.5380199999999999,0.234789
1629724809084,-0.8112389999999999,-0.537837,0.235521
1629724809094,-0.811788,-0.538142,0.23680199999999998
1629724809104,-0.8121539999999999,-0.538081,0.23558199999999999
1629724809113,-0.81313,-0.5386299999999999,0.236863
1629724809123,-0.811605,-0.5383249999999999,0.237046
1629724809132,-0.812947,-0.5374099999999999,0.23729
1629724809142,-0.812337,-0.537654,0.236741
1629724809152,-0.8121539999999999,-0.536922,0.236985
1629724809161,-0.813435,-0.537593,0.236863
1629724809171,-0.813252,-0.536983,0.236985
1629724809180,-0.8133739999999999,-0.536556,0.236131
1629724809190,-0.814716,-0.536678,0.236558
1629724809200,-0.814228,-0.536922,0.236924
1629724809209,-0.815143,-0.536922,0.235399
1629724809219,-0.815692,-0.536861,0.235704
1629724809228,-0.815692,-0.537288,0.23607
1629724809238,-0.815692,-0.537593,0.235826
1629724809248,-0.815753,-0.536434,0.23588699999999999
1629724809257,-0.814716,-0.53558,0.236558
1629724809267,-0.814777,-0.535519,0.235277
1629724809276,-0.815997,-0.536068,0.234972
1629724809286,-0.817583,-0.536922,0.236009
1629724809296,-0.817034,-0.538508,0.23558199999999999
1629724809305,-0.816851,-0.538447,0.235216
1629724809315,-0.81557,-0.534726,0.235765
1629724809324,-0.8139839999999999,-0.531981,0.23668
1629724809334,-0.81496,-0.534177,0.23710699999999998
1629724809344,-0.814838,-0.5361899999999999,0.238205
1629724809353,-0.815448,-0.536007,0.23851
1629724809363,-0.815631,-0.535153,0.237229
1629724809372,-0.816485,-0.536617,0.23771699999999998
1629724809382,-0.815753,-0.5392399999999999,0.23924199999999998
1629724809392,-0.815021,-0.542656,0.23985199999999998
1629724809401,-0.815448,-0.540826,0.23912
1629724809411,-0.814533,-0.536922,0.238754
1629724809420,-0.813435,-0.534543,0.2379
1629724809430,-0.8124589999999999,-0.53253,0.23680199999999998
1629724809440,-0.812398,-0.533933,0.235338
1629724809449,-0.812398,-0.535153,0.234972
1629724809459,-0.812642,-0.537044,0.234423
1629724809468,-0.812825,-0.5374099999999999,0.235399
1629724809478,-0.812581,-0.5377149999999999,0.236009
1629724809488,-0.811666,-0.537898,0.23619199999999999
1629724809497,-0.812337,-0.538203,0.23649699999999999
1629724809507,-0.810995,-0.538569,0.23802199999999998
1629724809516,-0.8115439999999999,-0.538386,0.23710699999999998
1629724809526,-0.811117,-0.538447,0.237046
1629724809536,-0.8121539999999999,-0.5371049999999999,0.236314
1629724809545,-0.812093,-0.538264,0.235704
1629724809555,-0.813862,-0.539118,0.235826
1629724809564,-0.814533,-0.540521,0.236253
1629724809574,-0.815753,-0.540582,0.235704
1629724809584,-0.815265,-0.540643,0.23558199999999999
1629724809593,-0.814716,-0.541619,0.236436
1629724809603,-0.814716,-0.541558,0.236863
1629724809612,-0.8148989999999999,-0.541924,0.237046
1629724809622,-0.813557,-0.541619,0.23802199999999998
1629724809632,-0.811666,-0.5386299999999999,0.236558
1629724809641,-0.810751,-0.536861,0.234484
1629724809651,-0.810385,-0.538264,0.235399
1629724809660,-0.811422,-0.5432049999999999,0.235277
1629724809670,-0.812276,-0.543754,0.235521
1629724809680,-0.8115439999999999,-0.542107,0.23430099999999998
1629724809689,-0.810568,-0.540826,0.234484
1629724809699,-0.810812,-0.540277,0.23558199999999999
1629724809708,-0.8097139999999999,-0.539728,0.235826
1629724809718,-0.8097139999999999,-0.5392399999999999,0.235216
1629724809728,-0.8094089999999999,-0.539484,0.235704
1629724809737,-0.808616,-0.540094,0.236009
1629724809747,-0.809836,-0.5410699999999999,0.236009
1629724809756,-0.810995,-0.541924,0.235216
1629724809766,-0.810812,-0.542717,0.234972
1629724809776,-0.811788,-0.542229,0.23546
1629724809785,-0.8113,-0.5425949999999999,0.235338
1629724809795,-0.8121539999999999,-0.543022,0.234179
1629724809804,-0.812093,-0.541863,0.23424
1629724809814,-0.8118489999999999,-0.541924,0.23399599999999998
1629724809824,-0.8113,-0.541314,0.233752
1629724809833,-0.810202,-0.542046,0.232715
1629724809843,-0.8113,-0.542534,0.232959
1629724809852,-0.812581,-0.542168,0.232532
1629724809862,-0.812398,-0.540948,0.23155599999999998
1629724809872,-0.812825,-0.540704,0.231922
1629724809881,-0.8124589999999999,-0.539423,0.230763
1629724809891,-0.8115439999999999,-0.539362,0.230702
1629724809900,-0.8109339999999999,-0.5392399999999999,0.231983
1629724809910,-0.81069,-0.538386,0.232349
1629724809920,-0.8112389999999999,-0.537959,0.233874
1629724809929,-0.812032,-0.538874,0.234423
1629724809939,-0.812276,-0.5383249999999999,0.235521
1629724809948,-0.812032,-0.539484,0.23680199999999998
1629724809958,-0.813191,-0.538996,0.23741199999999998
1629724809968,-0.8139839999999999,-0.5386299999999999,0.23802199999999998
1629724809977,-0.8145939999999999,-0.537532,0.236619
1629724809987,-0.813313,-0.5377149999999999,0.236009
1629724809996,-0.814228,-0.536617,0.235338
1629724810006,-0.814411,-0.536678,0.234545
1629724810016,-0.81679,-0.536678,0.23277599999999998
1629724810025,-0.8158139999999999,-0.537288,0.232288
1629724810035,-0.815265,-0.536983,0.232898
1629724810044,-0.8152039999999999,-0.537166,0.232959
1629724810054,-0.816607,-0.5380199999999999,0.233447
1629724810064,-0.815692,-0.537471,0.234667
1629724810073,-0.816058,-0.538569,0.234728
1629724810083,-0.815448,-0.537898,0.234667
1629724810092,-0.8152039999999999,-0.5367999999999999,0.23607
1629724810102,-0.816302,-0.5364949999999999,0.235643
1629724810112,-0.815387,-0.536373,0.235643
1629724810121,-0.816546,-0.5371049999999999,0.23619199999999999
1629724810131,-0.816058,-0.538142,0.235704
1629724810140,-0.815326,-0.538508,0.236741
1629724810150,-0.815265,-0.536068,0.237168
1629724810160,-0.814716,-0.534238,0.237778
1629724810169,-0.8152039999999999,-0.535336,0.237046
1629724810179,-0.81557,-0.536068,0.236924
1629724810188,-0.815082,-0.53497,0.235826
1629724810198,-0.815326,-0.534726,0.235826
1629724810208,-0.81618,-0.537837,0.236314
1629724810217,-0.8164239999999999,-0.543022,0.23558199999999999
1629724810227,-0.816485,-0.543571,0.234789
1629724810236,-0.814838,-0.540643,0.234545
1629724810246,-0.814045,-0.536068,0.232898
1629724810256,-0.813923,-0.533994,0.231678
1629724810265,-0.812703,-0.533079,0.231373
1629724810275,-0.81252,-0.534421,0.23033599999999999
1629724810284,-0.812642,-0.536129,0.22997
1629724810294,-0.81252,-0.537227,0.229787
1629724810304,-0.81191,-0.537898,0.22972599999999999
1629724810313,-0.8121539999999999,-0.5383249999999999,0.230702
1629724810323,-0.8121539999999999,-0.538813,0.23216599999999998
1629724810332,-0.811605,-0.539179,0.232715
1629724810342,-0.81252,-0.539362,0.234911
1629724810352,-0.811422,-0.538203,0.234728
1629724810361,-0.8118489999999999,-0.538386,0.235704
1629724810371,-0.813435,-0.538203,0.23546
1629724810380,-0.813557,-0.538813,0.235094
1629724810390,-0.815021,-0.539667,0.235033
1629724810400,-0.815082,-0.540826,0.234118
1629724810409,-0.8155089999999999,-0.541436,0.234911
1629724810419,-0.815143,-0.540826,0.233935
1629724810428,-0.815143,-0.540826,0.233813
1629724810438,-0.814167,-0.542046,0.234789
1629724810448,-0.815082,-0.541497,0.234789
1629724810457,-0.815082,-0.540338,0.23607
1629724810467,-0.81374,-0.541314,0.234667
1629724810476,-0.811971,-0.5367999999999999,0.23399599999999998
1629724810486,-0.812337,-0.5361899999999999,0.234057
1629724810496,-0.812703,-0.537044,0.234911
1629724810505,-0.812825,-0.540033,0.234728
1629724810515,-0.813557,-0.542961,0.23302
1629724810524,-0.814655,-0.542717,0.232715
1629724810534,-0.813435,-0.539362,0.2318
1629724810544,-0.81252,-0.538142,0.233874
1629724810553,-0.813252,-0.536556,0.23308099999999998
1629724810563,-0.812886,-0.537898,0.23399599999999998
1629724810572,-0.812642,-0.5383249999999999,0.23430099999999998
1629724810582,-0.8113,-0.538081,0.23369099999999998
1629724810592,-0.81313,-0.5377149999999999,0.234179
1629724810601,-0.813008,-0.538142,0.233569
1629724810611,-0.813496,-0.5386299999999999,0.232898
1629724810620,-0.814045,-0.5395449999999999,0.23241
1629724810630,-0.813496,-0.538508,0.23308099999999998
1629724810640,-0.8133739999999999,-0.539301,0.23277599999999998
1629724810649,-0.814228,-0.539423,0.232288
1629724810659,-0.814045,-0.539057,0.23241
1629724810668,-0.813923,-0.5389349999999999,0.232105
1629724810678,-0.814533,-0.5395449999999999,0.23302
1629724810688,-0.814106,-0.540277,0.232349
1629724810697,-0.81435,-0.541192,0.23186099999999998
1629724810707,-0.815265,-0.540826,0.23302
1629724810716,-0.81374,-0.540643,0.232837
1629724810726,-0.8133739999999999,-0.539179,0.23155599999999998
1629724810736,-0.8113,-0.5386299999999999,0.231983
1629724810745,-0.811422,-0.5386299999999999,0.232837
1629724810755,-0.8113,-0.538508,0.234545
1629724810764,-0.8109339999999999,-0.538264,0.234484
1629724810774,-0.811422,-0.539057,0.235094
1629724810784,-0.81191,-0.539667,0.23668
1629724810793,-0.811422,-0.539728,0.23649699999999999
1629724810803,-0.812215,-0.539484,0.236863
1629724810812,-0.8127639999999999,-0.539667,0.238266
1629724810822,-0.811422,-0.539972,0.237229
1629724810832,-0.811422,-0.5398499999999999,0.238144
1629724810841,-0.811178,-0.539057,0.23729
1629724810851,-0.81191,-0.539057,0.237168
1629724810860,-0.8139839999999999,-0.539911,0.236314
1629724810870,-0.813191,-0.5395449999999999,0.235521
1629724810880,-0.813496,-0.539423,0.23588699999999999
1629724810889,-0.813618,-0.5392399999999999,0.234179
1629724810899,-0.813862,-0.539118,0.232898
1629724810908,-0.813008,-0.539789,0.233447
1629724810918,-0.813435,-0.540643,0.233447
1629724810928,-0.814167,-0.539362,0.232715
1629724810937,-0.81252,-0.540094,0.232959
1629724810947,-0.813496,-0.539362,0.234423
1629724810956,-0.812093,-0.539118,0.23399599999999998
1629724810966,-0.81313,-0.5386299999999999,0.233813
1629724810976,-0.81252,-0.5386299999999999,0.233142
1629724810985,-0.8115439999999999,-0.536983,0.232105
1629724810995,-0.813618,-0.537837,0.23186099999999998
1629724811004,-0.8152039999999999,-0.5392399999999999,0.231617
1629724811014,-0.81435,-0.540094,0.2318
1629724811024,-0.812398,-0.5389349999999999,0.232044
1629724811033,-0.8130689999999999,-0.537532,0.233142
1629724811043,-0.813557,-0.538203,0.233935
1629724811052,-0.81313,-0.538569,0.233142
1629724811062,-0.813191,-0.537532,0.232105
1629724811072,-0.814655,-0.537227,0.23277599999999998
1629724811081,-0.81557,-0.538081,0.232044
1629724811091,-0.815692,-0.542778,0.231983
1629724811100,-0.81679,-0.545828,0.231739
1629724811110,-0.815326,-0.544852,0.23155599999999998
1629724811120,-0.815326,-0.542168,0.230397
1629724811129,-0.813862,-0.537471,0.231312
1629724811139,-0.812581,-0.536312,0.23003099999999999
1629724811148,-0.810812,-0.535824,0.22997
1629724811158,-0.811666,-0.5380199999999999,0.230763
1629724811168,-0.811788,-0.539423,0.230092
1629724811177,-0.8115439999999999,-0.5398499999999999,0.23033599999999999
1629724811187,-0.811361,-0.540643,0.23058
1629724811196,-0.8124589999999999,-0.540094,0.22997
1629724811206,-0.8115439999999999,-0.540826,0.231312
1629724811216,-0.811605,-0.539972,0.23277599999999998
1629724811225,-0.811727,-0.539972,0.23363
1629724811235,-0.811971,-0.538508,0.233813
1629724811244,-0.812642,-0.5383249999999999,0.234545
1629724811254,-0.8139839999999999,-0.538752,0.23460599999999998
1629724811264,-0.813923,-0.5398499999999999,0.23485
1629724811273,-0.8152039999999999,-0.540826,0.234362
1629724811283,-0.816363,-0.540704,0.23338599999999998
1629724811292,-0.8158139999999999,-0.5404599999999999,0.232715
1629724811302,-0.816851,-0.5401549999999999,0.232105
1629724811312,-0.816058,-0.539179,0.230824
1629724811321,-0.81557,-0.538691,0.230214
1629724811331,-0.815448,-0.5389349999999999,0.230885
1629724811340,-0.8145939999999999,-0.537654,0.231678
1629724811350,-0.815265,-0.5398499999999999,0.23186099999999998
1629724811360,-0.813801,-0.537288,0.231678
1629724811369,-0.813313,-0.53375,0.230458
1629724811379,-0.813435,-0.53497,0.23125099999999998
1629724811388,-0.81374,-0.537044,0.23155599999999998
1629724811398,-0.815326,-0.541497,0.230458
1629724811408,-0.816485,-0.5425949999999999,0.229604
1629724811417,-0.815326,-0.539118,0.230519
1629724811427,-0.8145939999999999,-0.536373,0.229909
1629724811436,-0.8139839999999999,-0.535458,0.230763
1629724811446,-0.814228,-0.536312,0.231434
1629724811456,-0.8142889999999999,-0.536678,0.232898
1629724811465,-0.8142889999999999,-0.5364949999999999,0.232898
1629724811475,-0.814411,-0.536373,0.232349
1629724811484,-0.815265,-0.536129,0.23241
1629724811494,-0.8152039999999999,-0.536739,0.231739
1629724811504,-0.816607,-0.536983,0.231129
1629724811513,-0.81618,-0.537532,0.230519
1629724811523,-0.81679,-0.536922,0.23058
1629724811532,-0.8161189999999999,-0.537837,0.23058
1629724811542,-0.816058,-0.538142,0.23119
1629724811552,-0.815448,-0.5374099999999999,0.231007
1629724811561,-0.81618,-0.536739,0.2318
1629724811571,-0.815021,-0.536068,0.232288
1629724811580,-0.815326,-0.538142,0.232959
1629724811590,-0.815692,-0.537837,0.232532
1629724811600,-0.815875,-0.538813,0.232715
1629724811609,-0.816302,-0.538386,0.2318
1629724811619,-0.8158139999999999,-0.537349,0.230397
1629724811628,-0.8152039999999999,-0.536861,0.23033599999999999
1629724811638,-0.815326,-0.535214,0.228872
1629724811648,-0.814716,-0.53497,0.230519
1629724811657,-0.814716,-0.536556,0.23094599999999998
1629724811667,-0.815692,-0.537227,0.230702
1629724811676,-0.816668,-0.536434,0.231312
1629724811686,-0.816058,-0.537166,0.231617
1629724811696,-0.8152039999999999,-0.536739,0.233203
1629724811705,-0.814716,-0.535641,0.2318
1629724811715,-0.8158139999999999,-0.5361899999999999,0.2318
1629724811724,-0.8158139999999999,-0.535763,0.23186099999999998
1629724811734,-0.816058,-0.53558,0.231495
1629724811744,-0.816302,-0.534787,0.230153
1629724811753,-0.817583,-0.535031,0.229177
1629724811763,-0.818071,-0.535092,0.228384
1629724811772,-0.817522,-0.534909,0.227896
1629724811782,-0.817583,-0.535275,0.227652
1629724811792,-0.817583,-0.534543,0.227652
1629724811801,-0.818315,-0.534848,0.227896
1629724811811,-0.817705,-0.535275,0.228201
1629724811820,-0.818376,-0.535946,0.227774
1629724811830,-0.818925,-0.534421,0.228506
1629724811840,-0.818193,-0.53436,0.229177
1629724811849,-0.818376,-0.535458,0.229787
1629724811859,-0.817156,-0.534909,0.229604
1629724811868,-0.817339,-0.535519,0.23003099999999999
1629724811878,-0.817217,-0.535458,0.229604
1629724811888,-0.817278,-0.534116,0.230153
1629724811897,-0.816485,-0.534421,0.230153
1629724811907,-0.8164239999999999,-0.534726,0.229543
1629724811916,-0.816363,-0.534116,0.229482
1629724811926,-0.817095,-0.534055,0.229177
1629724811936,-0.817156,-0.534848,0.228689
1629724811945,-0.816546,-0.533994,0.229543
1629724811955,-0.817888,-0.535885,0.229604
1629724811964,-0.816607,-0.535031,0.22997
1629724811974,-0.816546,-0.533384,0.229909
1629724811984,-0.817583,-0.533445,0.231434
1629724811993,-0.817888,-0.534116,0.23186099999999998
1629724812003,-0.817705,-0.534604,0.23155599999999998
1629724812012,-0.817766,-0.532164,0.230275
1629724812022,-0.81984,-0.531798,0.231068
1629724812032,-0.820267,-0.533811,0.232044
1629724812041,-0.820816,-0.5371049999999999,0.232532
1629724812051,-0.821975,-0.540338,0.2318
1629724812060,-0.821426,-0.5398499999999999,0.23003099999999999
1629724812070,-0.820694,-0.5380199999999999,0.228872
1629724812080,-0.817766,-0.533689,0.228689
1629724812089,-0.8158139999999999,-0.531005,0.22936
1629724812099,-0.815082,-0.53009,0.22936
1629724812108,-0.8155089999999999,-0.531981,0.22997
1629724812118,-0.8155089999999999,-0.532591,0.229543
1629724812128,-0.8158139999999999,-0.533384,0.228628
1629724812137,-0.815692,-0.53436,0.22813999999999998
1629724812147,-0.815692,-0.534787,0.229299
1629724812156,-0.815387,-0.534604,0.229055
1629724812166,-0.815692,-0.534421,0.230092
1629724812176,-0.815692,-0.533811,0.23125099999999998
1629724812185,-0.816302,-0.533323,0.23216599999999998
1629724812195,-0.814777,-0.533567,0.232959
1629724812204,-0.815936,-0.534421,0.233264
1629724812214,-0.816912,-0.535397,0.233142
1629724812224,-0.817766,-0.535885,0.23338599999999998
1629724812233,-0.818864,-0.536556,0.232044
1629724812243,-0.818864,-0.536251,0.232044
1629724812252,-0.818559,-0.535641,0.230519
1629724812262,-0.819108,-0.535885,0.229787
1629724812272,-0.819413,-0.535153,0.228811
1629724812281,-0.818315,-0.535031,0.228872
1629724812291,-0.817766,-0.535702,0.228628
1629724812300,-0.818437,-0.536556,0.229848
1629724812310,-0.816851,-0.535519,0.228933
1629724812320,-0.816485,-0.532103,0.22722499999999998
1629724812329,-0.81618,-0.532713,0.227286
1629724812339,-0.815936,-0.533506,0.227286
1629724812348,-0.8174,-0.535946,0.225944
1629724812358,-0.817827,-0.537471,0.226432
1629724812368,-0.81862,-0.536312,0.226554
1629724812377,-0.818132,-0.535702,0.22691999999999998
1629724812387,-0.817522,-0.534726,0.227164
1629724812396,-0.816546,-0.534726,0.226859
1629724812406,-0.816668,-0.534726,0.227774
1629724812416,-0.815875,-0.533811,0.227469
1629724812425,-0.8158139999999999,-0.533323,0.227164
1629724812435,-0.815997,-0.534421,0.226981
1629724812444,-0.816546,-0.534177,0.22722499999999998
1629724812454,-0.817217,-0.534848,0.228018
1629724812464,-0.817644,-0.536251,0.22722499999999998
1629724812473,-0.818376,-0.536251,0.227652
1629724812483,-0.818498,-0.536739,0.226127
1629724812492,-0.818925,-0.536983,0.226188
1629724812502,-0.818376,-0.5364949999999999,0.226066
1629724812512,-0.818742,-0.535702,0.225883
1629724812521,-0.818681,-0.536129,0.225029
1629724812531,-0.818559,-0.535153,0.22539499999999998
1629724812540,-0.818193,-0.534726,0.224663
1629724812550,-0.817644,-0.534665,0.223443
1629724812560,-0.818315,-0.535397,0.22417499999999999
1629724812569,-0.818559,-0.536312,0.22417499999999999
1629724812579,-0.817827,-0.535763,0.22417499999999999
1629724812588,-0.817522,-0.534238,0.224907
1629724812598,-0.817034,-0.533994,0.224602
1629724812608,-0.816851,-0.533872,0.22569999999999998
1629724812617,-0.817095,-0.533994,0.226737
1629724812627,-0.816058,-0.534421,0.227286
1629724812636,-0.816363,-0.534116,0.227774
1629724812646,-0.816729,-0.533628,0.227957
1629724812656,-0.816729,-0.534421,0.228201
1629724812665,-0.817583,-0.534177,0.22783499999999998
1629724812675,-0.817522,-0.532896,0.22783499999999998
1629724812684,-0.8174,-0.533262,0.22783499999999998
1629724812694,-0.817949,-0.532652,0.227042
1629724812704,-0.818559,-0.532469,0.227469
1629724812713,-0.81862,-0.533262,0.227164
1629724812723,-0.819352,-0.532469,0.227469
1629724812732,-0.819596,-0.533384,0.226249
1629724812742,-0.820084,-0.532164,0.225273
1629724812752,-0.819718,-0.532347,0.225517
1629724812761,-0.819901,-0.532469,0.226554
1629724812771,-0.819718,-0.532042,0.226859
1629724812780,-0.820206,-0.531432,0.227164
1629724812790,-0.820511,-0.532042,0.228018
1629724812800,-0.821487,-0.531737,0.227103
1629724812809,-0.821731,-0.532469,0.228689
1629724812819,-0.82167,-0.531615,0.227591
1629724812828,-0.821304,-0.530883,0.228262
1629724812838,-0.821365,-0.531493,0.227652
1629724812848,-0.821426,-0.530944,0.227591
1629724812857,-0.820755,-0.530639,0.22752999999999998
1629724812867,-0.820938,-0.530639,0.228994
1629724812876,-0.820206,-0.530151,0.228323
1629724812886,-0.81984,-0.529846,0.228811
1629724812896,-0.819352,-0.529602,0.228628
1629724812905,-0.820694,-0.52948,0.22875
1629724812915,-0.820206,-0.529419,0.228079
1629724812924,-0.820267,-0.529236,0.227591
1629724812934,-0.820999,-0.528565,0.227042
1629724812944,-0.820816,-0.52948,0.227286
1629724812953,-0.820633,-0.52948,0.22783499999999998
1629724812963,-0.820938,-0.527589,0.228079
1629724812972,-0.821365,-0.528321,0.22875
1629724812982,-0.822036,-0.528992,0.22997
1629724812992,-0.82167,-0.528565,0.22844499999999998
1629724813001,-0.821426,-0.52765,0.228262
1629724813011,-0.822097,-0.528138,0.228384
1629724813020,-0.822829,-0.530456,0.229848
1629724813030,-0.823561,-0.533628,0.229116
1629724813040,-0.825269,-0.536922,0.22813999999999998
1629724813049,-0.826245,-0.536983,0.227042
1629724813059,-0.825025,-0.534848,0.22539499999999998
1629724813068,-0.8224629999999999,-0.531676,0.224236
1629724813078,-0.82045,-0.527772,0.224236
1629724813088,-0.819535,-0.526613,0.224724
1629724813097,-0.817461,-0.527528,0.224724
1629724813107,-0.818071,-0.529236,0.225212
1629724813116,-0.817888,-0.531188,0.225883
1629724813126,-0.817766,-0.531493,0.225517
1629724813136,-0.819108,-0.532408,0.226493
1629724813145,-0.818132,-0.532225,0.226737
1629724813155,-0.817766,-0.532103,0.228323
1629724813164,-0.817217,-0.530578,0.229665
1629724813174,-0.817339,-0.530212,0.22997
1629724813184,-0.818437,-0.529907,0.22936
1629724813193,-0.817644,-0.53131,0.22972599999999999
1629724813203,-0.818559,-0.532469,0.229543
1629724813212,-0.820328,-0.533994,0.22844499999999998
1629724813222,-0.820938,-0.534238,0.227652
1629724813232,-0.820999,-0.534726,0.226859
1629724813241,-0.821914,-0.533323,0.226493
1629724813251,-0.8221579999999999,-0.533323,0.22508999999999998
1629724813260,-0.821304,-0.532042,0.225578
1629724813270,-0.821792,-0.532713,0.22569999999999998
1629724813280,-0.821609,-0.532225,0.227042
1629724813289,-0.821121,-0.533445,0.227347
1629724813299,-0.820572,-0.532713,0.226066
1629724813308,-0.820755,-0.531554,0.225639
1629724813318,-0.820084,-0.532286,0.224907
1629724813328,-0.819413,-0.531676,0.22630999999999998
1629724813337,-0.81984,-0.53314,0.22539499999999998
1629724813347,-0.81984,-0.533018,0.22600499999999998
1629724813356,-0.820084,-0.531676,0.225883
1629724813366,-0.819047,-0.532286,0.226432
1629724813376,-0.819596,-0.53192,0.226981
1629724813385,-0.819291,-0.531798,0.22661499999999998
1629724813395,-0.81801,-0.531371,0.22630999999999998
1629724813404,-0.818803,-0.531127,0.227042
1629724813414,-0.81923,-0.530578,0.226066
1629724813424,-0.819779,-0.531371,0.226798
1629724813433,-0.819962,-0.532103,0.226676
1629724813443,-0.820206,-0.531737,0.226859
1629724813452,-0.820084,-0.532286,0.227347
1629724813462,-0.819596,-0.533445,0.227713
1629724813472,-0.819535,-0.533628,0.227652
1629724813481,-0.81984,-0.533567,0.22813999999999998
1629724813491,-0.820267,-0.533018,0.227164
1629724813500,-0.820206,-0.533506,0.227896
1629724813510,-0.820267,-0.532774,0.227286
1629724813520,-0.819718,-0.532347,0.226127
1629724813529,-0.819352,-0.531371,0.22569999999999998
1629724813539,-0.819352,-0.531127,0.225883
1629724813548,-0.820206,-0.530822,0.225822
1629724813558,-0.819962,-0.531554,0.225456
1629724813568,-0.819596,-0.530883,0.225822
1629724813577,-0.819779,-0.531676,0.22691999999999998
1629724813587,-0.81923,-0.531737,0.227103
1629724813596,-0.819657,-0.531066,0.228201
1629724813606,-0.819657,-0.531615,0.22844499999999998
1629724813616,-0.81984,-0.531005,0.228628
1629724813625,-0.819352,-0.530639,0.229238
1629724813635,-0.820023,-0.530151,0.22875
1629724813644,-0.82045,-0.530517,0.22875
1629724813654,-0.820755,-0.529846,0.228872
1629724813664,-0.821121,-0.530151,0.229848
1629724813673,-0.819779,-0.529968,0.22936
1629724813683,-0.82106,-0.529846,0.227774
1629724813692,-0.821182,-0.529724,0.227469
1629724813702,-0.82045,-0.529358,0.22844499999999998
1629724813712,-0.821121,-0.529358,0.226981
1629724813721,-0.821121,-0.528626,0.227164
1629724813731,-0.821304,-0.529358,0.226737
1629724813740,-0.820206,-0.529846,0.226737
1629724813750,-0.821426,-0.528809,0.227713
1629724813760,-0.821975,-0.529175,0.227164
1629724813769,-0.822402,-0.530029,0.22783499999999998
1629724813779,-0.8227679999999999,-0.529358,0.226981
1629724813788,-0.822219,-0.529175,0.229177
1629724813798,-0.821609,-0.529663,0.22936
1629724813808,-0.8233779999999999,-0.530029,0.229238
1629724813817,-0.823134,-0.529907,0.22942099999999999
1629724813827,-0.821792,-0.529907,0.228933
1629724813836,-0.822097,-0.52887,0.228323
1629724813846,-0.821304,-0.52887,0.228628
1629724813856,-0.821121,-0.529114,0.228262
1629724813865,-0.820206,-0.528626,0.22752999999999998
1629724813875,-0.821121,-0.529175,0.228933
1629724813884,-0.82106,-0.529114,0.228628
1629724813894,-0.820145,-0.529358,0.228079
1629724813904,-0.821426,-0.53009,0.228384
1629724813913,-0.821487,-0.528016,0.227896
1629724813923,-0.82045,-0.527772,0.227713
1629724813932,-0.821731,-0.528565,0.227347
1629724813942,-0.821792,-0.528321,0.227652
1629724813952,-0.822036,-0.52887,0.227896
1629724813961,-0.821365,-0.527528,0.228994
1629724813971,-0.8221579999999999,-0.527772,0.230214
1629724813980,-0.822036,-0.527528,0.230275
1629724813990,-0.8230729999999999,-0.528077,0.23058
1629724814000,-0.821548,-0.527284,0.22936
1629724814009,-0.821426,-0.526308,0.229116
1629724814019,-0.8233779999999999,-0.526552,0.228506
1629724814028,-0.823317,-0.528443,0.23003099999999999
1629724814038,-0.824415,-0.531554,0.230092
1629724814048,-0.825025,-0.534116,0.229177
1629724814057,-0.824476,-0.535519,0.228933
1629724814067,-0.8227679999999999,-0.532408,0.228994
1629724814076,-0.821304,-0.527955,0.227713
1629724814086,-0.819901,-0.525088,0.22752999999999998
1629724814096,-0.817522,-0.524539,0.227286
1629724814105,-0.817034,-0.524356,0.228201
1629724814115,-0.818803,-0.52643,0.228506
1629724814124,-0.818071,-0.528321,0.228018
1629724814134,-0.819047,-0.529602,0.227774
1629724814144,-0.818986,-0.529541,0.229787
1629724814153,-0.81923,-0.530456,0.23094599999999998
1629724814163,-0.818498,-0.529846,0.231495
1629724814172,-0.818193,-0.52765,0.232349
1629724814182,-0.818742,-0.527955,0.231434
1629724814192,-0.819108,-0.527223,0.2318
1629724814201,-0.819047,-0.528016,0.23119
1629724814211,-0.82045,-0.529724,0.23125099999999998
1629724814220,-0.820877,-0.530822,0.229848
1629724814230,-0.823134,-0.531554,0.23003099999999999
1629724814240,-0.822524,-0.531066,0.228628
1629724814249,-0.8235,-0.530334,0.227652
1629724814259,-0.822524,-0.530334,0.228018
1629724814268,-0.823134,-0.529602,0.22752999999999998
1629724814278,-0.822951,-0.529663,0.229116
1629724814288,-0.822097,-0.530456,0.228262
1629724814297,-0.821304,-0.529053,0.228872
1629724814307,-0.820511,-0.527101,0.22783499999999998
1629724814316,-0.821121,-0.526674,0.22813999999999998
1629724814326,-0.820877,-0.526979,0.228994
1629724814336,-0.820572,-0.529724,0.228933
1629724814345,-0.822585,-0.531859,0.227713
1629724814355,-0.822097,-0.531066,0.227591
1629724814364,-0.821182,-0.529175,0.227957
1629724814374,-0.821121,-0.527467,0.227103
1629724814384,-0.820084,-0.526064,0.228262
1629724814393,-0.820511,-0.526491,0.228506
1629724814403,-0.819718,-0.526796,0.228872
1629724814412,-0.82106,-0.526918,0.22813999999999998
1629724814422,-0.820694,-0.528077,0.22813999999999998
1629724814432,-0.821426,-0.528809,0.228384
1629724814441,-0.821853,-0.529358,0.228506
1629724814451,-0.822219,-0.530395,0.227957
1629724814460,-0.822402,-0.529602,0.22813999999999998
1629724814470,-0.8224629999999999,-0.529724,0.228567
1629724814480,-0.822829,-0.529724,0.22813999999999998
1629724814489,-0.823012,-0.529724,0.22813999999999998
1629724814499,-0.822829,-0.52887,0.22783499999999998
1629724814508,-0.822524,-0.528504,0.22783499999999998
1629724814518,-0.822524,-0.528809,0.228872
1629724814528,-0.822524,-0.529968,0.227713
1629724814537,-0.822524,-0.529114,0.227408
1629724814547,-0.822219,-0.529846,0.227103
1629724814556,-0.822951,-0.529968,0.227042
1629724814566,-0.8230729999999999,-0.530273,0.227286
1629724814576,-0.822036,-0.529297,0.22783499999999998
1629724814585,-0.821182,-0.528504,0.228506
1629724814595,-0.820511,-0.528016,0.228872
1629724814604,-0.820328,-0.528504,0.229116
1629724814614,-0.819962,-0.528443,0.230458
1629724814624,-0.81984,-0.527589,0.230763
1629724814633,-0.81923,-0.528748,0.23094599999999998
1629724814643,-0.819596,-0.528626,0.23058
1629724814652,-0.819535,-0.528992,0.231373
1629724814662,-0.81984,-0.528138,0.23247099999999998
1629724814672,-0.82106,-0.527894,0.231922
1629724814681,-0.819962,-0.527955,0.231617
1629724814691,-0.820084,-0.527589,0.230702
1629724814700,-0.820572,-0.527284,0.228811
1629724814710,-0.820694,-0.527223,0.228506
1629724814720,-0.821914,-0.527406,0.227774
1629724814729,-0.8224629999999999,-0.52826,0.227164
1629724814739,-0.8224629999999999,-0.528748,0.226188
1629724814748,-0.822341,-0.528626,0.226981
1629724814758,-0.822341,-0.528504,0.22539499999999998
1629724814768,-0.823622,-0.529724,0.226859
1629724814777,-0.822524,-0.528687,0.227652
1629724814787,-0.822341,-0.528992,0.22875
1629724814796,-0.8221579999999999,-0.52948,0.228811
1629724814806,-0.82167,-0.529785,0.229543
1629724814816,-0.8221579999999999,-0.528992,0.230397
1629724814825,-0.820877,-0.529114,0.22936
1629724814835,-0.820938,-0.528443,0.230458
1629724814844,-0.820755,-0.528077,0.229848
1629724814854,-0.820816,-0.528443,0.229604
1629724814864,-0.820023,-0.528504,0.228933
1629724814873,-0.821182,-0.52826,0.229909
1629724814883,-0.820267,-0.527955,0.231495
1629724814892,-0.820328,-0.527528,0.23119
1629724814902,-0.820206,-0.527833,0.230275
1629724814912,-0.819901,-0.528382,0.23033599999999999
1629724814921,-0.820328,-0.528321,0.229299
1629724814931,-0.820816,-0.527772,0.227774
1629724814940,-0.822341,-0.529175,0.22691999999999998
1629724814950,-0.821792,-0.529968,0.22600499999999998
1629724814960,-0.821304,-0.529602,0.225578
1629724814969,-0.821853,-0.528138,0.225212
1629724814979,-0.819962,-0.526491,0.225944
1629724814988,-0.820572,-0.527345,0.226493
1629724814998,-0.821487,-0.527833,0.225578
1629724815008,-0.821914,-0.52765,0.225151
1629724815017,-0.82228,-0.528077,0.225822
1629724815027,-0.823561,-0.530334,0.227957
1629724815036,-0.824354,-0.532774,0.228872
1629724815046,-0.8230729999999999,-0.533994,0.22942099999999999
1629724815056,-0.8227679999999999,-0.533079,0.22936
1629724815065,-0.821731,-0.529358,0.229116
1629724815075,-0.820877,-0.524722,0.22972599999999999
1629724815084,-0.819108,-0.523685,0.228506
1629724815094,-0.820572,-0.523807,0.227896
1629724815104,-0.819901,-0.525393,0.227713
1629724815113,-0.821365,-0.527467,0.227469
1629724815123,-0.821365,-0.528626,0.228018
1629724815132,-0.821853,-0.528016,0.22942099999999999
1629724815142,-0.82228,-0.526857,0.229848
1629724815152,-0.821548,-0.526308,0.23033599999999999
1629724815161,-0.821121,-0.525942,0.230519
1629724815171,-0.821243,-0.525088,0.23094599999999998
1629724815180,-0.821853,-0.525027,0.2318
1629724815190,-0.8221579999999999,-0.524844,0.23247099999999998
1629724815200,-0.823012,-0.526064,0.231983
1629724815209,-0.823256,-0.526125,0.231983
1629724815219,-0.824476,-0.526247,0.231678
1629724815228,-0.825391,-0.527772,0.23247099999999998
1629724815238,-0.8264279999999999,-0.527467,0.231983
1629724815248,-0.826489,-0.526491,0.232105
1629724815257,-0.8252079999999999,-0.526552,0.232715
1629724815267,-0.824659,-0.526552,0.231922
1629724815276,-0.8242929999999999,-0.527223,0.23338599999999998
1629724815286,-0.822097,-0.523319,0.231922
1629724815296,-0.822585,-0.521184,0.231373
1629724815305,-0.822524,-0.5222209999999999,0.232227
1629724815315,-0.822524,-0.525271,0.232837
1629724815324,-0.82472,-0.528687,0.232654
1629724815334,-0.824354,-0.527894,0.231312
1629724815344,-0.823805,-0.526552,0.23119
1629724815353,-0.82289,-0.524966,0.230702
1629724815363,-0.821914,-0.5228309999999999,0.23125099999999998
1629724815372,-0.821121,-0.522404,0.232288
1629724815382,-0.821121,-0.5222209999999999,0.232105
1629724815392,-0.821243,-0.52277,0.231983
1629724815401,-0.821304,-0.524173,0.232532
1629724815411,-0.821731,-0.524905,0.231617
1629724815420,-0.822585,-0.525881,0.23216599999999998
1629724815430,-0.823134,-0.52643,0.232898
1629724815440,-0.823012,-0.52704,0.2318
1629724815449,-0.823134,-0.526735,0.23094599999999998
1629724815459,-0.823256,-0.526491,0.231007
1629724815468,-0.822402,-0.525759,0.23155599999999998
1629724815478,-0.82228,-0.526064,0.229482
1629724815488,-0.82228,-0.52704,0.229848
1629724815497,-0.823256,-0.528138,0.22942099999999999
1629724815507,-0.822402,-0.528748,0.229543
1629724815516,-0.822951,-0.529724,0.228872
1629724815526,-0.823561,-0.528565,0.228567
1629724815536,-0.823439,-0.529541,0.228628
1629724815545,-0.822646,-0.528748,0.228567
1629724815555,-0.821792,-0.528016,0.227408
1629724815564,-0.821609,-0.526857,0.228323
1629724815574,-0.82106,-0.528321,0.228567
1629724815584,-0.821853,-0.52704,0.229787
1629724815593,-0.821853,-0.527772,0.230214
1629724815603,-0.821609,-0.527894,0.231434
1629724815612,-0.820999,-0.528382,0.23155599999999998
1629724815622,-0.82106,-0.52887,0.232593
1629724815632,-0.820694,-0.529053,0.233142
1629724815641,-0.820938,-0.528748,0.232898
1629724815651,-0.820084,-0.528138,0.232959
1629724815660,-0.819474,-0.528809,0.23155599999999998
1629724815670,-0.820755,-0.528077,0.231068
1629724815680,-0.821182,-0.528626,0.23094599999999998
1629724815689,-0.820755,-0.527772,0.23119
1629724815699,-0.820633,-0.528748,0.229787
1629724815708,-0.819474,-0.528382,0.22936
1629724815718,-0.821121,-0.52765,0.229299
1629724815728,-0.820877,-0.52765,0.228628
1629724815737,-0.821182,-0.52765,0.228872
1629724815747,-0.820572,-0.527711,0.22875
1629724815756,-0.820755,-0.52826,0.229482
1629724815766,-0.820267,-0.528138,0.230397
1629724815776,-0.820755,-0.529175,0.229848
1629724815785,-0.821304,-0.529053,0.230885
1629724815795,-0.821609,-0.52948,0.23155599999999998
1629724815804,-0.820938,-0.528382,0.23064099999999998
1629724815814,-0.821243,-0.527406,0.23064099999999998
1629724815824,-0.820389,-0.527406,0.231434
1629724815833,-0.821426,-0.526796,0.23033599999999999
1629724815843,-0.82228,-0.526918,0.230702
1629724815852,-0.822707,-0.529602,0.23064099999999998
1629724815862,-0.822097,-0.529419,0.229848
1629724815872,-0.820206,-0.52704,0.22997
1629724815881,-0.82045,-0.525637,0.229116
1629724815891,-0.821609,-0.52582,0.229848
1629724815900,-0.821426,-0.527345,0.23058
1629724815910,-0.821609,-0.527772,0.229787
1629724815920,-0.823134,-0.52704,0.229055
1629724815929,-0.824232,-0.527711,0.229238
1629724815939,-0.823744,-0.531615,0.230702
1629724815948,-0.823439,-0.533994,0.231434
1629724815958,-0.823134,-0.533445,0.232227
1629724815968,-0.8224629999999999,-0.529663,0.23119
1629724815977,-0.820511,-0.526674,0.23094599999999998
1629724815987,-0.818986,-0.524295,0.23155599999999998
1629724815996,-0.819535,-0.525088,0.230092
1629724816006,-0.82045,-0.526003,0.229543
1629724816016,-0.820877,-0.527406,0.23003099999999999
1629724816025,-0.819169,-0.528992,0.23003099999999999
1629724816035,-0.819169,-0.528504,0.230763
1629724816044,-0.819718,-0.528992,0.23119
1629724816054,-0.820267,-0.528138,0.231678
1629724816064,-0.819718,-0.528931,0.233203
1629724816073,-0.818925,-0.527284,0.233264
1629724816083,-0.818742,-0.526857,0.234362
1629724816092,-0.818803,-0.527284,0.234118
1629724816102,-0.820267,-0.527101,0.233264
1629724816112,-0.822402,-0.528809,0.231739
1629724816121,-0.8233779999999999,-0.530212,0.23058
1629724816131,-0.822585,-0.529846,0.231312
1629724816140,-0.823439,-0.53009,0.231434
1629724816150,-0.8239879999999999,-0.529968,0.231129
1629724816160,-0.823805,-0.529541,0.231007
1629724816169,-0.823561,-0.530334,0.23186099999999998
1629724816179,-0.821853,-0.530822,0.232654
1629724816188,-0.82106,-0.529236,0.231922
1629724816198,-0.819962,-0.523929,0.23033599999999999
1629724816208,-0.819962,-0.524722,0.229482
1629724816217,-0.820511,-0.527162,0.231312
1629724816227,-0.822036,-0.531066,0.230885
1629724816236,-0.822524,-0.531249,0.230763
1629724816246,-0.82228,-0.5307,0.22997
1629724816256,-0.82106,-0.528748,0.229787
1629724816265,-0.820084,-0.526796,0.228811
1629724816275,-0.820267,-0.526064,0.230214
1629724816284,-0.819474,-0.526064,0.230702
1629724816294,-0.819413,-0.526308,0.230092
1629724816304,-0.820084,-0.52765,0.230397
1629724816313,-0.820816,-0.528748,0.23125099999999998
1629724816323,-0.821914,-0.530517,0.229482
1629724816332,-0.821365,-0.530761,0.229543
1629724816342,-0.821487,-0.530517,0.229787
1629724816352,-0.821426,-0.531249,0.229299
1629724816361,-0.8221579999999999,-0.530456,0.228567
1629724816371,-0.821182,-0.529785,0.228628
1629724816380,-0.820877,-0.529785,0.228872
1629724816390,-0.820938,-0.529114,0.228994
1629724816400,-0.819352,-0.52948,0.228262
1629724816409,-0.820877,-0.530822,0.228628
1629724816419,-0.820389,-0.532042,0.22942099999999999
1629724816428,-0.820145,-0.531554,0.22942099999999999
1629724816438,-0.820511,-0.531249,0.228994
1629724816448,-0.819779,-0.530151,0.22844499999999998
1629724816457,-0.819352,-0.53009,0.228933
1629724816467,-0.817949,-0.529358,0.22783499999999998
1629724816476,-0.818132,-0.529785,0.229238
1629724816486,-0.817461,-0.529175,0.230702
1629724816496,-0.818193,-0.529297,0.230458
1629724816505,-0.819352,-0.529419,0.231678
1629724816515,-0.819718,-0.530273,0.231007
1629724816524,-0.819474,-0.529968,0.2318
1629724816534,-0.820206,-0.529907,0.231983
1629724816544,-0.820023,-0.528809,0.23125099999999998
1629724816553,-0.820755,-0.528504,0.230885
1629724816563,-0.820633,-0.529297,0.230153
1629724816572,-0.820572,-0.529419,0.230092
1629724816582,-0.821304,-0.528199,0.229848
1629724816592,-0.821792,-0.529114,0.228506
1629724816601,-0.82167,-0.527955,0.228567
1629724816611,-0.82228,-0.529236,0.228506
1629724816620,-0.82167,-0.528016,0.228323
1629724816630,-0.821121,-0.527955,0.229238
1629724816640,-0.821426,-0.52826,0.229116
1629724816649,-0.821365,-0.528626,0.22997
1629724816659,-0.820816,-0.528748,0.231129
1629724816668,-0.821304,-0.528016,0.23247099999999998
1629724816678,-0.820938,-0.52765,0.233142
1629724816688,-0.821243,-0.527406,0.233752
1629724816697,-0.820877,-0.527101,0.23430099999999998
1629724816707,-0.81984,-0.526674,0.233935
1629724816716,-0.820145,-0.526674,0.234362
1629724816726,-0.821365,-0.52582,0.232288
1629724816736,-0.8227679999999999,-0.525942,0.232105
1629724816745,-0.823012,-0.527772,0.231007
1629724816755,-0.821426,-0.526552,0.231739
1629724816764,-0.822036,-0.525027,0.231495
1629724816774,-0.822036,-0.523685,0.232837
1629724816784,-0.823256,-0.525576,0.23094599999999998
1629724816793,-0.823866,-0.525637,0.229665
1629724816803,-0.824476,-0.523502,0.228933
1629724816812,-0.824659,-0.523868,0.228567
1629724816822,-0.825635,-0.525942,0.228994
1629724816832,-0.826062,-0.530822,0.230519
1629724816841,-0.8264279999999999,-0.531188,0.231434
1629724816851,-0.8249029999999999,-0.528504,0.230214
1629724816860,-0.8236829999999999,-0.523807,0.229848
1629724816870,-0.821548,-0.5216109999999999,0.23058
1629724816880,-0.822402,-0.521062,0.229909
1629724816889,-0.821914,-0.522404,0.23033599999999999
1629724816899,-0.821487,-0.524234,0.228689
1629724816908,-0.821975,-0.524112,0.229177
1629724816918,-0.821914,-0.525576,0.228201
1629724816928,-0.82228,-0.525515,0.229787
1629724816937,-0.821365,-0.525576,0.23064099999999998
1629724816947,-0.820999,-0.526064,0.23155599999999998
1629724816956,-0.820816,-0.524966,0.23216599999999998
1629724816966,-0.821121,-0.524539,0.232593
1629724816976,-0.820694,-0.523807,0.232288
1629724816985,-0.821792,-0.523502,0.230458
1629724816995,-0.82228,-0.524905,0.230519
1629724817004,-0.823256,-0.525698,0.229482
1629724817014,-0.825025,-0.527406,0.22875
1629724817024,-0.8267329999999999,-0.526796,0.229116
1629724817033,-0.8258179999999999,-0.527162,0.229787
1629724817043,-0.825452,-0.52704,0.229909
1629724817052,-0.825452,-0.525759,0.229482
1629724817062,-0.8252079999999999,-0.526125,0.229665
1629724817072,-0.8258179999999999,-0.525759,0.22972599999999999
1629724817081,-0.825086,-0.52643,0.22972599999999999
1629724817091,-0.822341,-0.522892,0.228933
1629724817100,-0.8230729999999999,-0.5200859999999999,0.22752999999999998
1629724817110,-0.823439,-0.52155,0.227957
1629724817120,-0.823927,-0.5240509999999999,0.228079
1629724817129,-0.8249029999999999,-0.527711,0.227774
1629724817139,-0.826184,-0.528626,0.227103
1629724817148,-0.825696,-0.525149,0.226737
1629724817158,-0.8245979999999999,-0.5213059999999999,0.226859
1629724817168,-0.8230729999999999,-0.5200859999999999,0.227896
1629724817177,-0.8230729999999999,-0.520879,0.22813999999999998
1629724817187,-0.824415,-0.522282,0.228506
1629724817196,-0.8239879999999999,-0.522709,0.229055
1629724817206,-0.825086,-0.523197,0.229299
1629724817216,-0.8249029999999999,-0.5237459999999999,0.228567
1629724817225,-0.825086,-0.524356,0.228689
1629724817235,-0.826245,-0.524234,0.228201
1629724817244,-0.826306,-0.524173,0.22813999999999998
1629724817254,-0.826184,-0.5246,0.227713
1629724817264,-0.826062,-0.523807,0.227469
1629724817273,-0.8255129999999999,-0.523929,0.22691999999999998
1629724817283,-0.826184,-0.524295,0.226066
1629724817292,-0.824354,-0.523868,0.226554
1629724817302,-0.8245979999999999,-0.523685,0.226798
1629724817312,-0.825391,-0.524356,0.226737
1629724817321,-0.8252079999999999,-0.52582,0.227652
1629724817331,-0.825269,-0.526186,0.226981
1629724817340,-0.82472,-0.525515,0.226371
1629724817350,-0.824354,-0.524356,0.226798
1629724817360,-0.822951,-0.523197,0.22722499999999998
1629724817369,-0.8224629999999999,-0.522587,0.227652
1629724817379,-0.823439,-0.52338,0.229055
1629724817388,-0.8236829999999999,-0.524356,0.229543
1629724817398,-0.823317,-0.524844,0.229238
1629724817408,-0.8230729999999999,-0.524356,0.229848
1629724817417,-0.822829,-0.524173,0.229238
1629724817427,-0.823317,-0.523258,0.22936
1629724817436,-0.8239879999999999,-0.52338,0.229787
1629724817446,-0.82411,-0.523624,0.22936
1629724817456,-0.8236829999999999,-0.523197,0.22875
1629724817465,-0.8233779999999999,-0.5231359999999999,0.228384
1629724817475,-0.823134,-0.523014,0.228201
1629724817484,-0.8249029999999999,-0.523258,0.228262
1629724817494,-0.8242929999999999,-0.523197,0.22813999999999998
1629724817504,-0.82533,-0.523624,0.227713
1629724817513,-0.824964,-0.5237459999999999,0.228018
1629724817523,-0.826001,-0.523014,0.228079
1629724817532,-0.826916,-0.52338,0.227591
1629724817542,-0.8264279999999999,-0.523563,0.22691999999999998
1629724817552,-0.8261229999999999,-0.5231359999999999,0.228262
1629724817561,-0.8264279999999999,-0.523197,0.227774
1629724817571,-0.8261229999999999,-0.522892,0.228262
1629724817580,-0.826672,-0.5219159999999999,0.228872
1629724817590,-0.8255129999999999,-0.522038,0.229055
1629724817600,-0.824659,-0.52277,0.229299
1629724817609,-0.825269,-0.523502,0.229848
1629724817619,-0.824842,-0.523014,0.229787
1629724817628,-0.824354,-0.523075,0.22972599999999999
1629724817638,-0.823134,-0.523319,0.230153
1629724817648,-0.824171,-0.52216,0.229238
1629724817657,-0.82411,-0.52216,0.228201
1629724817667,-0.825269,-0.5225259999999999,0.227896
1629724817676,-0.824659,-0.5216109999999999,0.228384
1629724817686,-0.826306,-0.521977,0.22752999999999998
1629724817696,-0.826794,-0.522953,0.226981
1629724817705,-0.825086,-0.521855,0.227164
1629724817715,-0.824781,-0.520574,0.227591
1629724817724,-0.826611,-0.520879,0.227347
1629724817734,-0.826306,-0.521489,0.228018
1629724817744,-0.826855,-0.521245,0.226493
1629724817753,-0.8264279999999999,-0.52094,0.225273
1629724817763,-0.828502,-0.521123,0.22569999999999998
1629724817772,-0.828929,-0.523868,0.22630999999999998
1629724817782,-0.829356,-0.527894,0.227347
1629724817792,-0.829356,-0.530212,0.22691999999999998
1629724817801,-0.828319,-0.526857,0.225578
1629724817811,-0.826367,-0.521489,0.225456
1629724817820,-0.824171,-0.518134,0.225822
1629724817830,-0.823012,-0.518073,0.225883
1629724817840,-0.8233779999999999,-0.5191709999999999,0.22539499999999998
1629724817849,-0.823622,-0.5213059999999999,0.225639
1629724817859,-0.824232,-0.522953,0.225212
1629724817868,-0.824659,-0.523624,0.224907
1629724817878,-0.824659,-0.5234409999999999,0.225639
1629724817888,-0.823622,-0.523014,0.226676
1629724817897,-0.823561,-0.5219159999999999,0.227713
1629724817907,-0.8242929999999999,-0.522465,0.22783499999999998
1629724817916,-0.823317,-0.521123,0.228323
1629724817926,-0.823744,-0.52094,0.228689
1629724817936,-0.8252079999999999,-0.52155,0.228262
1629724817945,-0.826245,-0.522282,0.228689
1629724817955,-0.826306,-0.5234409999999999,0.228628
1629724817964,-0.8279529999999999,-0.524417,0.228262
1629724817974,-0.828075,-0.524905,0.22661499999999998
1629724817984,-0.828502,-0.523685,0.226188
1629724817993,-0.828075,-0.5237459999999999,0.225212
1629724818003,-0.8279529999999999,-0.52338,0.226249
1629724818012,-0.828136,-0.523807,0.226737
1629724818022,-0.8288679999999999,-0.523502,0.22691999999999998
1629724818032,-0.828319,-0.524295,0.226676
1629724818041,-0.827465,-0.524417,0.227103
1629724818051,-0.825574,-0.520208,0.226127
1629724818060,-0.825574,-0.519049,0.225029
1629724818070,-0.825696,-0.5200859999999999,0.224541
1629724818080,-0.825635,-0.522953,0.225517
1629724818089,-0.82655,-0.525942,0.223992
1629724818099,-0.82655,-0.525393,0.224663
1629724818108,-0.826001,-0.523258,0.22447999999999999
1629724818118,-0.825086,-0.520452,0.224846
1629724818128,-0.8239879999999999,-0.520269,0.225639
1629724818137,-0.8242929999999999,-0.521245,0.226249
1629724818147,-0.824659,-0.52155,0.227042
1629724818156,-0.824476,-0.521489,0.227042
1629724818166,-0.825086,-0.52216,0.22630999999999998
1629724818176,-0.825635,-0.5231359999999999,0.225944
1629724818185,-0.826367,-0.523014,0.225761
1629724818195,-0.8270379999999999,-0.523624,0.225578
1629724818204,-0.827099,-0.523624,0.225456
1629724818214,-0.827587,-0.523624,0.224907
1629724818224,-0.827404,-0.5237459999999999,0.22478499999999998
1629724818233,-0.828014,-0.523685,0.225151
1629724818243,-0.826672,-0.524478,0.225761
1629724818252,-0.82655,-0.5237459999999999,0.22539499999999998
1629724818262,-0.827587,-0.523868,0.225273
1629724818272,-0.826062,-0.52338,0.22569999999999998
1629724818281,-0.8264279999999999,-0.524417,0.225273
1629724818291,-0.8267329999999999,-0.524417,0.224663
1629724818300,-0.826062,-0.52521,0.224541
1629724818310,-0.82594,-0.524539,0.224907
1629724818320,-0.824415,-0.523258,0.224907
1629724818329,-0.823866,-0.521733,0.225517
1629724818339,-0.8239879999999999,-0.522709,0.225822
1629724818348,-0.824232,-0.523258,0.226432
1629724818358,-0.823622,-0.52277,0.226066
1629724818368,-0.82411,-0.523868,0.225822
1629724818377,-0.8249029999999999,-0.523868,0.226249
1629724818387,-0.825452,-0.523868,0.227469
1629724818396,-0.824171,-0.5237459999999999,0.226737
1629724818406,-0.824354,-0.5234409999999999,0.226737
1629724818416,-0.8252079999999999,-0.522892,0.22508999999999998
1629724818425,-0.825086,-0.5222209999999999,0.225883
1629724818435,-0.824537,-0.522587,0.22417499999999999
1629724818444,-0.8264279999999999,-0.521794,0.222833
1629724818454,-0.826489,-0.522953,0.222589
1629724818464,-0.8264279999999999,-0.522648,0.223504
1629724818473,-0.826184,-0.522953,0.224114
1629724818483,-0.826367,-0.523929,0.223382
1629724818492,-0.826672,-0.5234409999999999,0.225639
1629724818502,-0.826794,-0.5228309999999999,0.225639
1629724818512,-0.826306,-0.52277,0.225456
1629724818521,-0.8261229999999999,-0.523075,0.225822
1629724818531,-0.826306,-0.52399,0.227347
1629724818540,-0.82655,-0.524173,0.22752999999999998
1629724818550,-0.826855,-0.524844,0.226737
1629724818560,-0.8273429999999999,-0.5237459999999999,0.226249
1629724818569,-0.82594,-0.523563,0.22661499999999998
1629724818579,-0.82533,-0.52216,0.226493
1629724818588,-0.825696,-0.521977,0.225578
1629724818598,-0.824842,-0.52277,0.225334
1629724818608,-0.824537,-0.52216,0.22569999999999998
1629724818617,-0.824842,-0.522587,0.22539499999999998
1629724818627,-0.824537,-0.523075,0.22630999999999998
1629724818636,-0.825147,-0.522892,0.22630999999999998
1629724818646,-0.824232,-0.523014,0.226554
1629724818656,-0.825696,-0.522953,0.226493
1629724818665,-0.825025,-0.52216,0.225578
1629724818675,-0.826306,-0.5225259999999999,0.225822
1629724818684,-0.826672,-0.522465,0.224968
1629724818694,-0.826794,-0.523502,0.224968
1629724818704,-0.826367,-0.522648,0.225151
1629724818713,-0.826672,-0.521672,0.22508999999999998
1629724818723,-0.826855,-0.521489,0.22539499999999998
1629724818732,-0.82777,-0.522648,0.224846
1629724818742,-0.826184,-0.5213059999999999,0.223626
1629724818752,-0.827282,-0.519598,0.224419
1629724818761,-0.828197,-0.520208,0.22539499999999998
1629724818771,-0.8291729999999999,-0.523868,0.225151
1629724818780,-0.829417,-0.52765,0.22539499999999998
1629724818790,-0.829661,-0.529175,0.224236
1629724818800,-0.830149,-0.528443,0.222772
1629724818809,-0.828441,-0.524966,0.221735
1629724818819,-0.826855,-0.52033,0.222223
1629724818828,-0.825574,-0.518378,0.221552
1629724818838,-0.825391,-0.518317,0.22143
1629724818848,-0.824537,-0.520635,0.223199
1629724818857,-0.8245979999999999,-0.521977,0.222772
1629724818867,-0.824964,-0.523319,0.223077
1629724818876,-0.8258179999999999,-0.5240509999999999,0.223626
1629724818886,-0.824659,-0.5237459999999999,0.224053
1629724818896,-0.824232,-0.523319,0.224602
1629724818905,-0.823744,-0.522892,0.226249
1629724818915,-0.8245979999999999,-0.522404,0.226249
1629724818924,-0.823195,-0.52277,0.227591
1629724818934,-0.824842,-0.521855,0.22783499999999998
1629724818944,-0.824842,-0.522648,0.227774
1629724818953,-0.82594,-0.52338,0.227103
1629724818963,-0.8261229999999999,-0.52399,0.226554
1629724818972,-0.827221,-0.524295,0.225944
1629724818982,-0.827831,-0.524966,0.224846
1629724818992,-0.827831,-0.525027,0.224663
1629724819001,-0.827709,-0.52521,0.22447999999999999
1629724819011,-0.828197,-0.524112,0.223931
1629724819020,-0.828014,-0.524783,0.224297
1629724819030,-0.827282,-0.525454,0.22508999999999998
1629724819040,-0.826916,-0.52582,0.22539499999999998
1629724819049,-0.825635,-0.525454,0.224724
1629724819059,-0.824659,-0.52216,0.224053
1629724819068,-0.825086,-0.522282,0.223443
1629724819078,-0.824415,-0.5240509999999999,0.224968
1629724819088,-0.825025,-0.525881,0.222833
1629724819097,-0.825452,-0.526857,0.222772
1629724819107,-0.825757,-0.525271,0.222406
1629724819116,-0.8245979999999999,-0.524539,0.222162
1629724819126,-0.82472,-0.524234,0.223504
1629724819136,-0.824171,-0.523075,0.22417499999999999
1629724819145,-0.824049,-0.523807,0.223199
1629724819155,-0.82411,-0.523868,0.223809
1629724819164,-0.8245979999999999,-0.524112,0.22265
1629724819174,-0.824537,-0.524234,0.224419
1629724819184,-0.82472,-0.525515,0.223626
1629724819193,-0.823866,-0.525942,0.223992
1629724819203,-0.8245979999999999,-0.525759,0.223687
1629724819212,-0.825269,-0.525576,0.224846
1629724819222,-0.8264279999999999,-0.526186,0.22386999999999999
1629724819232,-0.8258179999999999,-0.52643,0.223748
1629724819241,-0.8255129999999999,-0.526735,0.223931
1629724819251,-0.8255129999999999,-0.526064,0.22417499999999999
1629724819260,-0.82533,-0.524844,0.223321
1629724819270,-0.824964,-0.524722,0.223504
1629724819280,-0.8245979999999999,-0.524661,0.223077
1629724819289,-0.823927,-0.525454,0.222528
1629724819299,-0.8239879999999999,-0.525942,0.222223
1629724819308,-0.824049,-0.525454,0.222345
1629724819318,-0.824232,-0.525698,0.222223
1629724819328,-0.825025,-0.526064,0.222772
1629724819337,-0.824781,-0.52521,0.22197899999999998
1629724819347,-0.824781,-0.5246,0.222711
1629724819356,-0.823805,-0.5240509999999999,0.223321
1629724819366,-0.823805,-0.524417,0.224419
1629724819376,-0.823927,-0.525454,0.225212
1629724819385,-0.824354,-0.524295,0.224846
1629724819395,-0.824842,-0.525149,0.225578
1629724819404,-0.825391,-0.525027,0.225029
1629724819414,-0.824781,-0.5246,0.224846
1629724819424,-0.825452,-0.524295,0.224358
1629724819433,-0.82594,-0.523563,0.222772
1629724819443,-0.825879,-0.523624,0.22228399999999998
1629724819452,-0.825879,-0.5231359999999999,0.22228399999999998
1629724819462,-0.826794,-0.52338,0.221857
1629724819472,-0.826977,-0.52338,0.222528
1629724819481,-0.827404,-0.5246,0.221308
1629724819491,-0.827465,-0.5234409999999999,0.220942
1629724819500,-0.82716,-0.5240509999999999,0.220881
1629724819510,-0.826977,-0.5234409999999999,0.222345
1629724819520,-0.827587,-0.523502,0.222406
1629724819529,-0.826672,-0.5228309999999999,0.223382
1629724819539,-0.826794,-0.523258,0.22356499999999999
1629724819548,-0.826794,-0.523258,0.223443
1629724819558,-0.826367,-0.523807,0.224663
1629724819568,-0.826489,-0.523014,0.224114
1629724819577,-0.82777,-0.523563,0.224419
1629724819587,-0.826916,-0.523197,0.224541
1629724819596,-0.82716,-0.522709,0.223382
1629724819606,-0.8273429999999999,-0.522465,0.224114
1629724819616,-0.8276479999999999,-0.522465,0.223016
1629724819625,-0.8276479999999999,-0.523563,0.223382
1629724819635,-0.826977,-0.522892,0.223321
1629724819644,-0.826001,-0.523075,0.223443
1629724819654,-0.826367,-0.5231359999999999,0.223321
1629724819664,-0.826001,-0.521794,0.223626
1629724819673,-0.8273429999999999,-0.522282,0.223321
1629724819683,-0.825879,-0.522038,0.223382
1629724819692,-0.8261229999999999,-0.522343,0.223382
1629724819702,-0.826062,-0.521672,0.222223
1629724819712,-0.826855,-0.522465,0.222589
1629724819721,-0.827587,-0.522404,0.222223
1629724819731,-0.826062,-0.522404,0.222833
1629724819740,-0.826062,-0.521855,0.22386999999999999
1629724819750,-0.826794,-0.520879,0.22478499999999998
1629724819760,-0.828075,-0.522282,0.224297
1629724819769,-0.826855,-0.523502,0.223992
1629724819779,-0.82594,-0.5210009999999999,0.221918
1629724819788,-0.827404,-0.52094,0.22204
1629724819798,-0.829661,-0.522648,0.222467
1629724819808,-0.828685,-0.52643,0.223199
1629724819817,-0.829844,-0.529907,0.223016
1629724819827,-0.829539,-0.529907,0.220515
1629724819836,-0.828685,-0.526857,0.220576
1629724819846,-0.827587,-0.523075,0.219478
1629724819856,-0.825452,-0.52033,0.219051
1629724819865,-0.82411,-0.519964,0.219783
1629724819875,-0.823256,-0.521062,0.220271
1629724819884,-0.82411,-0.522648,0.22143
1629724819894,-0.823927,-0.524173,0.221186
1629724819904,-0.823744,-0.525576,0.221613
1629724819913,-0.823927,-0.524966,0.222711
1629724819923,-0.823622,-0.525271,0.224053
1629724819932,-0.824232,-0.5246,0.224114
1629724819942,-0.823256,-0.523685,0.225578
1629724819952,-0.823195,-0.522587,0.225578
1629724819961,-0.8245979999999999,-0.521977,0.22569999999999998
1629724819971,-0.825452,-0.522709,0.22508999999999998
1629724819980,-0.825635,-0.523258,0.224297
1629724819990,-0.826672,-0.525515,0.223382
1629724820000,-0.827526,-0.525271,0.22204
1629724820009,-0.827709,-0.526308,0.221918
1629724820019,-0.8282579999999999,-0.524539,0.220271
1629724820028,-0.8285629999999999,-0.5240509999999999,0.220393
1629724820038,-0.82838,-0.523319,0.220942
1629724820048,-0.827465,-0.524112,0.22106399999999998
1629724820057,-0.828685,-0.5237459999999999,0.222101
1629724820067,-0.828685,-0.524478,0.223199
1629724820076,-0.826611,-0.523197,0.222345
1629724820086,-0.8270379999999999,-0.521062,0.22143
1629724820096,-0.826916,-0.522465,0.221918
1629724820105,-0.8264279999999999,-0.522648,0.223138
1629724820115,-0.82777,-0.525027,0.22075899999999998
1629724820124,-0.8264279999999999,-0.523868,0.221186
1629724820134,-0.825696,-0.523319,0.222406
1629724820144,-0.824842,-0.5225259999999999,0.221125
1629724820153,-0.8245979999999999,-0.522038,0.222101
1629724820163,-0.824476,-0.522099,0.222162
1629724820172,-0.824354,-0.5216109999999999,0.222162
1629724820182,-0.82472,-0.5222209999999999,0.22228399999999998
1629724820192,-0.825574,-0.522404,0.222101
1629724820201,-0.825696,-0.523014,0.222223
1629724820211,-0.826184,-0.524112,0.222955
1629724820220,-0.82655,-0.524478,0.223748
1629724820230,-0.8261229999999999,-0.524173,0.222772
1629724820240,-0.827465,-0.524661,0.222833
1629724820249,-0.828136,-0.52521,0.223809
1629724820259,-0.827892,-0.524722,0.223138
1629724820268,-0.828075,-0.524966,0.22197899999999998
1629724820278,-0.826916,-0.524173,0.221918
1629724820288,-0.827221,-0.523807,0.222467
1629724820297,-0.826916,-0.524783,0.22167399999999998
1629724820307,-0.826001,-0.5246,0.22197899999999998
1629724820316,-0.8252079999999999,-0.523868,0.221308
1629724820326,-0.8261229999999999,-0.524234,0.22204
1629724820336,-0.825391,-0.524112,0.22167399999999998
1629724820345,-0.824659,-0.523929,0.221552
1629724820355,-0.826184,-0.523868,0.221857
1629724820364,-0.824842,-0.523502,0.22204
1629724820374,-0.825879,-0.523319,0.222589
1629724820384,-0.824842,-0.522465,0.22326
1629724820393,-0.8255129999999999,-0.522648,0.224602
1629724820403,-0.825574,-0.522038,0.22417499999999999
1629724820412,-0.825452,-0.5228309999999999,0.224968
1629724820422,-0.826794,-0.523075,0.22447999999999999
1629724820432,-0.826001,-0.5222209999999999,0.224358
1629724820441,-0.826855,-0.5225259999999999,0.223382
1629724820451,-0.826489,-0.522953,0.222528
1629724820460,-0.826855,-0.5216109999999999,0.224114
1629724820470,-0.8258179999999999,-0.52155,0.223626
1629724820480,-0.827282,-0.520635,0.22204
1629724820489,-0.827282,-0.520574,0.22228399999999998
1629724820499,-0.827221,-0.521367,0.221796
1629724820508,-0.827526,-0.5213059999999999,0.221796
1629724820518,-0.828685,-0.522282,0.22228399999999998
1629724820528,-0.829295,-0.521672,0.222894
1629724820537,-0.8294779999999999,-0.521977,0.222589
1629724820547,-0.8294779999999999,-0.5213059999999999,0.222833
1629724820556,-0.828807,-0.52094,0.223321
1629724820566,-0.828685,-0.521062,0.223016
1629724820576,-0.8294779999999999,-0.521245,0.223626
1629724820585,-0.828746,-0.520452,0.223138
1629724820595,-0.827709,-0.5210009999999999,0.223382
1629724820604,-0.829295,-0.521672,0.22386999999999999
1629724820614,-0.828014,-0.520818,0.223748
1629724820624,-0.827587,-0.521123,0.223382
1629724820633,-0.828746,-0.521733,0.223016
1629724820643,-0.828136,-0.5216109999999999,0.222711
1629724820652,-0.827099,-0.52033,0.22228399999999998
1629724820662,-0.82655,-0.5206959999999999,0.222528
1629724820672,-0.82655,-0.520269,0.222589
1629724820681,-0.826855,-0.521184,0.223016
1629724820691,-0.827465,-0.521489,0.223321
1629724820700,-0.827282,-0.521977,0.223809
1629724820710,-0.82716,-0.520757,0.223382
1629724820720,-0.827892,-0.52094,0.223626
1629724820729,-0.82838,-0.520879,0.222467
1629724820739,-0.828075,-0.521367,0.222528
1629724820748,-0.828624,-0.522587,0.221735
1629724820758,-0.827587,-0.523075,0.221918
1629724820768,-0.8273429999999999,-0.520818,0.222162
1629724820777,-0.826916,-0.519659,0.222467
1629724820787,-0.827282,-0.520452,0.222406
1629724820796,-0.826306,-0.521367,0.222467
1629724820806,-0.825757,-0.5197809999999999,0.222101
1629724820816,-0.8288679999999999,-0.520452,0.22143
1629724820825,-0.82899,-0.5219159999999999,0.222345
1629724820835,-0.8297829999999999,-0.525332,0.222772
1629724820844,-0.829051,-0.528504,0.223138
1629724820854,-0.829844,-0.52826,0.222406
1629724820864,-0.829417,-0.52521,0.22265
1629724820873,-0.827099,-0.5213059999999999,0.222345
1629724820883,-0.826001,-0.5182559999999999,0.22265
1629724820892,-0.82472,-0.518195,0.221796
1629724820902,-0.825025,-0.518683,0.222345
1629724820912,-0.825696,-0.5210009999999999,0.221918
1629724820921,-0.825452,-0.5228309999999999,0.221796
1629724820931,-0.8245979999999999,-0.523502,0.222345
1629724820940,-0.824842,-0.523563,0.223809
1629724820950,-0.824842,-0.523014,0.223138
1629724820960,-0.824049,-0.5228309999999999,0.224724
1629724820969,-0.823927,-0.521733,0.225517
1629724820979,-0.823866,-0.522343,0.225944
1629724820988,-0.823866,-0.52155,0.224541
1629724820998,-0.82472,-0.521794,0.22447999999999999
1629724821008,-0.8261229999999999,-0.523258,0.225029
1629724821017,-0.826001,-0.52399,0.223809
1629724821027,-0.8273429999999999,-0.525515,0.223504
1629724821036,-0.8282579999999999,-0.524844,0.222955
1629724821046,-0.828746,-0.525393,0.222833
1629724821056,-0.8279529999999999,-0.5246,0.222772
1629724821065,-0.828746,-0.524783,0.222833
1629724821075,-0.829234,-0.5246,0.22326
1629724821084,-0.827404,-0.524966,0.224236
1629724821094,-0.825696,-0.522282,0.22228399999999998
1629724821104,-0.825391,-0.518195,0.221552
1629724821113,-0.825391,-0.519903,0.221857
1629724821123,-0.8261229999999999,-0.521733,0.22326
1629724821132,-0.826855,-0.525759,0.222223
1629724821142,-0.826916,-0.526369,0.222223
1629724821152,-0.82777,-0.526003,0.221857
1629724821161,-0.8264279999999999,-0.523624,0.220881
1629724821171,-0.82533,-0.521062,0.221613
1629724821180,-0.82411,-0.51972,0.223138
1629724821190,-0.824476,-0.519964,0.224541
1629724821200,-0.825452,-0.520818,0.224724
1629724821209,-0.825879,-0.5216109999999999,0.223626
1629724821219,-0.8264279999999999,-0.523075,0.223626
1629724821228,-0.826245,-0.524112,0.223443
1629724821238,-0.8279529999999999,-0.524356,0.22326
1629724821248,-0.827404,-0.523563,0.222162
1629724821257,-0.827282,-0.523624,0.222406
1629724821267,-0.827587,-0.523563,0.222833
1629724821276,-0.827404,-0.524356,0.222772
1629724821286,-0.826489,-0.52399,0.222894
1629724821296,-0.826916,-0.523624,0.222955
1629724821305,-0.82655,-0.523502,0.22265
1629724821315,-0.825757,-0.523624,0.222772
1629724821324,-0.8264279999999999,-0.52338,0.223077
1629724821334,-0.826855,-0.523502,0.223809
1629724821344,-0.8270379999999999,-0.524478,0.223626
1629724821353,-0.8264279999999999,-0.525149,0.222528
1629724821363,-0.826245,-0.523197,0.222223
1629724821372,-0.824964,-0.523502,0.222772
1629724821382,-0.825086,-0.522343,0.223931
1629724821392,-0.824476,-0.5222209999999999,0.223626
1629724821401,-0.823927,-0.521489,0.224907
1629724821411,-0.824659,-0.521794,0.225273
1629724821420,-0.8242929999999999,-0.5219159999999999,0.225883
1629724821430,-0.825696,-0.522282,0.226249
1629724821440,-0.8252079999999999,-0.523014,0.226249
1629724821449,-0.825696,-0.522343,0.226249
1629724821459,-0.825391,-0.522587,0.22630999999999998
1629724821468,-0.826611,-0.522038,0.225944
1629724821478,-0.827526,-0.522099,0.22508999999999998
1629724821488,-0.8273429999999999,-0.5219159999999999,0.224907
1629724821497,-0.826977,-0.522038,0.224053
1629724821507,-0.827282,-0.522343,0.223138
1629724821516,-0.827465,-0.522282,0.222772
1629724821526,-0.826794,-0.521855,0.223077
1629724821536,-0.82777,-0.52216,0.222955
1629724821545,-0.82716,-0.522953,0.222772
1629724821555,-0.826916,-0.523075,0.223382
1629724821564,-0.8282579999999999,-0.522648,0.223626
1629724821574,-0.8285629999999999,-0.521489,0.22386999999999999
1629724821584,-0.828197,-0.5216109999999999,0.223382
1629724821593,-0.826977,-0.520818,0.223748
1629724821603,-0.826672,-0.521489,0.22417499999999999
1629724821612,-0.826062,-0.522038,0.224541
1629724821622,-0.826672,-0.520818,0.224724
1629724821632,-0.826184,-0.521794,0.224236
1629724821641,-0.8270379999999999,-0.521184,0.22600499999999998
1629724821651,-0.82655,-0.522099,0.22600499999999998
1629724821660,-0.827404,-0.5228309999999999,0.225212
1629724821670,-0.826611,-0.521794,0.225029
1629724821680,-0.8270379999999999,-0.5213059999999999,0.22447999999999999
1629724821689,-0.826306,-0.521123,0.224053
1629724821699,-0.828014,-0.520452,0.22228399999999998
1629724821708,-0.828624,-0.523014,0.222101
1629724821718,-0.8273429999999999,-0.523075,0.221186
1629724821728,-0.827221,-0.521062,0.22167399999999998
1629724821737,-0.82594,-0.5206959999999999,0.221857
1629724821747,-0.826794,-0.519232,0.22204
1629724821756,-0.828014,-0.521977,0.221613
1629724821766,-0.827831,-0.522587,0.221735
1629724821776,-0.828807,-0.5219159999999999,0.22197899999999998
1629724821785,-0.829661,-0.52155,0.222162
1629724821795,-0.8300879999999999,-0.523807,0.222589
1629724821804,-0.829356,-0.527406,0.223321
1629724821814,-0.828319,-0.527406,0.224541
1629724821824,-0.828075,-0.524966,0.225029
1629724821833,-0.8270379999999999,-0.520757,0.225029
1629724821843,-0.826245,-0.518805,0.222955
1629724821852,-0.82533,-0.519232,0.222467
1629724821862,-0.825391,-0.52033,0.22204
1629724821872,-0.826489,-0.52155,0.222101
1629724821881,-0.826184,-0.523014,0.222223
1629724821891,-0.825269,-0.523502,0.222772
1629724821900,-0.825696,-0.5231359999999999,0.224053
1629724821910,-0.8255129999999999,-0.52277,0.225334
1629724821920,-0.82411,-0.522648,0.225822
1629724821929,-0.823866,-0.522892,0.22752999999999998
1629724821939,-0.823622,-0.523075,0.227347
1629724821948,-0.825635,-0.522282,0.225883
1629724821958,-0.825452,-0.5222209999999999,0.224968
1629724821968,-0.826306,-0.523014,0.223931
1629724821977,-0.826672,-0.52338,0.222711
1629724821987,-0.827221,-0.525027,0.222955
1629724821996,-0.828441,-0.525576,0.223138
1629724822006,-0.828319,-0.525759,0.223382
1629724822016,-0.828075,-0.524478,0.222589
1629724822025,-0.827221,-0.524417,0.223748
1629724822035,-0.82716,-0.524234,0.225151
1629724822044,-0.826184,-0.525088,0.224602
1629724822054,-0.82411,-0.520269,0.223504
1629724822064,-0.82594,-0.5200859999999999,0.223016
1629724822073,-0.825269,-0.520879,0.223748
1629724822083,-0.826916,-0.524722,0.223321
1629724822092,-0.8267329999999999,-0.526796,0.223992
1629724822102,-0.827404,-0.524844,0.222833
1629724822112,-0.82533,-0.522343,0.22204
1629724822121,-0.824476,-0.5210009999999999,0.222162
1629724822131,-0.824354,-0.51911,0.223077
1629724822140,-0.8242929999999999,-0.519537,0.223687
1629724822150,-0.823195,-0.519598,0.224297
1629724822160,-0.825025,-0.520879,0.224968
1629724822169,-0.8261229999999999,-0.5222209999999999,0.225273
1629724822179,-0.826672,-0.523258,0.225517
1629724822188,-0.827099,-0.524173,0.225334
1629724822198,-0.827221,-0.525332,0.225456
1629724822208,-0.828075,-0.523929,0.224541
1629724822217,-0.827465,-0.523563,0.223321
1629724822227,-0.8276479999999999,-0.523075,0.223443
1629724822236,-0.828014,-0.52277,0.222955
1629724822246,-0.827465,-0.5219159999999999,0.221125
1629724822256,-0.828624,-0.522953,0.221735
1629724822265,-0.828319,-0.5231359999999999,0.222101
1629724822275,-0.828075,-0.5234409999999999,0.220393
1629724822284,-0.828929,-0.5234409999999999,0.22143
1629724822294,-0.828319,-0.524417,0.220942
1629724822304,-0.827526,-0.523014,0.22014899999999998
1629724822313,-0.826489,-0.52216,0.220332
1629724822323,-0.826306,-0.5216109999999999,0.221308
1629724822332,-0.825147,-0.5206959999999999,0.221796
1629724822342,-0.826306,-0.521123,0.222772
1629724822352,-0.826062,-0.5213059999999999,0.22447999999999999
1629724822361,-0.825757,-0.521489,0.225456
1629724822371,-0.826245,-0.521733,0.226249
1629724822380,-0.825269,-0.521855,0.226188
1629724822390,-0.826245,-0.52216,0.22661499999999998
1629724822400,-0.825635,-0.521367,0.22569999999999998
1629724822409,-0.8270379999999999,-0.521062,0.224541
1629724822419,-0.8273429999999999,-0.520818,0.224053
1629724822428,-0.826916,-0.520574,0.22356499999999999
1629724822438,-0.827526,-0.521367,0.22265
1629724822448,-0.828746,-0.521184,0.22197899999999998
1629724822457,-0.8288679999999999,-0.521245,0.221918
1629724822467,-0.829051,-0.5219159999999999,0.220698
1629724822476,-0.8294779999999999,-0.520513,0.22021
1629724822486,-0.828685,-0.520574,0.221186
1629724822496,-0.828746,-0.520818,0.221125
1629724822505,-0.828441,-0.519903,0.221735
1629724822515,-0.827892,-0.520635,0.22197899999999998
1629724822524,-0.828075,-0.521367,0.223992
1629724822534,-0.827709,-0.521428,0.224724
1629724822544,-0.829051,-0.521062,0.224846
1629724822553,-0.827892,-0.520269,0.226066
1629724822563,-0.827831,-0.521062,0.225822
1629724822572,-0.827282,-0.520452,0.22569999999999998
1629724822582,-0.826672,-0.519537,0.224724
1629724822592,-0.826245,-0.519598,0.224114
1629724822601,-0.828319,-0.519964,0.22386999999999999
1629724822611,-0.8285629999999999,-0.520757,0.22197899999999998
1629724822620,-0.827526,-0.521062,0.222467
1629724822630,-0.82655,-0.519964,0.222711
1629724822640,-0.826611,-0.5185,0.222894
1629724822649,-0.827526,-0.519964,0.222955
1629724822659,-0.827587,-0.521672,0.223077
1629724822668,-0.828441,-0.521184,0.22167399999999998
1629724822678,-0.8279529999999999,-0.5210009999999999,0.220027
1629724822688,-0.8294779999999999,-0.520757,0.219661
1629724822697,-0.830576,-0.524112,0.221613
1629724822707,-0.8300879999999999,-0.527528,0.221918
1629724822716,-0.830637,-0.527162,0.22228399999999998
1629724822726,-0.828624,-0.523258,0.223626
1629724822736,-0.826794,-0.520635,0.222467
1629724822745,-0.8270379999999999,-0.519049,0.22204
1629724822755,-0.825147,-0.519598,0.22136899999999998
1629724822764,-0.826672,-0.52033,0.220942
1629724822774,-0.826306,-0.522343,0.221735
1629724822784,-0.826306,-0.523075,0.220332
1629724822793,-0.8258179999999999,-0.5225259999999999,0.220881
1629724822803,-0.824964,-0.522282,0.222833
1629724822812,-0.8235,-0.5231359999999999,0.223626
1629724822822,-0.823622,-0.522282,0.225334
1629724822832,-0.823256,-0.5228309999999999,0.22569999999999998
1629724822841,-0.8235,-0.521489,0.225639
1629724822851,-0.824232,-0.521489,0.224907
1629724822860,-0.8255129999999999,-0.522343,0.22447999999999999
1629724822870,-0.826245,-0.523929,0.224236
1629724822880,-0.827282,-0.524783,0.224297
1629724822889,-0.828136,-0.525393,0.223992
1629724822899,-0.827587,-0.525088,0.222589
1629724822908,-0.828502,-0.524722,0.223016
1629724822918,-0.82899,-0.524478,0.222833
1629724822928,-0.828014,-0.524661,0.22386999999999999
1629724822937,-0.8285629999999999,-0.524417,0.223504
1629724822947,-0.828319,-0.524844,0.222894
1629724822956,-0.826794,-0.5234409999999999,0.222833
1629724822966,-0.825269,-0.519842,0.221247
1629724822976,-0.8273429999999999,-0.518988,0.219722
1629724822985,-0.826367,-0.52033,0.222101
1629724822995,-0.826916,-0.525393,0.22106399999999998
1629724823004,-0.8279529999999999,-0.526064,0.22045399999999998
1629724823014,-0.82777,-0.524295,0.219783
1629724823024,-0.825879,-0.521855,0.219783
1629724823033,-0.826001,-0.520635,0.220942
1629724823043,-0.826367,-0.519598,0.222162
1629724823052,-0.82594,-0.52033,0.221857
1629724823062,-0.826062,-0.521245,0.22265
1629724823072,-0.825879,-0.52277,0.222894
1629724823081,-0.826489,-0.523624,0.222101
1629724823091,-0.8267329999999999,-0.523197,0.221735
1629724823100,-0.8276479999999999,-0.524295,0.221308
1629724823110,-0.8288679999999999,-0.524234,0.221247
1629724823120,-0.828441,-0.523685,0.22143
1629724823129,-0.828807,-0.523624,0.220942
1629724823139,-0.828014,-0.5240509999999999,0.220088
1629724823148,-0.828014,-0.523319,0.219783
1629724823158,-0.8276479999999999,-0.523319,0.21984399999999998
1629724823168,-0.827526,-0.523929,0.219051
1629724823177,-0.827282,-0.523929,0.219112
1629724823187,-0.8270379999999999,-0.523868,0.219722
1629724823196,-0.8270379999999999,-0.524783,0.218441
1629724823206,-0.827282,-0.52399,0.21923399999999998
1629724823216,-0.825879,-0.5234409999999999,0.218563
1629724823225,-0.826062,-0.521672,0.218868
1629724823235,-0.825452,-0.521489,0.219722
1629724823244,-0.82533,-0.52155,0.221552
1629724823254,-0.825452,-0.52277,0.222101
1629724823264,-0.8261229999999999,-0.522709,0.222406
1629724823273,-0.825757,-0.52338,0.224114
1629724823283,-0.82594,-0.523258,0.223199
1629724823292,-0.826367,-0.522953,0.223626
1629724823302,-0.826306,-0.522343,0.22356499999999999
1629724823312,-0.827282,-0.522648,0.22265
1629724823321,-0.82716,-0.521489,0.221125
1629724823331,-0.827892,-0.5219159999999999,0.221552
1629724823340,-0.826916,-0.522099,0.221308
1629724823350,-0.828197,-0.5228309999999999,0.22045399999999998
1629724823360,-0.828807,-0.522953,0.22082
1629724823369,-0.828502,-0.522953,0.220698
1629724823379,-0.8291729999999999,-0.522648,0.21838
1629724823388,-0.8291729999999999,-0.522404,0.21831899999999999
1629724823398,-0.8291729999999999,-0.521428,0.2196
1629724823408,-0.828319,-0.520757,0.21899
1629724823417,-0.8276479999999999,-0.5210009999999999,0.220332
1629724823427,-0.828014,-0.52155,0.220637
1629724823436,-0.827465,-0.522404,0.221796
1629724823446,-0.8276479999999999,-0.5228309999999999,0.222528
1629724823456,-0.827892,-0.5213059999999999,0.224297
1629724823465,-0.827465,-0.52155,0.223687
1629724823475,-0.827709,-0.521428,0.223016
1629724823484,-0.827526,-0.521123,0.222833
1629724823494,-0.8270379999999999,-0.520635,0.222467
1629724823504,-0.827831,-0.520147,0.220942
1629724823513,-0.8279529999999999,-0.521428,0.221186
1629724823523,-0.82838,-0.522343,0.219783
1629724823532,-0.828319,-0.52094,0.221552
1629724823542,-0.8276479999999999,-0.519659,0.22167399999999998
1629724823552,-0.82838,-0.519842,0.222101
1629724823561,-0.827892,-0.522038,0.222528
1629724823571,-0.8279529999999999,-0.521794,0.221003
1629724823580,-0.829112,-0.520635,0.22014899999999998
1629724823590,-0.8313079999999999,-0.5206959999999999,0.2196
1629724823600,-0.830454,-0.5222209999999999,0.219661
1629724823609,-0.8306979999999999,-0.526308,0.221247
1629724823619,-0.830149,-0.528565,0.221247
1629724823628,-0.829234,-0.524844,0.22136899999999998
1629724823638,-0.8279529999999999,-0.521184,0.221796
1629724823648,-0.826367,-0.5182559999999999,0.220698
1629724823657,-0.825269,-0.517707,0.220515
1629724823667,-0.825269,-0.5194759999999999,0.2196
1629724823676,-0.8255129999999999,-0.521245,0.219173
1629724823686,-0.825696,-0.521489,0.21899
1629724823696,-0.824842,-0.52277,0.219356
1629724823705,-0.825879,-0.522038,0.219478
1629724823715,-0.825086,-0.5228309999999999,0.220576
1629724823724,-0.824842,-0.5225259999999999,0.221125
1629724823734,-0.824964,-0.522404,0.222528
1629724823744,-0.825391,-0.521794,0.223016
1629724823753,-0.8261229999999999,-0.5206959999999999,0.22265
1629724823763,-0.827404,-0.5216109999999999,0.221552
1629724823772,-0.827465,-0.5225259999999999,0.221796
1629724823782,-0.8297829999999999,-0.5246,0.222223
1629724823792,-0.830454,-0.524417,0.22075899999999998
1629724823801,-0.8303929999999999,-0.524722,0.22082
1629724823811,-0.830149,-0.524234,0.22082
1629724823820,-0.83082,-0.523685,0.219112
1629724823830,-0.829966,-0.5237459999999999,0.219295
1629724823840,-0.830271,-0.522953,0.220332
1629724823849,-0.829356,-0.522709,0.220576
1629724823859,-0.828929,-0.523319,0.22082
1629724823868,-0.828014,-0.523319,0.219478
1629724823878,-0.826855,-0.519293,0.218258
1629724823888,-0.827099,-0.518195,0.218258
1629724823897,-0.826672,-0.519842,0.219722
1629724823907,-0.827709,-0.5237459999999999,0.219661
1629724823916,-0.828685,-0.526064,0.218441
1629724823926,-0.8288679999999999,-0.525088,0.218868
1629724823936,-0.827892,-0.521977,0.218563
1629724823945,-0.826489,-0.5194759999999999,0.219112
1629724823955,-0.826672,-0.52033,0.220576
1629724823964,-0.826916,-0.521184,0.221125
1629724823974,-0.82777,-0.521977,0.221247
1629724823984,-0.828075,-0.522587,0.220088
1629724823993,-0.826977,-0.5216109999999999,0.21953899999999998
1629724824003,-0.8276479999999999,-0.523014,0.219905
1629724824012,-0.827526,-0.523685,0.219051
1629724824022,-0.828197,-0.524539,0.218868
1629724824032,-0.828746,-0.523563,0.21923399999999998
1629724824041,-0.829051,-0.523929,0.219112
1629724824051,-0.8296,-0.523868,0.219051
1629724824060,-0.827465,-0.5231359999999999,0.219051
1629724824070,-0.828319,-0.523197,0.21899
1629724824080,-0.827831,-0.5222209999999999,0.219173
1629724824089,-0.826916,-0.5228309999999999,0.21899
1629724824099,-0.827282,-0.523807,0.218136
1629724824108,-0.826977,-0.5240509999999999,0.218136
1629724824118,-0.82716,-0.525088,0.218075
1629724824128,-0.827099,-0.523319,0.217038
1629724824137,-0.826855,-0.522892,0.217343
1629724824147,-0.826245,-0.5213059999999999,0.21831899999999999
1629724824156,-0.825696,-0.521428,0.218441
1629724824166,-0.82655,-0.522099,0.220027
1629724824176,-0.8255129999999999,-0.5228309999999999,0.220088
1629724824185,-0.8267329999999999,-0.523258,0.220515
1629724824195,-0.826001,-0.52338,0.22075899999999998
1629724824204,-0.826306,-0.522953,0.220942
