timestamp,ax,ay,az
1629724976049,-0.46677199999999996,-0.040138,-0.876875
1629724976058,-0.467626,-0.038186,-0.876143
1629724976068,-0.468053,-0.039894,-0.877119
1629724976077,-0.468663,-0.040443,-0.879925
1629724976087,-0.46909,-0.042029,-0.8824259999999999
1629724976097,-0.468114,-0.044102999999999996,-0.884134
1629724976106,-0.467321,-0.045384,-0.8870009999999999
1629724976116,-0.468663,-0.046665,-0.886879
1629724976125,-0.466955,-0.047945999999999996,-0.887062
1629724976135,-0.466223,-0.04758,-0.88816
1629724976145,-0.465674,-0.047945999999999996,-0.887733
1629724976154,-0.464271,-0.049654,-0.888404
1629724976164,-0.46341699999999997,-0.050081,-0.887672
1629724976173,-0.463295,-0.050386,-0.887977
1629724976183,-0.46177,-0.05246,-0.886818
1629724976193,-0.46055,-0.052399,-0.886208
1629724976202,-0.46097699999999997,-0.053985,-0.884195
1629724976212,-0.459269,-0.055754,-0.881877
1629724976221,-0.458903,-0.056303,-0.8805959999999999
1629724976231,-0.458354,-0.056364,-0.878827
1629724976241,-0.457439,-0.057157,-0.877973
1629724976250,-0.455853,-0.057523,-0.879315
1629724976260,-0.454877,-0.05734,-0.8805959999999999
1629724976269,-0.453962,-0.058072,-0.879254
1629724976279,-0.451949,-0.060146,-0.8799859999999999
1629724976289,-0.45200999999999997,-0.061732,-0.880108
1629724976298,-0.451278,-0.063196,-0.880535
1629724976308,-0.448899,-0.065026,-0.877729
1629724976317,-0.450241,-0.067649,-0.877607
1629724976327,-0.450729,-0.068686,-0.87718
1629724976337,-0.450058,-0.068747,-0.8772409999999999
1629724800006,-0.923113,-0.58682,-0.130113
1629724800015,-0.916647,-0.581818,-0.143228
1629724800025,-0.909937,-0.582306,-0.155733
1629724800034,-0.900482,-0.5839529999999999,-0.169092
1629724800044,-0.891088,-0.58255,-0.180194
1629724800054,-0.878278,-0.58255,-0.19154
1629724800063,-0.864431,-0.5854779999999999,-0.20227599999999998
1629724800073,-0.844606,-0.57767,-0.212341
1629724800082,-0.824964,-0.570472,-0.22539499999999998
1629724800092,-0.80154,-0.565348,-0.23369099999999998
1629724800102,-0.782386,-0.568093,-0.23802199999999998
1629724800111,-0.7643909999999999,-0.576694,-0.238754
1629724800121,-0.751459,-0.591517,-0.235033
1629724800130,-0.743956,-0.606218,-0.23155599999999998
1629724800140,-0.735965,-0.615185,-0.232288
1629724800150,-0.72102,-0.6092069999999999,-0.240279
1629724800159,-0.696803,-0.598715,-0.254553
1629724800169,-0.675758,-0.598959,-0.266143
1629724800178,-0.658983,-0.604144,-0.27633
1629724800188,-0.645929,-0.610915,-0.28426
1629724800198,-0.6347659999999999,-0.620309,-0.291092
1629724800207,-0.626714,-0.630069,-0.293898
1629724800217,-0.623847,-0.639463,-0.292068
1629724800226,-0.621041,-0.643733,-0.288408
1629724800236,-0.619455,-0.6402559999999999,-0.288103
1629724800246,-0.614758,-0.636108,-0.291031
1629724800255,-0.607499,-0.634888,-0.299449
1629724800265,-0.602985,-0.635132,-0.308965
1629724800274,-0.602497,-0.642147,-0.31921299999999997
1629724800284,-0.6039,-0.648186,-0.323483
1629724800294,-0.606035,-0.650809,-0.327753
1629724800303,-0.603046,-0.64721,-0.33336499999999997
1629724800313,-0.599508,-0.64477,-0.337513
1629724800322,-0.596031,-0.6454409999999999,-0.343125
1629724800332,-0.5955429999999999,-0.649955,-0.347456
1629724800342,-0.5949329999999999,-0.653676,-0.353617
1629724800351,-0.593225,-0.654469,-0.35953399999999996
1629724800361,-0.59353,-0.65453,-0.362096
1629724800370,-0.596092,-0.654774,-0.361669
1629724800380,-0.595909,-0.6527,-0.364292
1629724800390,-0.595787,-0.648186,-0.36667099999999997
1629724800399,-0.595421,-0.643428,-0.371307
1629724800409,-0.5955429999999999,-0.645075,-0.375089
1629724800418,-0.598776,-0.649345,-0.376675
1629724800428,-0.603778,-0.653066,-0.373137
1629724800438,-0.61,-0.655628,-0.370514
1629724800447,-0.612928,-0.6569699999999999,-0.367525
1629724800457,-0.6159169999999999,-0.651419,-0.36539
1629724800466,-0.617564,-0.649833,-0.36575599999999997
1629724800476,-0.626165,-0.653005,-0.363438
1629724800486,-0.631655,-0.657641,-0.36667099999999997
1629724800495,-0.635742,-0.657458,-0.371429
1629724800505,-0.639219,-0.6554449999999999,-0.375272
1629724800514,-0.643062,-0.650138,-0.379054
1629724800524,-0.6439159999999999,-0.649406,-0.384056
1629724800534,-0.646905,-0.647515,-0.381067
1629724800543,-0.652822,-0.645929,-0.36911099999999997
1629724800553,-0.657458,-0.648064,-0.354471
1629724800562,-0.664229,-0.655506,-0.335744
1629724800572,-0.670878,-0.665266,-0.312686
1629724800582,-0.678198,-0.672403,-0.292251
1629724800591,-0.685945,-0.678991,-0.274988
1629724800601,-0.687653,-0.678686,-0.270718
1629724800610,-0.686982,-0.674843,-0.275232
1629724800620,-0.6849689999999999,-0.67222,-0.283345
1629724800630,-0.681248,-0.664961,-0.29426399999999997
1629724800639,-0.678381,-0.657031,-0.305488
1629724800649,-0.67588,-0.65026,-0.318664
1629724800658,-0.673318,-0.63989,-0.333243
1629724800668,-0.6682549999999999,-0.628971,-0.350933
1629724800678,-0.6621549999999999,-0.61915,-0.368074
1629724800687,-0.655384,-0.61183,-0.38295799999999997
1629724800697,-0.651114,-0.609573,-0.39344999999999997
1629724800706,-0.648186,-0.60817,-0.399733
1629724800716,-0.645563,-0.606279,-0.406016
1629724800726,-0.641598,-0.604693,-0.410164
1629724800735,-0.6405609999999999,-0.602131,-0.409615
1629724800745,-0.6399509999999999,-0.601094,-0.406138
1629724800754,-0.6423909999999999,-0.601826,-0.40089199999999997
1629724800764,-0.64355,-0.60268,-0.397232
1629724800774,-0.644953,-0.602558,-0.39253499999999997
1629724800783,-0.646234,-0.603839,-0.389912
1629724800793,-0.648247,-0.604571,-0.387594
1629724800802,-0.651968,-0.60573,-0.384361
1629724800812,-0.654042,-0.606279,-0.38112799999999997
1629724800822,-0.653066,-0.6082919999999999,-0.378139
1629724800831,-0.655262,-0.608536,-0.374967
1629724800841,-0.6563599999999999,-0.614209,-0.374296
1629724800850,-0.657763,-0.617198,-0.374662
1629724800860,-0.658983,-0.61793,-0.37515
1629724800870,-0.661118,-0.616649,-0.375272
1629724800879,-0.663802,-0.6189669999999999,-0.374052
1629724800889,-0.666181,-0.620126,-0.373076
1629724800898,-0.6627649999999999,-0.615978,-0.374601
1629724800908,-0.663192,-0.615734,-0.38186
1629724800918,-0.664656,-0.615673,-0.38308
1629724800927,-0.6670349999999999,-0.612318,-0.386008
1629724800937,-0.669231,-0.614636,-0.38978999999999997
1629724800946,-0.6691699999999999,-0.6107319999999999,-0.390766
1629724800956,-0.668377,-0.610854,-0.394304
1629724800966,-0.672098,-0.615795,-0.39527999999999996
1629724800975,-0.678442,-0.6180519999999999,-0.399184
1629724800985,-0.679906,-0.617503,-0.404125
1629724800994,-0.680516,-0.615368,-0.409127
1629724801004,-0.678991,-0.61183,-0.414312
1629724801014,-0.678259,-0.606767,-0.423279
1629724801023,-0.675819,-0.601033,-0.43005
1629724801033,-0.674111,-0.595116,-0.432124
1629724801042,-0.669963,-0.58743,-0.435784
1629724801052,-0.665449,-0.582245,-0.438956
1629724801062,-0.663497,-0.579683,-0.43785799999999997
1629724801071,-0.661362,-0.576694,-0.43737
1629724801081,-0.660142,-0.580659,-0.438651
1629724801090,-0.658617,-0.580964,-0.43554
1629724801100,-0.6560549999999999,-0.580598,-0.434747
1629724801110,-0.6560549999999999,-0.582245,-0.434808
1629724801119,-0.657641,-0.58072,-0.432917
1629724801129,-0.660264,-0.581818,-0.432429
1629724801138,-0.658678,-0.578341,-0.43511299999999997
1629724801148,-0.656299,-0.577304,-0.439505
1629724801158,-0.657458,-0.578585,-0.44042
1629724801167,-0.6587999999999999,-0.580293,-0.44103
1629724801177,-0.658556,-0.583282,-0.44164
1629724801186,-0.6618499999999999,-0.581391,-0.441762
1629724801196,-0.664168,-0.580537,-0.440847
1629724801206,-0.664046,-0.579378,-0.438712
1629724801215,-0.668194,-0.574132,-0.441152
1629724801225,-0.663009,-0.570472,-0.442921
1629724801234,-0.661972,-0.5660189999999999,-0.44029799999999997
1629724801244,-0.6581899999999999,-0.561566,-0.437126
1629724801254,-0.657458,-0.562786,-0.435235
1629724801263,-0.660447,-0.571692,-0.431392
1629724801273,-0.657519,-0.573949,-0.42273
1629724801282,-0.652334,-0.5693739999999999,-0.425902
1629724801292,-0.650199,-0.56913,-0.43066
1629724801302,-0.647637,-0.567605,-0.433161
1629724801311,-0.645624,-0.565592,-0.43163599999999996
1629724801321,-0.643855,-0.5657139999999999,-0.431392
1629724801330,-0.6423909999999999,-0.5693739999999999,-0.43432
1629724801340,-0.643855,-0.576023,-0.437065
1629724801350,-0.649894,-0.581757,-0.43432
1629724801359,-0.656848,-0.587369,-0.428403
1629724801369,-0.660569,-0.590236,-0.421754
1629724801378,-0.6639849999999999,-0.590297,-0.415532
1629724801388,-0.665144,-0.59292,-0.41114
1629724801398,-0.667584,-0.593896,-0.407236
1629724801407,-0.667584,-0.595604,-0.40272199999999997
1629724801417,-0.6676449999999999,-0.599264,-0.402844
1629724801426,-0.670512,-0.602131,-0.402234
1629724801436,-0.669658,-0.606706,-0.401746
1629724801446,-0.671061,-0.609024,-0.402539
1629724801455,-0.672647,-0.611891,-0.402234
1629724801465,-0.672525,-0.6137819999999999,-0.400526
1629724801474,-0.672342,-0.613599,-0.398208
1629724801484,-0.672769,-0.610915,-0.393328
1629724801494,-0.670512,-0.612745,-0.39161999999999997
1629724801503,-0.669048,-0.613416,-0.389729
1629724801513,-0.666974,-0.6161,-0.38887499999999997
1629724801522,-0.665571,-0.617564,-0.386191
1629724801532,-0.663497,-0.619394,-0.385337
1629724801542,-0.660996,-0.618723,-0.384727
1629724801551,-0.6587999999999999,-0.619943,-0.384239
1629724801561,-0.6575799999999999,-0.616771,-0.382592
1629724801570,-0.65514,-0.615978,-0.382226
1629724801580,-0.654469,-0.617076,-0.382287
1629724801590,-0.653676,-0.618479,-0.38051799999999997
1629724801599,-0.652822,-0.621041,-0.381067
1629724801609,-0.6527,-0.621773,-0.38112799999999997
1629724801618,-0.650443,-0.621956,-0.38204299999999997
1629724801628,-0.650016,-0.620919,-0.382775
1629724801638,-0.650687,-0.621346,-0.381677
1629724801647,-0.651236,-0.622627,-0.379359
1629724801657,-0.649406,-0.622078,-0.38021299999999997
1629724801666,-0.647698,-0.620614,-0.380762
1629724801676,-0.648674,-0.619394,-0.379969
1629724801686,-0.646356,-0.61854,-0.382104
1629724801695,-0.647393,-0.61793,-0.384178
1629724801705,-0.647942,-0.620004,-0.387167
1629724801714,-0.6466,-0.620736,-0.388082
1629724801724,-0.646722,-0.620614,-0.388204
1629724801734,-0.647698,-0.620919,-0.388082
1629724801743,-0.647454,-0.6201869999999999,-0.38856999999999997
1629724801753,-0.64782,-0.618113,-0.390522
1629724801762,-0.647942,-0.615124,-0.391742
1629724801772,-0.646783,-0.611281,-0.393267
1629724801782,-0.646844,-0.609634,-0.394548
1629724801791,-0.647759,-0.609695,-0.39558499999999996
1629724801801,-0.649467,-0.611586,-0.396256
1629724801810,-0.65026,-0.6122569999999999,-0.39711
1629724801820,-0.651114,-0.611769,-0.398025
1629724801830,-0.652212,-0.609024,-0.397354
1629724801839,-0.654896,-0.61,-0.39497499999999997
1629724801849,-0.657214,-0.612684,-0.392047
1629724801858,-0.656909,-0.613904,-0.388936
1629724801868,-0.658678,-0.614758,-0.386191
1629724801878,-0.660996,-0.617869,-0.3843
1629724801887,-0.662887,-0.619333,-0.38308
1629724801897,-0.663131,-0.616466,-0.383202
1629724801906,-0.664229,-0.613599,-0.382165
1629724801916,-0.663863,-0.611464,-0.380701
1629724801926,-0.665327,-0.612318,-0.382104
1629724801935,-0.666181,-0.615368,-0.384788
1629724801945,-0.665632,-0.61854,-0.38674
1629724801954,-0.666852,-0.6189669999999999,-0.385093
1629724801964,-0.667828,-0.6180519999999999,-0.38308
1629724801974,-0.669048,-0.6168319999999999,-0.381006
1629724801983,-0.6691699999999999,-0.615795,-0.3782
1629724801993,-0.668072,-0.6140869999999999,-0.376309
1629724802002,-0.667584,-0.613599,-0.374784
1629724802012,-0.665266,-0.613538,-0.374906
1629724802022,-0.665449,-0.6119519999999999,-0.37393
1629724802031,-0.665266,-0.611159,-0.374967
1629724802041,-0.664473,-0.61061,-0.376675
1629724802050,-0.663802,-0.610793,-0.377346
1629724802060,-0.6630699999999999,-0.61244,-0.376614
1629724802070,-0.663497,-0.612684,-0.37685799999999997
1629724802079,-0.663192,-0.61183,-0.377956
1629724802089,-0.661789,-0.6089019999999999,-0.380579
1629724802098,-0.661301,-0.606462,-0.383629
1629724802108,-0.660691,-0.605974,-0.386862
1629724802118,-0.6612399999999999,-0.604937,-0.38795999999999997
1629724802127,-0.661667,-0.60756,-0.389363
1629724802137,-0.663314,-0.60939,-0.388753
1629724802146,-0.661972,-0.610488,-0.387899
1629724802156,-0.6618499999999999,-0.612379,-0.384788
1629724802166,-0.664229,-0.6159169999999999,-0.384788
1629724802175,-0.663192,-0.6177469999999999,-0.386008
1629724802185,-0.664412,-0.6186619999999999,-0.385398
1629724802194,-0.6630699999999999,-0.616588,-0.384056
1629724802204,-0.660569,-0.613111,-0.383629
1629724802214,-0.660874,-0.610915,-0.384239
1629724802223,-0.659593,-0.612318,-0.389058
1629724802233,-0.6572749999999999,-0.616466,-0.394914
1629724802242,-0.656421,-0.620614,-0.402661
1629724802252,-0.655994,-0.623664,-0.408639
1629724802262,-0.655872,-0.625555,-0.41199399999999997
1629724802271,-0.657031,-0.62647,-0.415715
1629724802281,-0.660691,-0.63013,-0.421388
1629724802290,-0.6636799999999999,-0.63867,-0.427915
1629724802300,-0.668682,-0.646417,-0.43602799999999997
1629724802310,-0.676673,-0.658007,-0.441396
1629724802319,-0.680516,-0.667096,-0.444873
1629724802329,-0.6837489999999999,-0.669841,-0.441579
1629724802338,-0.680577,-0.655506,-0.435967
1629724802348,-0.673989,-0.638609,-0.428403
1629724802358,-0.666364,-0.621956,-0.421571
1629724802367,-0.652517,-0.602558,-0.417301
1629724802377,-0.637145,-0.587125,-0.41626399999999997
1629724802386,-0.624396,-0.584929,-0.414678
1629724802396,-0.614819,-0.591944,-0.413153
1629724802406,-0.607743,-0.604327,-0.412482
1629724802415,-0.605425,-0.620675,-0.405894
1629724802425,-0.605303,-0.635437,-0.394548
1629724802434,-0.601216,-0.641354,-0.388143
1629724802444,-0.59658,-0.646112,-0.386496
1629724802454,-0.5934079999999999,-0.650748,-0.388509
1629724802463,-0.5903579999999999,-0.653493,-0.392047
1629724802473,-0.585661,-0.650687,-0.395036
1629724802482,-0.580232,-0.642513,-0.397842
1629724802492,-0.575413,-0.6359859999999999,-0.398452
1629724802502,-0.57096,-0.629093,-0.39967199999999997
1629724802511,-0.567788,-0.621163,-0.39711
1629724802521,-0.565287,-0.617198,-0.396805
1629724802530,-0.5663239999999999,-0.618784,-0.400648
1629724802540,-0.565775,-0.620431,-0.405894
1629724802550,-0.565897,-0.621773,-0.410957
1629724802559,-0.566812,-0.620309,-0.417728
1629724802569,-0.569008,-0.618296,-0.42309599999999997
1629724802578,-0.572241,-0.618174,-0.424194
1629724802588,-0.57889,-0.6183569999999999,-0.417728
1629724802598,-0.58194,-0.616588,-0.416386
1629724802607,-0.585112,-0.614514,-0.422364
1629724802617,-0.587491,-0.61244,-0.435357
1629724802626,-0.5921879999999999,-0.615734,-0.451156
1629724802636,-0.597861,-0.621041,-0.466406
1629724802646,-0.60634,-0.626409,-0.47970399999999996
1629724802655,-0.615368,-0.631289,-0.488488
1629724802665,-0.627568,-0.635559,-0.487207
1629724802674,-0.638243,-0.635742,-0.483242
1629724802684,-0.647332,-0.630679,-0.475312
1629724802694,-0.650931,-0.6214069999999999,-0.468846
1629724802703,-0.654408,-0.61183,-0.463661
1629724802713,-0.655506,-0.60573,-0.46116
1629724802722,-0.6569699999999999,-0.600667,-0.45688999999999996
1629724802732,-0.658617,-0.593469,-0.451888
1629724802742,-0.659776,-0.589504,-0.44926499999999997
1629724802751,-0.658068,-0.5848679999999999,-0.449448
1629724802761,-0.655018,-0.583099,-0.451888
1629724802770,-0.650443,-0.582428,-0.450058
1629724802780,-0.649162,-0.586027,-0.44304299999999996
1629724802790,-0.650199,-0.594384,-0.437797
1629724802799,-0.651602,-0.602924,-0.432002
1629724802809,-0.654225,-0.604754,-0.422608
1629724802818,-0.655384,-0.602375,-0.410957
1629724802828,-0.655079,-0.60024,-0.40504
1629724802838,-0.656482,-0.599264,-0.402295
1629724802847,-0.657946,-0.600545,-0.401136
1629724802857,-0.658617,-0.599386,-0.40150199999999997
1629724802866,-0.658739,-0.600911,-0.402356
1629724802876,-0.660691,-0.60085,-0.404003
1629724802886,-0.6645949999999999,-0.601826,-0.40504
1629724802895,-0.667828,-0.600362,-0.406931
1629724802905,-0.670512,-0.599264,-0.407968
1629724802914,-0.672769,-0.59719,-0.408456
1629724802924,-0.675453,-0.59475,-0.408883
1629724802934,-0.675392,-0.592737,-0.41229899999999997
1629724802943,-0.675636,-0.590724,-0.41541
1629724802953,-0.675087,-0.588894,-0.421022
1629724802962,-0.671976,-0.5888329999999999,-0.428403
1629724802972,-0.670024,-0.588345,-0.43432
1629724802982,-0.668438,-0.5885279999999999,-0.440359
1629724802991,-0.6673399999999999,-0.589199,-0.445117
1629724803001,-0.665998,-0.59048,-0.45017999999999997
1629724803010,-0.664229,-0.590114,-0.454206
1629724803020,-0.6624599999999999,-0.588406,-0.456524
1629724803030,-0.659776,-0.586515,-0.458415
1629724803039,-0.655811,-0.582794,-0.45914699999999997
1629724803049,-0.653188,-0.579988,-0.458659
1629724803058,-0.650138,-0.57889,-0.461465
1629724803068,-0.646905,-0.578768,-0.46299
1629724803078,-0.645319,-0.576755,-0.465064
1629724803087,-0.643062,-0.573522,-0.466894
1629724803097,-0.64172,-0.5724239999999999,-0.468114
1629724803106,-0.6414759999999999,-0.571936,-0.47085899999999997
1629724803116,-0.6402559999999999,-0.570472,-0.473421
1629724803126,-0.6390359999999999,-0.571082,-0.475373
1629724803135,-0.637938,-0.57157,-0.477081
1629724803145,-0.6369009999999999,-0.57218,-0.478118
1629724803154,-0.6353759999999999,-0.571753,-0.479521
1629724803164,-0.633973,-0.57035,-0.480802
1629724803174,-0.631594,-0.5696789999999999,-0.483547
1629724803183,-0.630374,-0.569557,-0.486658
1629724803193,-0.629337,-0.569557,-0.48983
1629724803202,-0.62891,-0.568398,-0.492087
1629724803212,-0.626836,-0.5672389999999999,-0.494283
1629724803222,-0.625982,-0.566812,-0.495991
1629724803231,-0.625616,-0.567056,-0.49715
1629724803241,-0.625982,-0.566812,-0.499224
1629724803250,-0.624213,-0.567056,-0.500139
1629724803260,-0.624091,-0.5663239999999999,-0.49916299999999997
1629724803270,-0.62464,-0.566141,-0.49946799999999997
1629724803279,-0.623786,-0.565653,-0.499895
1629724803289,-0.623481,-0.564738,-0.498614
1629724803298,-0.623054,-0.5660189999999999,-0.49824799999999997
1629724803308,-0.623786,-0.564921,-0.49654
1629724803318,-0.624762,-0.5644939999999999,-0.495076
1629724803327,-0.625494,-0.563945,-0.4941
1629724803337,-0.626104,-0.56425,-0.494771
1629724803346,-0.62708,-0.5644939999999999,-0.49489299999999997
1629724803356,-0.627507,-0.5654089999999999,-0.496357
1629724803366,-0.627507,-0.565226,-0.496296
1629724803375,-0.627873,-0.564921,-0.497394
1629724803385,-0.628422,-0.5647989999999999,-0.497272
1629724803394,-0.627446,-0.561688,-0.499102
1629724803404,-0.628727,-0.559187,-0.499712
1629724803414,-0.630008,-0.55876,-0.49959
1629724803423,-0.632082,-0.55815,-0.500993
1629724803433,-0.6344,-0.559004,-0.501603
1629724803442,-0.636108,-0.5623589999999999,-0.503189
1629724803452,-0.636535,-0.564921,-0.50386
1629724803462,-0.636413,-0.565348,-0.50386
1629724803471,-0.635132,-0.5638839999999999,-0.503067
1629724803481,-0.634339,-0.563762,-0.501786
1629724803490,-0.633729,-0.562176,-0.500139
1629724803500,-0.6338509999999999,-0.5614439999999999,-0.498187
1629724803510,-0.634278,-0.56181,-0.49641799999999997
1629724803519,-0.635498,-0.561688,-0.495137
1629724803529,-0.636108,-0.562176,-0.493978
1629724803538,-0.636657,-0.563457,-0.493856
1629724803548,-0.6362909999999999,-0.56425,-0.493307
1629724803558,-0.636352,-0.564616,-0.491538
1629724803567,-0.6365959999999999,-0.56425,-0.49172099999999996
1629724803577,-0.636962,-0.5632739999999999,-0.490562
1629724803586,-0.637633,-0.562725,-0.490745
1629724803596,-0.637145,-0.5614439999999999,-0.49044
1629724803606,-0.635925,-0.560163,-0.49105
1629724803615,-0.6356809999999999,-0.559431,-0.490562
1629724803625,-0.6353759999999999,-0.557418,-0.490257
1629724803634,-0.6359859999999999,-0.557723,-0.49105
1629724803644,-0.636352,-0.558821,-0.491355
1629724803654,-0.636718,-0.559736,-0.49105
1629724803663,-0.636962,-0.5602239999999999,-0.49080599999999996
1629724803673,-0.637023,-0.558272,-0.49105
1629724803682,-0.637938,-0.558394,-0.489525
1629724803692,-0.6393409999999999,-0.558516,-0.489159
1629724803702,-0.639158,-0.559675,-0.490074
1629724803711,-0.639463,-0.559431,-0.490013
1629724803721,-0.640683,-0.561261,-0.49044
1629724803730,-0.6426959999999999,-0.5632739999999999,-0.491294
1629724803740,-0.64172,-0.562542,-0.49233099999999996
1629724803750,-0.641293,-0.558028,-0.49050099999999996
1629724803759,-0.643489,-0.555344,-0.489098
1629724803769,-0.64355,-0.556991,-0.489037
1629724803778,-0.6439159999999999,-0.55937,-0.49080599999999996
1629724803788,-0.6445259999999999,-0.563152,-0.492758
1629724803798,-0.644404,-0.564982,-0.492575
1629724803807,-0.64416,-0.5657139999999999,-0.492819
1629724803817,-0.642879,-0.564128,-0.491904
1629724803826,-0.642452,-0.563335,-0.48989099999999997
1629724803836,-0.642757,-0.562237,-0.487512
1629724803846,-0.6420859999999999,-0.563823,-0.484462
1629724803855,-0.642635,-0.5626639999999999,-0.483364
1629724803865,-0.6414759999999999,-0.5623589999999999,-0.482632
1629724803874,-0.642269,-0.562908,-0.481473
1629724803884,-0.642147,-0.563335,-0.481351
1629724803894,-0.64172,-0.564067,-0.48061899999999996
1629724803903,-0.640744,-0.564921,-0.481961
1629724803913,-0.6399509999999999,-0.565348,-0.481595
1629724803922,-0.6405,-0.5657139999999999,-0.481473
1629724803932,-0.641049,-0.565775,-0.48122899999999996
1629724803942,-0.641598,-0.5660189999999999,-0.480985
1629724803951,-0.642452,-0.566385,-0.481473
1629724803961,-0.642757,-0.567422,-0.480558
1629724803970,-0.643062,-0.568093,-0.48068
1629724803980,-0.6433059999999999,-0.5681539999999999,-0.480741
1629724803990,-0.64294,-0.567666,-0.480985
1629724803999,-0.642757,-0.5699839999999999,-0.479826
1629724804009,-0.642208,-0.5718139999999999,-0.481351
1629724804018,-0.640683,-0.572851,-0.481839
1629724804028,-0.640988,-0.5693739999999999,-0.480375
1629724804038,-0.64111,-0.565775,-0.47939899999999996
1629724804047,-0.640378,-0.566873,-0.47848399999999996
1629724804057,-0.6411709999999999,-0.566568,-0.478423
1629724804066,-0.6402559999999999,-0.56608,-0.478362
1629724804076,-0.640195,-0.567178,-0.479826
1629724804086,-0.640012,-0.569191,-0.481046
1629724804095,-0.63989,-0.570228,-0.479582
1629724804105,-0.6393409999999999,-0.569252,-0.478667
1629724804114,-0.63867,-0.567605,-0.478423
1629724804124,-0.638548,-0.567117,-0.476776
1629724804134,-0.639402,-0.566263,-0.476288
1629724804143,-0.639158,-0.566812,-0.476105
1629724804153,-0.640378,-0.56669,-0.475861
1629724804162,-0.641537,-0.567422,-0.47634899999999997
1629724804172,-0.6420859999999999,-0.568703,-0.476593
1629724804182,-0.642818,-0.568886,-0.477691
1629724804191,-0.6423909999999999,-0.56974,-0.479582
1629724804201,-0.64294,-0.568642,-0.479887
1629724804210,-0.644404,-0.5681539999999999,-0.479155
1629724804220,-0.644099,-0.569191,-0.48000899999999996
1629724804230,-0.6445259999999999,-0.568032,-0.480497
1629724804239,-0.64538,-0.5678489999999999,-0.480863
1629724804249,-0.645075,-0.5672389999999999,-0.480558
1629724804258,-0.645014,-0.56608,-0.480802
1629724804268,-0.644465,-0.5660189999999999,-0.481046
1629724804278,-0.643672,-0.566507,-0.47946
1629724804287,-0.644038,-0.567666,-0.478606
1629724804297,-0.6430009999999999,-0.568032,-0.478911
1629724804306,-0.6436109999999999,-0.5678489999999999,-0.478362
1629724804316,-0.6430009999999999,-0.567727,-0.478057
1629724804326,-0.6423909999999999,-0.567178,-0.47939899999999996
1629724804335,-0.642757,-0.565531,-0.47885
1629724804345,-0.642452,-0.566995,-0.479826
1629724804354,-0.641842,-0.566812,-0.479338
1629724804364,-0.64172,-0.56791,-0.478423
1629724804374,-0.641232,-0.567056,-0.47641
1629724804383,-0.642452,-0.5687639999999999,-0.474946
1629724804393,-0.641537,-0.569008,-0.473665
1629724804402,-0.6433059999999999,-0.57035,-0.47116399999999997
1629724804412,-0.644282,-0.570716,-0.468236
1629724804422,-0.6448309999999999,-0.570045,-0.465918
1629724804431,-0.6445259999999999,-0.571082,-0.465735
1629724804441,-0.6454409999999999,-0.573827,-0.465979
1629724804450,-0.650138,-0.580415,-0.456951
1629724804460,-0.651846,-0.58194,-0.452986
1629724804470,-0.650443,-0.585539,-0.451339
1629724804479,-0.654042,-0.591456,-0.442311
1629724804489,-0.655201,-0.592371,-0.4392
1629724804498,-0.658312,-0.591944,-0.43877299999999997
1629724804508,-0.660081,-0.5931029999999999,-0.439566
1629724804518,-0.655506,-0.5848679999999999,-0.453474
1629724804527,-0.653249,-0.589016,-0.45231499999999997
1629724804537,-0.658129,-0.59902,-0.431514
1629724804546,-0.666242,-0.603046,-0.410774
1629724804556,-0.665998,-0.596336,-0.40455199999999997
1629724804566,-0.664107,-0.587491,-0.41290899999999997
1629724804575,-0.658617,-0.585295,-0.433649
1629724804585,-0.653798,-0.5860879999999999,-0.454816
1629724804594,-0.647515,-0.582184,-0.473421
1629724804604,-0.644343,-0.57706,-0.4819
1629724804614,-0.640622,-0.5708989999999999,-0.48470599999999997
1629724804623,-0.639158,-0.566873,-0.482754
1629724804633,-0.639829,-0.563823,-0.47848399999999996
1629724804642,-0.642574,-0.56181,-0.467565
1629724804652,-0.64538,-0.565043,-0.452864
1629724804662,-0.648003,-0.568398,-0.43907799999999997
1629724804671,-0.650992,-0.573095,-0.42334
1629724804681,-0.655323,-0.5842579999999999,-0.40272199999999997
1629724804690,-0.6584949999999999,-0.591822,-0.38234799999999997
1629724804700,-0.660386,-0.590785,-0.37393
1629724804710,-0.663009,-0.590297,-0.373747
1629724804719,-0.665327,-0.592371,-0.37576
1629724804729,-0.665022,-0.589199,-0.377285
1629724804738,-0.665998,-0.58682,-0.380701
1629724804748,-0.667462,-0.589931,-0.380335
1629724804758,-0.6700849999999999,-0.596092,-0.376431
1629724804767,-0.671976,-0.602131,-0.373564
1629724804777,-0.674294,-0.609756,-0.370758
1629724804786,-0.676734,-0.6146969999999999,-0.367098
1629724804796,-0.67832,-0.618479,-0.365817
1629724804806,-0.680028,-0.61793,-0.367952
1629724804815,-0.680455,-0.618479,-0.371673
1629724804825,-0.681187,-0.616649,-0.375028
1629724804834,-0.68015,-0.615795,-0.38051799999999997
1629724804844,-0.679662,-0.612318,-0.388204
1629724804854,-0.676856,-0.610183,-0.399428
1629724804863,-0.674721,-0.606767,-0.40992
1629724804873,-0.669536,-0.60207,-0.419253
1629724804882,-0.67039,-0.605364,-0.427549
1629724804892,-0.669353,-0.606645,-0.435235
1629724804902,-0.667279,-0.605852,-0.43877299999999997
1629724804911,-0.666181,-0.599691,-0.441457
1629724804921,-0.662399,-0.5955429999999999,-0.442006
1629724804930,-0.660203,-0.592676,-0.445483
1629724804940,-0.659227,-0.5903579999999999,-0.447374
1629724804950,-0.656482,-0.5891379999999999,-0.45078999999999997
1629724804959,-0.653798,-0.586881,-0.45505999999999996
1629724804969,-0.651053,-0.585905,-0.456768
1629724804978,-0.649162,-0.584197,-0.457805
1629724804988,-0.646112,-0.581574,-0.460245
1629724804998,-0.6439159999999999,-0.579744,-0.45994
1629724805007,-0.641903,-0.577304,-0.462136
1629724805017,-0.640134,-0.575474,-0.46341699999999997
1629724805026,-0.640683,-0.574864,-0.462868
1629724805036,-0.63928,-0.574498,-0.465186
1629724805046,-0.637145,-0.571875,-0.470188
1629724805055,-0.635559,-0.56974,-0.476593
1629724805065,-0.63318,-0.566263,-0.484889
1629724805074,-0.630984,-0.562237,-0.493429
1629724805084,-0.628666,-0.560041,-0.499346
1629724805094,-0.627385,-0.558821,-0.500017
1629724805103,-0.628422,-0.559248,-0.495381
1629724805113,-0.627751,-0.557784,-0.492697
1629724805122,-0.6283,-0.55815,-0.490257
1629724805132,-0.627324,-0.558394,-0.490684
1629724805142,-0.627812,-0.5602239999999999,-0.488488
1629724805151,-0.627873,-0.562298,-0.486475
1629724805161,-0.627446,-0.562603,-0.483974
1629724805170,-0.628056,-0.5614439999999999,-0.4819
1629724805180,-0.62708,-0.561566,-0.480253
1629724805190,-0.627324,-0.561566,-0.478606
1629724805199,-0.627995,-0.560773,-0.476227
1629724805209,-0.628361,-0.561932,-0.474763
1629724805218,-0.628483,-0.563335,-0.473177
1629724805228,-0.630008,-0.565836,-0.469944
1629724805238,-0.631411,-0.568398,-0.46738199999999996
1629724805247,-0.633668,-0.571692,-0.466711
1629724805257,-0.636718,-0.574132,-0.463783
1629724805266,-0.638304,-0.576633,-0.464271
1629724805276,-0.640317,-0.579317,-0.46341699999999997
1629724805286,-0.6411709999999999,-0.580842,-0.463478
1629724805295,-0.643855,-0.583038,-0.4636
1629724805305,-0.645258,-0.585295,-0.463966
1629724805314,-0.646783,-0.588406,-0.462075
1629724805324,-0.649284,-0.590419,-0.459391
1629724805334,-0.650321,-0.5921879999999999,-0.45872
1629724805343,-0.651968,-0.5934079999999999,-0.45811
1629724805353,-0.652639,-0.595055,-0.457805
1629724805362,-0.654103,-0.594262,-0.457805
1629724805372,-0.654286,-0.593896,-0.459635
1629724805382,-0.654835,-0.5937129999999999,-0.461648
1629724805391,-0.654225,-0.593774,-0.46402699999999997
1629724805401,-0.653432,-0.5927979999999999,-0.465796
1629724805410,-0.65331,-0.591761,-0.46646699999999996
1629724805420,-0.651846,-0.589077,-0.46799199999999996
1629724805430,-0.651297,-0.5873079999999999,-0.470798
1629724805439,-0.649223,-0.5856,-0.47299399999999997
1629724805449,-0.645624,-0.581574,-0.473055
1629724805458,-0.643672,-0.58072,-0.47360399999999997
1629724805468,-0.641232,-0.58011,-0.476837
1629724805478,-0.638792,-0.579805,-0.478728
1629724805487,-0.635437,-0.576145,-0.478118
1629724805497,-0.6347659999999999,-0.574925,-0.477752
1629724805506,-0.6326309999999999,-0.57462,-0.480253
1629724805516,-0.631106,-0.572302,-0.481107
1629724805526,-0.630191,-0.567361,-0.480436
1629724805535,-0.629032,-0.5629689999999999,-0.480497
1629724805545,-0.628544,-0.560956,-0.481656
1629724805554,-0.627751,-0.5614439999999999,-0.483974
1629724805564,-0.6283,-0.56425,-0.486414
1629724805574,-0.628239,-0.564738,-0.487573
1629724805583,-0.62891,-0.565287,-0.489037
1629724805593,-0.628788,-0.563823,-0.489525
1629724805602,-0.62769,-0.5632739999999999,-0.490928
1629724805612,-0.628788,-0.5612,-0.49044
1629724805622,-0.627629,-0.559309,-0.490318
1629724805631,-0.626531,-0.559126,-0.491355
1629724805641,-0.627263,-0.558577,-0.490074
1629724805650,-0.627446,-0.558638,-0.490562
1629724805660,-0.626531,-0.559492,-0.49172099999999996
1629724805670,-0.62586,-0.559553,-0.49233099999999996
1629724805679,-0.62586,-0.561932,-0.49263599999999996
1629724805689,-0.62647,-0.562847,-0.494405
1629724805698,-0.627019,-0.563152,-0.49532
1629724805708,-0.627995,-0.563152,-0.49532
1629724805718,-0.628605,-0.563823,-0.495991
1629724805727,-0.630435,-0.5644939999999999,-0.497455
1629724805737,-0.630801,-0.565531,-0.497577
1629724805746,-0.631228,-0.566263,-0.49794299999999997
1629724805756,-0.6323259999999999,-0.5675439999999999,-0.499224
1629724805766,-0.633058,-0.568093,-0.500505
1629724805775,-0.632997,-0.568642,-0.501115
1629724805785,-0.633973,-0.570045,-0.5002
1629724805794,-0.63562,-0.572363,-0.502091
1629724805804,-0.635254,-0.574071,-0.503433
1629724805814,-0.634644,-0.574193,-0.503738
1629724805823,-0.634339,-0.5696789999999999,-0.502213
1629724805833,-0.6347659999999999,-0.567422,-0.499895
1629724805842,-0.634522,-0.567666,-0.501054
1629724805852,-0.63379,-0.56913,-0.501176
1629724805862,-0.6332409999999999,-0.5690689999999999,-0.501359
1629724805871,-0.634339,-0.5690689999999999,-0.501481
1629724805881,-0.634583,-0.567727,-0.501359
1629724805890,-0.633973,-0.567117,-0.50203
1629724805900,-0.633729,-0.566995,-0.50203
1629724805910,-0.632997,-0.566263,-0.500627
1629724805919,-0.632448,-0.565836,-0.500139
1629724805929,-0.632265,-0.565653,-0.499224
1629724805938,-0.630374,-0.565043,-0.49855299999999997
1629724805948,-0.630984,-0.565226,-0.497272
1629724805958,-0.629764,-0.564921,-0.49519799999999997
1629724805967,-0.629825,-0.56425,-0.494466
1629724805977,-0.629398,-0.564311,-0.493368
1629724805986,-0.629154,-0.5614439999999999,-0.49349
1629724805996,-0.628178,-0.5614439999999999,-0.49324599999999996
1629724806006,-0.627629,-0.56181,-0.491965
1629724806015,-0.627019,-0.561505,-0.491904
1629724806025,-0.627446,-0.56364,-0.49111099999999996
1629724806034,-0.628056,-0.562908,-0.490867
1629724806044,-0.62891,-0.56364,-0.490013
1629724806054,-0.629764,-0.5638839999999999,-0.49019599999999997
1629724806063,-0.630374,-0.5644939999999999,-0.489708
1629724806073,-0.631106,-0.564616,-0.489708
1629724806082,-0.631167,-0.565836,-0.48983
1629724806092,-0.631899,-0.567361,-0.489342
1629724806102,-0.631655,-0.5675439999999999,-0.488488
1629724806111,-0.6320209999999999,-0.568093,-0.488
1629724806121,-0.6332409999999999,-0.569191,-0.48836599999999997
1629724806130,-0.633729,-0.5678489999999999,-0.488244
1629724806140,-0.632448,-0.568642,-0.48928099999999997
1629724806150,-0.63257,-0.568642,-0.489525
1629724806159,-0.633363,-0.568337,-0.490318
1629724806169,-0.632814,-0.568398,-0.492148
1629724806178,-0.632204,-0.568215,-0.493612
1629724806188,-0.633058,-0.568703,-0.494832
1629724806198,-0.633485,-0.568093,-0.49593
1629724806207,-0.632997,-0.567727,-0.49824799999999997
1629724806217,-0.632448,-0.568093,-0.498797
1629724806226,-0.632143,-0.567605,-0.499346
1629724806236,-0.63257,-0.567422,-0.499956
1629724806246,-0.632204,-0.568215,-0.500932
1629724806255,-0.6326309999999999,-0.5687639999999999,-0.501603
1629724806265,-0.633363,-0.568337,-0.500932
1629724806274,-0.633607,-0.569252,-0.501054
1629724806284,-0.632387,-0.5684589999999999,-0.49916299999999997
1629724806294,-0.63318,-0.568276,-0.49824799999999997
1629724806303,-0.633729,-0.568398,-0.49611299999999997
1629724806313,-0.632448,-0.567727,-0.495137
1629724806322,-0.63257,-0.56791,-0.493978
1629724806332,-0.632082,-0.568581,-0.494283
1629724806342,-0.632387,-0.5690689999999999,-0.493978
1629724806351,-0.6320209999999999,-0.570228,-0.494405
1629724806361,-0.632448,-0.569923,-0.494283
1629724806370,-0.631838,-0.570045,-0.493063
1629724806380,-0.631777,-0.569862,-0.491172
1629724806390,-0.6326309999999999,-0.569252,-0.48983
1629724806399,-0.630618,-0.56852,-0.48861
1629724806409,-0.630252,-0.56791,-0.488427
1629724806418,-0.63013,-0.5690689999999999,-0.489342
1629724806428,-0.628788,-0.570838,-0.48983
1629724806438,-0.627507,-0.56913,-0.48836599999999997
1629724806447,-0.627568,-0.57035,-0.487268
1629724806457,-0.62769,-0.571692,-0.488793
1629724806466,-0.62647,-0.5718139999999999,-0.490562
1629724806476,-0.626958,-0.568703,-0.48861
1629724806486,-0.626714,-0.563701,-0.487329
1629724806495,-0.626409,-0.562542,-0.488793
1629724806505,-0.626287,-0.564555,-0.490562
1629724806514,-0.627324,-0.568032,-0.492819
1629724806524,-0.62708,-0.569618,-0.494954
1629724806534,-0.628361,-0.571448,-0.495869
1629724806543,-0.62769,-0.5712039999999999,-0.497577
1629724806553,-0.627995,-0.569618,-0.49702799999999997
1629724806562,-0.627812,-0.569008,-0.49580799999999997
1629724806572,-0.627995,-0.5681539999999999,-0.49489299999999997
1629724806582,-0.628971,-0.5675439999999999,-0.49355099999999996
1629724806591,-0.629154,-0.568398,-0.492148
1629724806601,-0.629642,-0.5696789999999999,-0.492453
1629724806610,-0.629276,-0.5705939999999999,-0.49111099999999996
1629724806620,-0.630374,-0.572363,-0.491843
1629724806630,-0.631289,-0.574376,-0.491172
1629724806639,-0.631777,-0.574742,-0.491477
1629724806649,-0.632448,-0.574742,-0.491355
1629724806658,-0.6323259999999999,-0.573766,-0.49111099999999996
1629724806668,-0.633485,-0.573278,-0.491904
1629724806678,-0.634095,-0.573522,-0.490928
1629724806687,-0.63318,-0.574315,-0.490989
1629724806697,-0.634522,-0.574193,-0.490257
1629724806706,-0.634888,-0.574559,-0.49111099999999996
1629724806716,-0.6347659999999999,-0.575413,-0.49019599999999997
1629724806726,-0.635193,-0.57462,-0.490928
1629724806735,-0.633302,-0.57462,-0.488549
1629724806745,-0.633302,-0.576267,-0.486963
1629724806754,-0.6332409999999999,-0.576023,-0.486597
1629724806764,-0.632387,-0.575474,-0.48623099999999997
1629724806774,-0.632875,-0.5727289999999999,-0.48379099999999997
1629724806783,-0.6323259999999999,-0.57096,-0.481778
1629724806793,-0.63257,-0.571692,-0.48122899999999996
1629724806802,-0.631899,-0.571936,-0.481473
1629724806812,-0.632082,-0.572485,-0.481839
1629724806822,-0.632753,-0.573156,-0.48257099999999997
1629724806831,-0.632875,-0.573888,-0.483242
1629724806841,-0.632814,-0.574071,-0.481961
1629724806850,-0.632875,-0.574376,-0.482388
1629724806860,-0.632143,-0.574132,-0.481168
1629724806870,-0.632692,-0.573888,-0.480863
1629724806879,-0.632814,-0.573827,-0.479582
1629724806889,-0.632265,-0.574864,-0.478911
1629724806898,-0.63196,-0.573644,-0.477935
1629724806908,-0.631777,-0.574071,-0.47756899999999997
1629724806918,-0.631777,-0.574254,-0.477447
1629724806927,-0.632204,-0.575291,-0.477325
1629724806937,-0.631594,-0.576145,-0.47817899999999997
1629724806946,-0.631899,-0.576694,-0.478972
1629724806956,-0.632082,-0.576328,-0.479216
1629724806966,-0.6326309999999999,-0.576633,-0.480192
1629724806975,-0.632692,-0.576999,-0.480253
1629724806985,-0.632448,-0.576633,-0.481778
1629724806994,-0.63257,-0.576633,-0.48257099999999997
1629724807004,-0.6326309999999999,-0.576938,-0.48312
1629724807014,-0.632875,-0.576938,-0.482266
1629724807023,-0.633302,-0.577731,-0.483242
1629724807033,-0.6329359999999999,-0.577426,-0.481839
1629724807042,-0.6323259999999999,-0.57828,-0.48251
1629724807052,-0.633058,-0.578463,-0.482388
1629724807062,-0.6338509999999999,-0.579134,-0.480558
1629724807071,-0.632875,-0.579622,-0.479521
1629724807081,-0.632814,-0.58011,-0.478728
1629724807090,-0.632448,-0.579622,-0.47824
1629724807100,-0.632753,-0.580049,-0.477325
1629724807110,-0.632692,-0.580354,-0.477142
1629724807119,-0.632692,-0.580781,-0.477813
1629724807129,-0.631899,-0.580476,-0.478118
1629724807138,-0.6323259999999999,-0.580293,-0.47726399999999997
1629724807148,-0.632509,-0.581574,-0.47787399999999997
1629724807158,-0.632265,-0.580659,-0.476227
1629724807167,-0.632448,-0.579683,-0.477508
1629724807177,-0.63196,-0.58011,-0.477996
1629724807186,-0.630984,-0.579439,-0.478057
1629724807196,-0.631045,-0.579439,-0.47970399999999996
1629724807206,-0.63074,-0.579561,-0.477996
1629724807215,-0.63074,-0.580476,-0.477386
1629724807225,-0.63013,-0.579988,-0.47641
1629724807234,-0.630862,-0.579927,-0.476593
1629724807244,-0.631045,-0.579866,-0.475922
1629724807254,-0.631045,-0.579195,-0.477142
1629724807263,-0.631228,-0.579195,-0.478423
1629724807273,-0.6317159999999999,-0.579195,-0.478972
1629724807282,-0.631777,-0.578341,-0.48092399999999996
1629724807292,-0.630923,-0.577914,-0.48122899999999996
1629724807302,-0.631045,-0.578707,-0.481595
1629724807311,-0.631289,-0.579256,-0.481778
1629724807321,-0.632082,-0.5795,-0.480375
1629724807330,-0.631655,-0.578707,-0.47878899999999996
1629724807340,-0.6326309999999999,-0.578036,-0.478545
1629724807350,-0.632753,-0.579195,-0.478667
1629724807359,-0.631594,-0.579866,-0.478301
1629724807369,-0.6323259999999999,-0.578158,-0.47763
1629724807378,-0.632387,-0.576816,-0.47702
1629724807388,-0.632509,-0.577426,-0.477996
1629724807398,-0.632875,-0.579378,-0.478728
1629724807407,-0.632204,-0.57889,-0.478118
1629724807417,-0.632204,-0.578768,-0.477203
1629724807426,-0.633058,-0.581635,-0.478728
1629724807436,-0.632753,-0.582306,-0.480253
1629724807446,-0.6329359999999999,-0.580293,-0.481839
1629724807455,-0.6323259999999999,-0.57584,-0.48122899999999996
1629724807465,-0.632448,-0.5734,-0.481107
1629724807474,-0.632448,-0.573705,-0.48251
1629724807484,-0.631838,-0.574742,-0.484157
1629724807494,-0.63135,-0.576511,-0.485194
1629724807503,-0.631777,-0.577487,-0.484828
1629724807513,-0.630862,-0.578097,-0.484767
1629724807522,-0.629459,-0.578829,-0.485072
1629724807532,-0.629764,-0.577365,-0.482693
1629724807542,-0.629642,-0.576084,-0.480558
1629724807551,-0.629459,-0.57523,-0.479643
1629724807561,-0.628849,-0.575474,-0.479155
1629724807570,-0.629215,-0.576023,-0.479643
1629724807580,-0.628666,-0.577548,-0.48000899999999996
1629724807590,-0.629032,-0.578463,-0.48007
1629724807599,-0.629093,-0.578524,-0.481534
1629724807609,-0.628666,-0.5795,-0.481534
1629724807618,-0.628971,-0.577975,-0.4819
1629724807628,-0.629398,-0.577914,-0.48129
1629724807638,-0.631228,-0.579012,-0.482022
1629724807647,-0.63135,-0.5795,-0.482632
1629724807657,-0.631594,-0.580415,-0.482937
1629724807666,-0.630984,-0.579744,-0.483303
1629724807676,-0.631045,-0.580354,-0.483059
1629724807686,-0.631289,-0.579744,-0.483974
1629724807695,-0.63074,-0.57889,-0.484462
1629724807705,-0.628971,-0.5795,-0.483303
1629724807714,-0.630557,-0.582306,-0.483913
1629724807724,-0.628483,-0.582062,-0.48409599999999997
1629724807734,-0.627568,-0.581208,-0.483669
1629724807743,-0.627385,-0.577182,-0.481961
1629724807753,-0.627019,-0.575352,-0.47939899999999996
1629724807762,-0.627385,-0.57523,-0.479033
1629724807772,-0.626226,-0.576267,-0.480436
1629724807782,-0.626165,-0.578829,-0.482815
1629724807791,-0.626104,-0.579439,-0.48440099999999997
1629724807801,-0.626836,-0.578829,-0.48556
1629724807810,-0.626226,-0.579378,-0.486353
1629724807820,-0.626409,-0.579134,-0.486292
1629724807830,-0.627202,-0.57706,-0.486048
1629724807839,-0.626714,-0.576572,-0.48556
1629724807849,-0.628117,-0.576389,-0.484828
1629724807858,-0.62891,-0.57645,-0.48470599999999997
1629724807868,-0.62769,-0.575657,-0.485072
1629724807878,-0.62952,-0.576389,-0.48409599999999997
1629724807887,-0.628605,-0.576633,-0.484889
1629724807897,-0.627812,-0.577426,-0.484889
1629724807906,-0.629459,-0.57767,-0.486963
1629724807916,-0.630862,-0.576267,-0.486963
1629724807926,-0.631655,-0.575657,-0.488549
1629724807935,-0.63196,-0.574986,-0.489525
1629724807945,-0.631838,-0.57523,-0.489952
1629724807954,-0.6323259999999999,-0.574315,-0.48989099999999997
1629724807964,-0.632875,-0.573949,-0.490379
1629724807974,-0.6320209999999999,-0.573644,-0.490074
1629724807983,-0.6323259999999999,-0.573217,-0.490684
1629724807993,-0.63318,-0.573705,-0.489647
1629724808002,-0.63257,-0.572851,-0.48989099999999997
1629724808012,-0.6317159999999999,-0.573888,-0.490562
1629724808022,-0.631228,-0.572912,-0.490745
1629724808031,-0.631167,-0.571997,-0.489159
1629724808041,-0.630679,-0.571448,-0.489403
1629724808050,-0.630618,-0.571021,-0.488915
1629724808060,-0.631228,-0.570533,-0.488
1629724808070,-0.629947,-0.570411,-0.48958599999999997
1629724808079,-0.630496,-0.570838,-0.490379
1629724808089,-0.629398,-0.5712039999999999,-0.49172099999999996
1629724808098,-0.62952,-0.57035,-0.491294
1629724808108,-0.629032,-0.570533,-0.491477
1629724808118,-0.628178,-0.569496,-0.491843
1629724808127,-0.628666,-0.56913,-0.492209
1629724808137,-0.628666,-0.569252,-0.49263599999999996
1629724808146,-0.6283,-0.568642,-0.493185
1629724808156,-0.6283,-0.568886,-0.492697
1629724808166,-0.628483,-0.568276,-0.492758
1629724808175,-0.627995,-0.569923,-0.493429
1629724808185,-0.627934,-0.569191,-0.493612
1629724808194,-0.627934,-0.570777,-0.493917
1629724808204,-0.628849,-0.570838,-0.494771
1629724808214,-0.629886,-0.570838,-0.49489299999999997
1629724808223,-0.629093,-0.570228,-0.496052
1629724808233,-0.630191,-0.5699839999999999,-0.496784
1629724808242,-0.62952,-0.570411,-0.497272
1629724808252,-0.629032,-0.570106,-0.496784
1629724808262,-0.629337,-0.570106,-0.49580799999999997
1629724808271,-0.629276,-0.570411,-0.495442
1629724808281,-0.629093,-0.571692,-0.494649
1629724808290,-0.630191,-0.5715089999999999,-0.49349
1629724808300,-0.629154,-0.569862,-0.491538
1629724808310,-0.629276,-0.568825,-0.49105
1629724808319,-0.629825,-0.570533,-0.491172
1629724808329,-0.628544,-0.572058,-0.49263599999999996
1629724808338,-0.627202,-0.572363,-0.494222
1629724808348,-0.628422,-0.572363,-0.494832
1629724808358,-0.629093,-0.570106,-0.494161
1629724808367,-0.628605,-0.57096,-0.494832
1629724808377,-0.62891,-0.5696789999999999,-0.495625
1629724808386,-0.628483,-0.5675439999999999,-0.49715
1629724808396,-0.62769,-0.5638839999999999,-0.496479
1629724808406,-0.629215,-0.565592,-0.497516
1629724808415,-0.629337,-0.568398,-0.499346
1629724808425,-0.628849,-0.572058,-0.501298
1629724808434,-0.629154,-0.571936,-0.500932
1629724808444,-0.628666,-0.5712039999999999,-0.499895
1629724808454,-0.629032,-0.56913,-0.498004
1629724808463,-0.628666,-0.567117,-0.495747
1629724808473,-0.627446,-0.565287,-0.494649
1629724808482,-0.627751,-0.564433,-0.493612
1629724808492,-0.627263,-0.5641889999999999,-0.4941
1629724808502,-0.627812,-0.56608,-0.49349
1629724808511,-0.627751,-0.565897,-0.49458799999999997
1629724808521,-0.628239,-0.5663239999999999,-0.496479
1629724808530,-0.628727,-0.567727,-0.496967
1629724808540,-0.628544,-0.5678489999999999,-0.49794299999999997
1629724808550,-0.629398,-0.567788,-0.498492
1629724808559,-0.630618,-0.567056,-0.49898
1629724808569,-0.630069,-0.5673,-0.49855299999999997
1629724808578,-0.629703,-0.566812,-0.498614
1629724808588,-0.629825,-0.566141,-0.497516
1629724808598,-0.629398,-0.566812,-0.498126
1629724808607,-0.63074,-0.567422,-0.498614
1629724808617,-0.630252,-0.566812,-0.498431
1629724808626,-0.629337,-0.567788,-0.499224
1629724808636,-0.629825,-0.5705939999999999,-0.49885799999999997
1629724808646,-0.629947,-0.569923,-0.499224
1629724808655,-0.62952,-0.568581,-0.498492
1629724808665,-0.630191,-0.564738,-0.497211
1629724808674,-0.629032,-0.5647989999999999,-0.497394
1629724808684,-0.629337,-0.56425,-0.496479
1629724808694,-0.628727,-0.565226,-0.497516
1629724808703,-0.628544,-0.565775,-0.49776
1629724808713,-0.629032,-0.5672389999999999,-0.49715
1629724808722,-0.6283,-0.567178,-0.49776
1629724808732,-0.628422,-0.567361,-0.497577
1629724808742,-0.627446,-0.566568,-0.497821
1629724808751,-0.627812,-0.5657139999999999,-0.497394
1629724808761,-0.628544,-0.564433,-0.496296
1629724808770,-0.628727,-0.564616,-0.496906
1629724808780,-0.628971,-0.564616,-0.495869
1629724808790,-0.629642,-0.5647989999999999,-0.496479
1629724808799,-0.629825,-0.567178,-0.495564
1629724808809,-0.63074,-0.5660189999999999,-0.496235
1629724808818,-0.630435,-0.566446,-0.496845
1629724808828,-0.63135,-0.566446,-0.496357
1629724808838,-0.631167,-0.5660189999999999,-0.49763799999999997
1629724808847,-0.631289,-0.566385,-0.49794299999999997
1629724808857,-0.632448,-0.56547,-0.498126
1629724808866,-0.632265,-0.564372,-0.498492
1629724808876,-0.632753,-0.565775,-0.497516
1629724808886,-0.6320209999999999,-0.564738,-0.496784
1629724808895,-0.632387,-0.5647989999999999,-0.496967
1629724808905,-0.6329359999999999,-0.5651039999999999,-0.49733299999999997
1629724808914,-0.631899,-0.565836,-0.497516
1629724808924,-0.631533,-0.56608,-0.49794299999999997
1629724808934,-0.632204,-0.565836,-0.49715
1629724808943,-0.631167,-0.565165,-0.496845
1629724808953,-0.63074,-0.56547,-0.495625
1629724808962,-0.631045,-0.56547,-0.49458799999999997
1629724808972,-0.630435,-0.566263,-0.49489299999999997
1629724808982,-0.630374,-0.565775,-0.494222
1629724808991,-0.630679,-0.565897,-0.4941
1629724809001,-0.63013,-0.566263,-0.494222
1629724809010,-0.630984,-0.566812,-0.495442
1629724809020,-0.630374,-0.564738,-0.495015
1629724809030,-0.629947,-0.565043,-0.49715
1629724809039,-0.629642,-0.565348,-0.498797
1629724809049,-0.629215,-0.564738,-0.499346
1629724809058,-0.628422,-0.56486,-0.500017
1629724809068,-0.629032,-0.564616,-0.49959
1629724809078,-0.629215,-0.56486,-0.500383
1629724809087,-0.629032,-0.564738,-0.500871
1629724809097,-0.628788,-0.565592,-0.501542
1629724809106,-0.629032,-0.5657139999999999,-0.500444
1629724809116,-0.629276,-0.565897,-0.499407
1629724809126,-0.628056,-0.566202,-0.499529
1629724809135,-0.629703,-0.566568,-0.49837
1629724809145,-0.630496,-0.56669,-0.49733299999999997
1629724809154,-0.630252,-0.565348,-0.495686
1629724809164,-0.629703,-0.566263,-0.494466
1629724809174,-0.62891,-0.568215,-0.494771
1629724809183,-0.629764,-0.568581,-0.49580799999999997
1629724809193,-0.629764,-0.567483,-0.496906
1629724809202,-0.628727,-0.5660189999999999,-0.49593
1629724809212,-0.628971,-0.567056,-0.495991
1629724809222,-0.629398,-0.5675439999999999,-0.496357
1629724809231,-0.629276,-0.56669,-0.498126
1629724809241,-0.62891,-0.5629689999999999,-0.49776
1629724809250,-0.629703,-0.5620539999999999,-0.498187
1629724809260,-0.629886,-0.56486,-0.499407
1629724809270,-0.629459,-0.567666,-0.501481
1629724809279,-0.630374,-0.56791,-0.501115
1629724809289,-0.629886,-0.566995,-0.49946799999999997
1629724809298,-0.629764,-0.565836,-0.49733299999999997
1629724809308,-0.630557,-0.56486,-0.496845
1629724809318,-0.630191,-0.564433,-0.496479
1629724809327,-0.629581,-0.5641889999999999,-0.495991
1629724809337,-0.628605,-0.563396,-0.495686
1629724809346,-0.629032,-0.562847,-0.496967
1629724809356,-0.628849,-0.56303,-0.497455
1629724809366,-0.629337,-0.561993,-0.498736
1629724809375,-0.628971,-0.562908,-0.498675
1629724809385,-0.629459,-0.564067,-0.49885799999999997
1629724809394,-0.630435,-0.564311,-0.499346
1629724809404,-0.63074,-0.5641889999999999,-0.499895
1629724809414,-0.631533,-0.563762,-0.499224
1629724809423,-0.632204,-0.5647989999999999,-0.499651
1629724809433,-0.632814,-0.564006,-0.5002
1629724809442,-0.633119,-0.564006,-0.498919
1629724809452,-0.632875,-0.5641889999999999,-0.500688
1629724809462,-0.634095,-0.5638839999999999,-0.501298
1629724809471,-0.632997,-0.563518,-0.501298
1629724809481,-0.6317159999999999,-0.5638839999999999,-0.500688
1629724809490,-0.6326309999999999,-0.565836,-0.499102
1629724809500,-0.633363,-0.566385,-0.499285
1629724809510,-0.632875,-0.563823,-0.497821
1629724809519,-0.632997,-0.559797,-0.495686
1629724809529,-0.6326309999999999,-0.5605289999999999,-0.49471
1629724809538,-0.632814,-0.562176,-0.494832
1629724809548,-0.6326309999999999,-0.5623589999999999,-0.495381
1629724809558,-0.633973,-0.5626639999999999,-0.496357
1629724809567,-0.633302,-0.56303,-0.498187
1629724809577,-0.63379,-0.56303,-0.498065
1629724809586,-0.6329359999999999,-0.56242,-0.497577
1629724809596,-0.63318,-0.562176,-0.498187
1629724809606,-0.6329359999999999,-0.5620539999999999,-0.499102
1629724809615,-0.633668,-0.5614439999999999,-0.497577
1629724809625,-0.633912,-0.561505,-0.49672299999999997
1629724809634,-0.6341559999999999,-0.561993,-0.49654
1629724809644,-0.6341559999999999,-0.562176,-0.49580799999999997
1629724809654,-0.6335459999999999,-0.561932,-0.49611299999999997
1629724809663,-0.634522,-0.5623589999999999,-0.49580799999999997
1629724809673,-0.633912,-0.5620539999999999,-0.496052
1629724809682,-0.632997,-0.562542,-0.496357
1629724809692,-0.6335459999999999,-0.5626639999999999,-0.496845
1629724809702,-0.63379,-0.562298,-0.496601
1629724809711,-0.63379,-0.562786,-0.496235
1629724809721,-0.634949,-0.5647989999999999,-0.496479
1629724809730,-0.63501,-0.56486,-0.495442
1629724809740,-0.634827,-0.565836,-0.495259
1629724809750,-0.633973,-0.5654089999999999,-0.495259
1629724809759,-0.63318,-0.566446,-0.493917
1629724809769,-0.633363,-0.566446,-0.493978
1629724809778,-0.632692,-0.565897,-0.49324599999999996
1629724809788,-0.6323259999999999,-0.5660189999999999,-0.49294099999999996
1629724809798,-0.631167,-0.565531,-0.492697
1629724809807,-0.63135,-0.565531,-0.49288
1629724809817,-0.630008,-0.565836,-0.492758
1629724809826,-0.630069,-0.565531,-0.493124
1629724809836,-0.629886,-0.566751,-0.493978
1629724809846,-0.628727,-0.566385,-0.494954
1629724809855,-0.628788,-0.5663239999999999,-0.496296
1629724809865,-0.628483,-0.56608,-0.497394
1629724809874,-0.628788,-0.5651039999999999,-0.49824799999999997
1629724809884,-0.628483,-0.56486,-0.499956
1629724809894,-0.62891,-0.56425,-0.49959
1629724809903,-0.629459,-0.563457,-0.500932
1629724809913,-0.630069,-0.564616,-0.501786
1629724809922,-0.629764,-0.564921,-0.502518
1629724809932,-0.630313,-0.5660189999999999,-0.501603
1629724809942,-0.630984,-0.5663239999999999,-0.501359
1629724809951,-0.630374,-0.56669,-0.500139
1629724809961,-0.630374,-0.567666,-0.498797
1629724809970,-0.63074,-0.567666,-0.497699
1629724809980,-0.630984,-0.567361,-0.49776
1629724809990,-0.630801,-0.566751,-0.495686
1629724809999,-0.630679,-0.5666289999999999,-0.49458799999999997
1629724810009,-0.629886,-0.568398,-0.49471
1629724810018,-0.63013,-0.568581,-0.496052
1629724810028,-0.629886,-0.567056,-0.49532
1629724810038,-0.629764,-0.567605,-0.493917
1629724810047,-0.629703,-0.568398,-0.494344
1629724810057,-0.629825,-0.568398,-0.49550299999999997
1629724810066,-0.628666,-0.5638839999999999,-0.49611299999999997
1629724810076,-0.629215,-0.560163,-0.495564
1629724810086,-0.629398,-0.55998,-0.49702799999999997
1629724810095,-0.629154,-0.5638839999999999,-0.49824799999999997
1629724810105,-0.629459,-0.567483,-0.500688
1629724810114,-0.63074,-0.567483,-0.499285
1629724810124,-0.63135,-0.566873,-0.498309
1629724810134,-0.63135,-0.565836,-0.49641799999999997
1629724810143,-0.631655,-0.564311,-0.494344
1629724810153,-0.631228,-0.563823,-0.494344
1629724810162,-0.631533,-0.564616,-0.493063
1629724810172,-0.63196,-0.5644939999999999,-0.492697
1629724810182,-0.63196,-0.5638839999999999,-0.491843
1629724810191,-0.630862,-0.563457,-0.493856
1629724810201,-0.63074,-0.563701,-0.494832
1629724810210,-0.631838,-0.565165,-0.495015
1629724810220,-0.631289,-0.565348,-0.495991
1629724810230,-0.63196,-0.566446,-0.496296
1629724810239,-0.632387,-0.565775,-0.49611299999999997
1629724810249,-0.633729,-0.566202,-0.495442
1629724810258,-0.633912,-0.5663239999999999,-0.49654
1629724810268,-0.635132,-0.567056,-0.497394
1629724810278,-0.6341559999999999,-0.565897,-0.497821
1629724810287,-0.633668,-0.565043,-0.499346
1629724810297,-0.633485,-0.5644939999999999,-0.498736
1629724810306,-0.632753,-0.563945,-0.49946799999999997
1629724810316,-0.631594,-0.562725,-0.499956
1629724810326,-0.630557,-0.565043,-0.49794299999999997
1629724810335,-0.632082,-0.567117,-0.497577
1629724810345,-0.631106,-0.567971,-0.498126
1629724810354,-0.630984,-0.566446,-0.49776
1629724810364,-0.632082,-0.561322,-0.494161
1629724810374,-0.632082,-0.5614439999999999,-0.49233099999999996
1629724810383,-0.632204,-0.563152,-0.49355099999999996
1629724810393,-0.631228,-0.565043,-0.494344
1629724810402,-0.63074,-0.566446,-0.495625
1629724810412,-0.632204,-0.565836,-0.495564
1629724810422,-0.631777,-0.564616,-0.49702799999999997
1629724810431,-0.631045,-0.5641889999999999,-0.497394
1629724810441,-0.630679,-0.563701,-0.497272
1629724810450,-0.631106,-0.564616,-0.496845
1629724810460,-0.631167,-0.564067,-0.496662
1629724810470,-0.630862,-0.5635789999999999,-0.49593
1629724810479,-0.631777,-0.564006,-0.494771
1629724810489,-0.631228,-0.564128,-0.495015
1629724810498,-0.631594,-0.5644939999999999,-0.494771
1629724810508,-0.631899,-0.56547,-0.495259
1629724810518,-0.63196,-0.564921,-0.496174
1629724810527,-0.631533,-0.564555,-0.496174
1629724810537,-0.631289,-0.563823,-0.497272
1629724810546,-0.631838,-0.5623589999999999,-0.497211
1629724810556,-0.632143,-0.562237,-0.498126
1629724810566,-0.632387,-0.562481,-0.49824799999999997
1629724810575,-0.631899,-0.5626639999999999,-0.499041
1629724810585,-0.632814,-0.563396,-0.49959
1629724810594,-0.6326309999999999,-0.5641889999999999,-0.499346
1629724810604,-0.632875,-0.5635789999999999,-0.498614
1629724810614,-0.633363,-0.563945,-0.499041
1629724810623,-0.632753,-0.563091,-0.498126
1629724810633,-0.6323259999999999,-0.562542,-0.496906
1629724810642,-0.632509,-0.562176,-0.495442
1629724810652,-0.632082,-0.561871,-0.495747
1629724810662,-0.63135,-0.563091,-0.496174
1629724810671,-0.6335459999999999,-0.56364,-0.49654
1629724810681,-0.6329359999999999,-0.564067,-0.49654
1629724810690,-0.632692,-0.563152,-0.49702799999999997
1629724810700,-0.633668,-0.563823,-0.49702799999999997
1629724810710,-0.6344,-0.564433,-0.498431
1629724810719,-0.633424,-0.563823,-0.49885799999999997
1629724810729,-0.6323259999999999,-0.563152,-0.499285
1629724810738,-0.632509,-0.562725,-0.499346
1629724810748,-0.6323259999999999,-0.5614439999999999,-0.499834
1629724810758,-0.63196,-0.5605289999999999,-0.500017
1629724810767,-0.63196,-0.560468,-0.49946799999999997
1629724810777,-0.633058,-0.560651,-0.500383
1629724810786,-0.632509,-0.560651,-0.500871
1629724810796,-0.632265,-0.5617489999999999,-0.500322
1629724810806,-0.63379,-0.561505,-0.499895
1629724810815,-0.633424,-0.562725,-0.498492
1629724810825,-0.633302,-0.562542,-0.496906
1629724810834,-0.6323259999999999,-0.5614439999999999,-0.49641799999999997
1629724810844,-0.633729,-0.5632739999999999,-0.49532
1629724810854,-0.635193,-0.563213,-0.494161
1629724810863,-0.634522,-0.562481,-0.493673
1629724810873,-0.634705,-0.563762,-0.493002
1629724810882,-0.6344,-0.5647989999999999,-0.493002
1629724810892,-0.634888,-0.565531,-0.493002
1629724810902,-0.6338509999999999,-0.5651039999999999,-0.492819
1629724810911,-0.6344609999999999,-0.56425,-0.49233099999999996
1629724810921,-0.63501,-0.566446,-0.49172099999999996
1629724810930,-0.6353759999999999,-0.567178,-0.491599
1629724810940,-0.634034,-0.5654089999999999,-0.493185
1629724810950,-0.634522,-0.559736,-0.49172099999999996
1629724810959,-0.6347659999999999,-0.558455,-0.491172
1629724810969,-0.634888,-0.561078,-0.4941
1629724810978,-0.63501,-0.564677,-0.497394
1629724810988,-0.634278,-0.566446,-0.49885799999999997
1629724810998,-0.635132,-0.5657139999999999,-0.498614
1629724811007,-0.635193,-0.563823,-0.498797
1629724811017,-0.633912,-0.562603,-0.497394
1629724811026,-0.634278,-0.56181,-0.495747
1629724811036,-0.63379,-0.561566,-0.49458799999999997
1629724811046,-0.633729,-0.562481,-0.493124
1629724811055,-0.633973,-0.562298,-0.492209
1629724811065,-0.633912,-0.562542,-0.49233099999999996
1629724811074,-0.633607,-0.563213,-0.494039
1629724811084,-0.633607,-0.565165,-0.493978
1629724811094,-0.633363,-0.565897,-0.49458799999999997
1629724811103,-0.634095,-0.5657139999999999,-0.494771
1629724811113,-0.634034,-0.56608,-0.495625
1629724811122,-0.6344,-0.56486,-0.49580799999999997
1629724811132,-0.634522,-0.5654089999999999,-0.49593
1629724811142,-0.634522,-0.56486,-0.49611299999999997
1629724811151,-0.634217,-0.564677,-0.49641799999999997
1629724811161,-0.634522,-0.565775,-0.495869
1629724811170,-0.63379,-0.565775,-0.496845
1629724811180,-0.633668,-0.56547,-0.49733299999999997
1629724811190,-0.633119,-0.56486,-0.49776
1629724811199,-0.633424,-0.563823,-0.49776
1629724811209,-0.631472,-0.564006,-0.497211
1629724811218,-0.632387,-0.5666289999999999,-0.495991
1629724811228,-0.63257,-0.567178,-0.49611299999999997
1629724811238,-0.630923,-0.566446,-0.49471
1629724811247,-0.631045,-0.562542,-0.49233099999999996
1629724811257,-0.631106,-0.561505,-0.490257
1629724811266,-0.6317159999999999,-0.562725,-0.49044
1629724811276,-0.631655,-0.5647989999999999,-0.491965
1629724811286,-0.631411,-0.56608,-0.493185
1629724811295,-0.631533,-0.566141,-0.49489299999999997
1629724811305,-0.632387,-0.566202,-0.496174
1629724811314,-0.631655,-0.565531,-0.496967
1629724811324,-0.631655,-0.565775,-0.497272
1629724811334,-0.631899,-0.5651039999999999,-0.49641799999999997
1629724811343,-0.631289,-0.565226,-0.495625
1629724811353,-0.631533,-0.565287,-0.494954
1629724811362,-0.631472,-0.566385,-0.49355099999999996
1629724811372,-0.632143,-0.5654089999999999,-0.492758
1629724811382,-0.632265,-0.566751,-0.491904
1629724811391,-0.632997,-0.56608,-0.491172
1629724811401,-0.632448,-0.5669339999999999,-0.492392
1629724811410,-0.6320209999999999,-0.5673,-0.49324599999999996
1629724811420,-0.631594,-0.566202,-0.494771
1629724811430,-0.631533,-0.566385,-0.494405
1629724811439,-0.63196,-0.5647989999999999,-0.495076
1629724811449,-0.6332409999999999,-0.564616,-0.495259
1629724811458,-0.633607,-0.565043,-0.49489299999999997
1629724811468,-0.633119,-0.5669339999999999,-0.494344
1629724811478,-0.633302,-0.567605,-0.4941
1629724811487,-0.6335459999999999,-0.5681539999999999,-0.494954
1629724811497,-0.634339,-0.568581,-0.49458799999999997
1629724811506,-0.634034,-0.567422,-0.494161
1629724811516,-0.6335459999999999,-0.567361,-0.492575
1629724811526,-0.6326309999999999,-0.566812,-0.492087
1629724811535,-0.633058,-0.565958,-0.491904
1629724811545,-0.633424,-0.565836,-0.491477
1629724811554,-0.6329359999999999,-0.566446,-0.491172
1629724811564,-0.63318,-0.56669,-0.491233
1629724811574,-0.632753,-0.5675439999999999,-0.492819
1629724811583,-0.632753,-0.5673,-0.492453
1629724811593,-0.633058,-0.567056,-0.49227
1629724811602,-0.632448,-0.5675439999999999,-0.493124
1629724811612,-0.6320209999999999,-0.567056,-0.493307
1629724811622,-0.631594,-0.5673,-0.493429
1629724811631,-0.632143,-0.565836,-0.493307
1629724811641,-0.631228,-0.56608,-0.493124
1629724811650,-0.631777,-0.566507,-0.49263599999999996
1629724811660,-0.631899,-0.5669339999999999,-0.492514
1629724811670,-0.632448,-0.5673,-0.492575
1629724811679,-0.632814,-0.567178,-0.491477
1629724811689,-0.6323259999999999,-0.5673,-0.491782
1629724811698,-0.632204,-0.567727,-0.492209
1629724811708,-0.631472,-0.56608,-0.49172099999999996
1629724811718,-0.631838,-0.565836,-0.491965
1629724811727,-0.6317159999999999,-0.566812,-0.492148
1629724811737,-0.631899,-0.567178,-0.49288
1629724811746,-0.632082,-0.568276,-0.49349
1629724811756,-0.63196,-0.568398,-0.493368
1629724811766,-0.632875,-0.568642,-0.493185
1629724811775,-0.633424,-0.569618,-0.49288
1629724811785,-0.6332409999999999,-0.5684589999999999,-0.493185
1629724811794,-0.633363,-0.5687639999999999,-0.492209
1629724811804,-0.634278,-0.5687639999999999,-0.49202599999999996
1629724811814,-0.632448,-0.567727,-0.491538
1629724811823,-0.632875,-0.568337,-0.491599
1629724811833,-0.632997,-0.56913,-0.492392
1629724811842,-0.6326309999999999,-0.569252,-0.492209
1629724811852,-0.63196,-0.568337,-0.490562
1629724811862,-0.631411,-0.569557,-0.49019599999999997
1629724811871,-0.631899,-0.57035,-0.489464
1629724811881,-0.632387,-0.571692,-0.49050099999999996
1629724811890,-0.631167,-0.571082,-0.491294
1629724811900,-0.630252,-0.564311,-0.489952
1629724811910,-0.630069,-0.562176,-0.49105
1629724811919,-0.63135,-0.564982,-0.493368
1629724811929,-0.630069,-0.5673,-0.496052
1629724811938,-0.630313,-0.56913,-0.497455
1629724811948,-0.630496,-0.5687639999999999,-0.497882
1629724811958,-0.629886,-0.567666,-0.498492
1629724811967,-0.630008,-0.566202,-0.497455
1629724811977,-0.630374,-0.5657139999999999,-0.495747
1629724811986,-0.629886,-0.565043,-0.4941
1629724811996,-0.630557,-0.565897,-0.491538
1629724812006,-0.631472,-0.5657139999999999,-0.49050099999999996
1629724812015,-0.63135,-0.5675439999999999,-0.489769
1629724812025,-0.631777,-0.56852,-0.49044
1629724812034,-0.63196,-0.569862,-0.49111099999999996
1629724812044,-0.631228,-0.5705939999999999,-0.49166
1629724812054,-0.632265,-0.5699839999999999,-0.49227
1629724812063,-0.632204,-0.569435,-0.49294099999999996
1629724812073,-0.63257,-0.568825,-0.492392
1629724812082,-0.632814,-0.5699839999999999,-0.49263599999999996
1629724812092,-0.63257,-0.568825,-0.492453
1629724812102,-0.632753,-0.568581,-0.492575
1629724812111,-0.632814,-0.568886,-0.493673
1629724812121,-0.6323259999999999,-0.568886,-0.494344
1629724812130,-0.631838,-0.569008,-0.493978
1629724812140,-0.631533,-0.567666,-0.494771
1629724812150,-0.632204,-0.5672389999999999,-0.49532
1629724812159,-0.630923,-0.566446,-0.494771
1629724812169,-0.630557,-0.5681539999999999,-0.493917
1629724812178,-0.631106,-0.569313,-0.492819
1629724812188,-0.630557,-0.570533,-0.49166
1629724812198,-0.6317159999999999,-0.566995,-0.489525
1629724812207,-0.631838,-0.566446,-0.487329
1629724812217,-0.632448,-0.5672389999999999,-0.487939
1629724812226,-0.632082,-0.567788,-0.488305
1629724812236,-0.6329359999999999,-0.568215,-0.489708
1629724812246,-0.6329359999999999,-0.569008,-0.490074
1629724812255,-0.632997,-0.56913,-0.490135
1629724812265,-0.633363,-0.569191,-0.49111099999999996
1629724812274,-0.632448,-0.570716,-0.49141599999999996
1629724812284,-0.63257,-0.569008,-0.491538
1629724812294,-0.6323259999999999,-0.569191,-0.490989
1629724812303,-0.63257,-0.56852,-0.49044
1629724812313,-0.633363,-0.568398,-0.489098
1629724812322,-0.633058,-0.568032,-0.488793
1629724812332,-0.6335459999999999,-0.567361,-0.48745099999999997
1629724812342,-0.633119,-0.567727,-0.488
1629724812351,-0.63318,-0.5681539999999999,-0.488427
1629724812361,-0.63318,-0.568642,-0.487817
1629724812370,-0.633424,-0.569557,-0.489159
1629724812380,-0.633302,-0.56913,-0.490684
1629724812390,-0.633607,-0.567788,-0.49044
1629724812399,-0.633363,-0.5678489999999999,-0.491294
1629724812409,-0.633973,-0.56791,-0.49111099999999996
1629724812418,-0.634522,-0.568398,-0.491904
1629724812428,-0.6350709999999999,-0.568886,-0.491355
1629724812438,-0.634339,-0.5687639999999999,-0.490867
1629724812447,-0.634644,-0.5690689999999999,-0.49080599999999996
1629724812457,-0.63562,-0.5702889999999999,-0.490562
1629724812466,-0.63623,-0.570838,-0.489403
1629724812476,-0.635132,-0.5708989999999999,-0.48861
1629724812486,-0.634217,-0.569801,-0.487695
1629724812495,-0.6344609999999999,-0.569435,-0.48739
1629724812505,-0.633424,-0.569252,-0.486902
1629724812514,-0.6326309999999999,-0.569435,-0.487268
1629724812524,-0.632753,-0.570167,-0.486963
1629724812534,-0.632204,-0.5693739999999999,-0.487817
1629724812543,-0.6320209999999999,-0.570106,-0.48775599999999997
1629724812553,-0.63196,-0.5705939999999999,-0.488854
1629724812562,-0.63196,-0.570472,-0.489464
1629724812572,-0.6323259999999999,-0.569801,-0.48989099999999997
1629724812582,-0.632448,-0.5693739999999999,-0.489952
1629724812591,-0.6320209999999999,-0.56913,-0.490318
1629724812601,-0.632082,-0.570106,-0.490745
1629724812610,-0.631228,-0.570228,-0.490074
1629724812620,-0.631106,-0.5702889999999999,-0.491538
1629724812630,-0.631045,-0.571021,-0.491172
1629724812639,-0.630557,-0.57096,-0.491904
1629724812649,-0.630435,-0.5705939999999999,-0.49019599999999997
1629724812658,-0.630984,-0.571021,-0.490074
1629724812668,-0.630801,-0.571448,-0.489525
1629724812678,-0.631228,-0.571692,-0.489708
1629724812687,-0.630801,-0.571631,-0.490318
1629724812697,-0.630557,-0.5712039999999999,-0.489647
1629724812706,-0.629276,-0.570411,-0.48958599999999997
1629724812716,-0.629154,-0.57035,-0.489159
1629724812726,-0.629947,-0.5699839999999999,-0.490379
1629724812735,-0.629154,-0.5702889999999999,-0.49141599999999996
1629724812745,-0.629886,-0.571631,-0.491599
1629724812754,-0.629825,-0.571265,-0.492392
1629724812764,-0.628971,-0.5718139999999999,-0.491355
1629724812774,-0.629703,-0.5718139999999999,-0.49050099999999996
1629724812783,-0.63013,-0.571631,-0.489952
1629724812793,-0.63013,-0.57157,-0.48983
1629724812802,-0.629276,-0.57096,-0.488915
1629724812812,-0.629398,-0.573034,-0.489342
1629724812822,-0.630618,-0.573949,-0.488915
1629724812831,-0.630557,-0.573095,-0.48861
1629724812841,-0.629886,-0.572912,-0.487939
1629724812850,-0.629642,-0.57401,-0.487268
1629724812860,-0.630313,-0.575779,-0.487512
1629724812870,-0.630496,-0.575535,-0.489769
1629724812879,-0.629825,-0.573156,-0.489098
1629724812889,-0.630862,-0.568276,-0.487878
1629724812898,-0.629581,-0.565775,-0.488549
1629724812908,-0.63074,-0.567727,-0.489769
1629724812918,-0.630496,-0.57035,-0.49166
1629724812927,-0.630435,-0.573095,-0.49227
1629724812937,-0.631106,-0.573766,-0.49324599999999996
1629724812946,-0.631167,-0.573339,-0.49324599999999996
1629724812956,-0.63135,-0.571448,-0.493124
1629724812966,-0.631411,-0.570045,-0.491843
1629724812975,-0.630557,-0.5687639999999999,-0.490013
1629724812985,-0.630435,-0.568825,-0.486963
1629724812994,-0.631411,-0.5690689999999999,-0.486719
1629724813004,-0.631228,-0.5705939999999999,-0.48684099999999997
1629724813014,-0.630618,-0.5721189999999999,-0.486658
1629724813023,-0.631655,-0.572912,-0.48684099999999997
1629724813033,-0.631655,-0.5734,-0.48714599999999997
1629724813042,-0.63196,-0.573278,-0.487878
1629724813052,-0.632692,-0.572058,-0.488732
1629724813062,-0.631533,-0.570472,-0.488732
1629724813071,-0.632692,-0.571082,-0.489769
1629724813081,-0.632692,-0.5702889999999999,-0.490562
1629724813090,-0.631899,-0.570838,-0.49019599999999997
1629724813100,-0.631838,-0.5715089999999999,-0.49105
1629724813110,-0.631472,-0.571936,-0.492819
1629724813119,-0.630984,-0.57157,-0.493185
1629724813129,-0.63074,-0.571448,-0.49227
1629724813138,-0.631228,-0.5699839999999999,-0.49294099999999996
1629724813148,-0.629886,-0.569252,-0.491965
1629724813158,-0.630374,-0.571631,-0.48958599999999997
1629724813167,-0.630008,-0.572302,-0.48922
1629724813177,-0.630496,-0.572607,-0.488488
1629724813186,-0.630069,-0.570228,-0.487085
1629724813196,-0.63013,-0.570106,-0.486658
1629724813206,-0.630191,-0.570411,-0.48678
1629724813215,-0.63074,-0.5699839999999999,-0.487024
1629724813225,-0.630313,-0.570838,-0.48806099999999997
1629724813234,-0.630496,-0.571143,-0.488854
1629724813244,-0.631594,-0.5721189999999999,-0.488732
1629724813254,-0.631594,-0.572485,-0.48897599999999997
1629724813263,-0.631655,-0.5724239999999999,-0.489159
1629724813273,-0.63135,-0.572485,-0.489525
1629724813282,-0.631655,-0.5718139999999999,-0.48922
1629724813292,-0.632692,-0.571326,-0.489403
1629724813302,-0.632143,-0.571448,-0.488732
1629724813311,-0.630984,-0.571326,-0.488915
1629724813321,-0.631411,-0.571326,-0.48836599999999997
1629724813330,-0.631106,-0.570411,-0.48861
1629724813340,-0.63135,-0.570411,-0.488305
1629724813350,-0.631899,-0.570655,-0.489342
1629724813359,-0.63135,-0.5705939999999999,-0.489525
1629724813369,-0.630984,-0.571082,-0.490074
1629724813378,-0.6317159999999999,-0.57096,-0.489952
1629724813388,-0.632509,-0.571753,-0.491233
1629724813398,-0.632143,-0.57157,-0.49141599999999996
1629724813407,-0.632387,-0.570716,-0.491233
1629724813417,-0.632509,-0.5708989999999999,-0.49227
1629724813426,-0.63135,-0.570228,-0.492209
1629724813436,-0.630984,-0.57035,-0.490989
1629724813446,-0.63135,-0.570777,-0.490867
1629724813455,-0.630984,-0.5712039999999999,-0.48983
1629724813465,-0.631777,-0.572546,-0.48867099999999997
1629724813474,-0.631045,-0.5727289999999999,-0.48836599999999997
1629724813484,-0.631533,-0.572912,-0.48775599999999997
1629724813494,-0.630801,-0.571997,-0.487939
1629724813503,-0.630069,-0.571936,-0.48714599999999997
1629724813513,-0.63074,-0.571692,-0.488488
1629724813522,-0.630618,-0.57218,-0.488
1629724813532,-0.63074,-0.571692,-0.488915
1629724813542,-0.630496,-0.571692,-0.48958599999999997
1629724813551,-0.630069,-0.5724239999999999,-0.49044
1629724813561,-0.630191,-0.5715089999999999,-0.489769
1629724813570,-0.63013,-0.571082,-0.489708
1629724813580,-0.629581,-0.571997,-0.490318
1629724813590,-0.630313,-0.573095,-0.490684
1629724813599,-0.63013,-0.572241,-0.49080599999999996
1629724813609,-0.630435,-0.57218,-0.49050099999999996
1629724813618,-0.630008,-0.571631,-0.489098
1629724813628,-0.629886,-0.5718139999999999,-0.489708
1629724813638,-0.629825,-0.572668,-0.489464
1629724813647,-0.630313,-0.5724239999999999,-0.489037
1629724813657,-0.630862,-0.572302,-0.488793
1629724813666,-0.631045,-0.5715089999999999,-0.489159
1629724813676,-0.629886,-0.5724239999999999,-0.489525
1629724813686,-0.630496,-0.573095,-0.49019599999999997
1629724813695,-0.630801,-0.572058,-0.48928099999999997
1629724813705,-0.630252,-0.572058,-0.489769
1629724813714,-0.629703,-0.571448,-0.490074
1629724813724,-0.630252,-0.570716,-0.488732
1629724813734,-0.629886,-0.571021,-0.48922
1629724813743,-0.630801,-0.5708989999999999,-0.488854
1629724813753,-0.630801,-0.572058,-0.490074
1629724813762,-0.631106,-0.571753,-0.48983
1629724813772,-0.630801,-0.571875,-0.489952
1629724813782,-0.631533,-0.5721189999999999,-0.48861
1629724813791,-0.630862,-0.572363,-0.488488
1629724813801,-0.631106,-0.5727289999999999,-0.48861
1629724813810,-0.630496,-0.571631,-0.487634
1629724813820,-0.630496,-0.572851,-0.48745099999999997
1629724813830,-0.631106,-0.573888,-0.489403
1629724813839,-0.630862,-0.573766,-0.48983
1629724813849,-0.629947,-0.57279,-0.48836599999999997
1629724813858,-0.629642,-0.572546,-0.486902
1629724813868,-0.630252,-0.573888,-0.488549
1629724813878,-0.629886,-0.57462,-0.489952
1629724813887,-0.63013,-0.572851,-0.489769
1629724813897,-0.629886,-0.569008,-0.488732
1629724813906,-0.629581,-0.5673,-0.48836599999999997
1629724813916,-0.630435,-0.568886,-0.490257
1629724813926,-0.630435,-0.571082,-0.49227
1629724813935,-0.630984,-0.573888,-0.492758
1629724813945,-0.631838,-0.574559,-0.49355099999999996
1629724813954,-0.631289,-0.57401,-0.493002
1629724813964,-0.630862,-0.57218,-0.492148
1629724813974,-0.630435,-0.5708989999999999,-0.49044
1629724813983,-0.63074,-0.570533,-0.489464
1629724813993,-0.630618,-0.57035,-0.48714599999999997
1629724814002,-0.629947,-0.569862,-0.48678
1629724814012,-0.630435,-0.571631,-0.486902
1629724814022,-0.630313,-0.572058,-0.486902
1629724814031,-0.630496,-0.573522,-0.486963
1629724814041,-0.630069,-0.573949,-0.48861
1629724814050,-0.630313,-0.574254,-0.487634
1629724814060,-0.629642,-0.572668,-0.489098
1629724814070,-0.630679,-0.572058,-0.49019599999999997
1629724814079,-0.63013,-0.571387,-0.490623
1629724814089,-0.630923,-0.571326,-0.491782
1629724814098,-0.631045,-0.57218,-0.492392
1629724814108,-0.631167,-0.571997,-0.49288
1629724814118,-0.630191,-0.571692,-0.49233099999999996
1629724814127,-0.631228,-0.572607,-0.492697
1629724814137,-0.630557,-0.571875,-0.492758
1629724814146,-0.629886,-0.571021,-0.491538
1629724814156,-0.629581,-0.573217,-0.490928
1629724814166,-0.629947,-0.575047,-0.489647
1629724814175,-0.629154,-0.57523,-0.48897599999999997
1629724814185,-0.629703,-0.5727289999999999,-0.486597
1629724814194,-0.62891,-0.570045,-0.484279
1629724814204,-0.629215,-0.5705939999999999,-0.484462
1629724814214,-0.629276,-0.571875,-0.48495
1629724814223,-0.629032,-0.572241,-0.486719
1629724814233,-0.629398,-0.573705,-0.487939
1629724814242,-0.630191,-0.573705,-0.48983
1629724814252,-0.63013,-0.573827,-0.49050099999999996
1629724814262,-0.630252,-0.573949,-0.490318
1629724814271,-0.630252,-0.573339,-0.490745
1629724814281,-0.629825,-0.572912,-0.489342
1629724814290,-0.629642,-0.572668,-0.489464
1629724814300,-0.631045,-0.573156,-0.488305
1629724814310,-0.629642,-0.5721189999999999,-0.487207
1629724814319,-0.630008,-0.571448,-0.486597
1629724814329,-0.630801,-0.572302,-0.486475
1629724814338,-0.630374,-0.572485,-0.487024
1629724814348,-0.630557,-0.572546,-0.487695
1629724814358,-0.631167,-0.573339,-0.488427
1629724814367,-0.630862,-0.573156,-0.48958599999999997
1629724814377,-0.631655,-0.572302,-0.490745
1629724814386,-0.630984,-0.571997,-0.490989
1629724814396,-0.63074,-0.57157,-0.491843
1629724814406,-0.630618,-0.570472,-0.491233
1629724814415,-0.631594,-0.570228,-0.491843
1629724814425,-0.631289,-0.570228,-0.492087
1629724814434,-0.631228,-0.571265,-0.491843
1629724814444,-0.630984,-0.572607,-0.491355
1629724814454,-0.631106,-0.5727289999999999,-0.490989
1629724814463,-0.631228,-0.5724239999999999,-0.48928099999999997
1629724814473,-0.631167,-0.5721189999999999,-0.48806099999999997
1629724814482,-0.630801,-0.57218,-0.48678
1629724814492,-0.630862,-0.571448,-0.487268
1629724814502,-0.630252,-0.571082,-0.48714599999999997
1629724814511,-0.629886,-0.570838,-0.487817
1629724814521,-0.630069,-0.57157,-0.488244
1629724814530,-0.630435,-0.571753,-0.48989099999999997
1629724814540,-0.630191,-0.570716,-0.490318
1629724814550,-0.629093,-0.5696789999999999,-0.492209
1629724814559,-0.629276,-0.570106,-0.492148
1629724814569,-0.629276,-0.570228,-0.492697
1629724814578,-0.628727,-0.569008,-0.492575
1629724814588,-0.62952,-0.569435,-0.49355099999999996
1629724814598,-0.629764,-0.569496,-0.492514
1629724814607,-0.629947,-0.568398,-0.492575
1629724814617,-0.630557,-0.569557,-0.49263599999999996
1629724814626,-0.630496,-0.56974,-0.493124
1629724814636,-0.630862,-0.570472,-0.49324599999999996
1629724814646,-0.630374,-0.57035,-0.493185
1629724814655,-0.630801,-0.570045,-0.492209
1629724814665,-0.631472,-0.570777,-0.491538
1629724814674,-0.631594,-0.5708989999999999,-0.49044
1629724814684,-0.63196,-0.570228,-0.489464
1629724814694,-0.631594,-0.57096,-0.489159
1629724814703,-0.6320209999999999,-0.570533,-0.488427
1629724814713,-0.632875,-0.570777,-0.489037
1629724814722,-0.631899,-0.570411,-0.488915
1629724814732,-0.6323259999999999,-0.571265,-0.488915
1629724814742,-0.632265,-0.571021,-0.490623
1629724814751,-0.632692,-0.570716,-0.48989099999999997
1629724814761,-0.632082,-0.570228,-0.490013
1629724814770,-0.632204,-0.570716,-0.489098
1629724814780,-0.633119,-0.571021,-0.489037
1629724814790,-0.632997,-0.5718139999999999,-0.489098
1629724814799,-0.633485,-0.5699839999999999,-0.488244
1629724814809,-0.633058,-0.569618,-0.487207
1629724814818,-0.633302,-0.570777,-0.487634
1629724814828,-0.633363,-0.572363,-0.488549
1629724814838,-0.633424,-0.573095,-0.489342
1629724814847,-0.634034,-0.572241,-0.488427
1629724814857,-0.633485,-0.572363,-0.487878
1629724814866,-0.6335459999999999,-0.571997,-0.489342
1629724814876,-0.632082,-0.5718139999999999,-0.488854
1629724814886,-0.63318,-0.570045,-0.488793
1629724814895,-0.632265,-0.5675439999999999,-0.488549
1629724814905,-0.631594,-0.567483,-0.488427
1629724814914,-0.631411,-0.571265,-0.489952
1629724814924,-0.6320209999999999,-0.573949,-0.491904
1629724814934,-0.632204,-0.574437,-0.491904
1629724814943,-0.632082,-0.574559,-0.491538
1629724814953,-0.63074,-0.5734,-0.489708
1629724814962,-0.630191,-0.5718139999999999,-0.487878
1629724814972,-0.630008,-0.570228,-0.487573
1629724814982,-0.628178,-0.5705939999999999,-0.487268
1629724814991,-0.627995,-0.5699839999999999,-0.488244
1629724815001,-0.627873,-0.5705939999999999,-0.48867099999999997
1629724815010,-0.627263,-0.571143,-0.490318
1629724815020,-0.626287,-0.571631,-0.49166
1629724815030,-0.626226,-0.572302,-0.492392
1629724815039,-0.625982,-0.572546,-0.492819
1629724815049,-0.627507,-0.57157,-0.493002
1629724815058,-0.627568,-0.572363,-0.493856
1629724815068,-0.627873,-0.573217,-0.494283
1629724815078,-0.628544,-0.573705,-0.493856
1629724815087,-0.628483,-0.57401,-0.493917
1629724815097,-0.628727,-0.573644,-0.494405
1629724815106,-0.628788,-0.573827,-0.494405
1629724815116,-0.628178,-0.574315,-0.4941
1629724815126,-0.626897,-0.571997,-0.495625
1629724815135,-0.625067,-0.573461,-0.493673
1629724815145,-0.627202,-0.575962,-0.493063
1629724815154,-0.626165,-0.576511,-0.493612
1629724815164,-0.626226,-0.573461,-0.49324599999999996
1629724815174,-0.626531,-0.571326,-0.490074
1629724815183,-0.626592,-0.570655,-0.48989099999999997
1629724815193,-0.62708,-0.570716,-0.49019599999999997
1629724815202,-0.626409,-0.571936,-0.490989
1629724815212,-0.626714,-0.574071,-0.49141599999999996
1629724815222,-0.626653,-0.574864,-0.49294099999999996
1629724815231,-0.626226,-0.575108,-0.492697
1629724815241,-0.625982,-0.573461,-0.493063
1629724815250,-0.626287,-0.571875,-0.49172099999999996
1629724815260,-0.626226,-0.573156,-0.492087
1629724815270,-0.627019,-0.571753,-0.49111099999999996
1629724815279,-0.626531,-0.57157,-0.49080599999999996
1629724815289,-0.627141,-0.571265,-0.489952
1629724815298,-0.629215,-0.571936,-0.489525
1629724815308,-0.628422,-0.573034,-0.48983
1629724815318,-0.630313,-0.573217,-0.49019599999999997
1629724815327,-0.630374,-0.572363,-0.491233
1629724815337,-0.629703,-0.572485,-0.491355
1629724815346,-0.630008,-0.57157,-0.492514
1629724815356,-0.629703,-0.570533,-0.49233099999999996
1629724815366,-0.630435,-0.570533,-0.492697
1629724815375,-0.630557,-0.570167,-0.49355099999999996
1629724815385,-0.630496,-0.570167,-0.493673
1629724815394,-0.630862,-0.57035,-0.49349
1629724815404,-0.63135,-0.5699839999999999,-0.492514
1629724815414,-0.631167,-0.570533,-0.49227
1629724815423,-0.630984,-0.57096,-0.492697
1629724815433,-0.630557,-0.570045,-0.491477
1629724815442,-0.630862,-0.570655,-0.490623
1629724815452,-0.63196,-0.570777,-0.490257
1629724815462,-0.631594,-0.5705939999999999,-0.490684
1629724815471,-0.631167,-0.570777,-0.49050099999999996
1629724815481,-0.631533,-0.570167,-0.490074
1629724815490,-0.631899,-0.570167,-0.489464
1629724815500,-0.6323259999999999,-0.570838,-0.489403
1629724815510,-0.630862,-0.570106,-0.489403
1629724815519,-0.632204,-0.569862,-0.490745
1629724815529,-0.632082,-0.5699839999999999,-0.490013
1629724815538,-0.632082,-0.5690689999999999,-0.490867
1629724815548,-0.632143,-0.570106,-0.490562
1629724815558,-0.631655,-0.569801,-0.491843
1629724815567,-0.631655,-0.5693739999999999,-0.491477
1629724815577,-0.631838,-0.56974,-0.491599
1629724815586,-0.631472,-0.56974,-0.492514
1629724815596,-0.631594,-0.567971,-0.493368
1629724815606,-0.631472,-0.568276,-0.49263599999999996
1629724815615,-0.631106,-0.567422,-0.492758
1629724815625,-0.632265,-0.567361,-0.491965
1629724815634,-0.631655,-0.56791,-0.49202599999999996
1629724815644,-0.631777,-0.5684589999999999,-0.491965
1629724815654,-0.631167,-0.568703,-0.491782
1629724815663,-0.632082,-0.569008,-0.490135
1629724815673,-0.631289,-0.5702889999999999,-0.489952
1629724815682,-0.632387,-0.570228,-0.489464
1629724815692,-0.632814,-0.570045,-0.48958599999999997
1629724815702,-0.633424,-0.56913,-0.48983
1629724815711,-0.632753,-0.568337,-0.489098
1629724815721,-0.632448,-0.569313,-0.489342
1629724815730,-0.63257,-0.570045,-0.48983
1629724815740,-0.6320209999999999,-0.570533,-0.490257
1629724815750,-0.631777,-0.569252,-0.489525
1629724815759,-0.631533,-0.568886,-0.489952
1629724815769,-0.631655,-0.5693739999999999,-0.48958599999999997
1629724815778,-0.632692,-0.570106,-0.490074
1629724815788,-0.632448,-0.568642,-0.49105
1629724815798,-0.632265,-0.565958,-0.49202599999999996
1629724815807,-0.632082,-0.564738,-0.49227
1629724815817,-0.632448,-0.568337,-0.494527
1629724815826,-0.631655,-0.570533,-0.496174
1629724815836,-0.632448,-0.572058,-0.496479
1629724815846,-0.632387,-0.57157,-0.494954
1629724815855,-0.632143,-0.570838,-0.493307
1629724815865,-0.632387,-0.568398,-0.490257
1629724815874,-0.631777,-0.5675439999999999,-0.489769
1629724815884,-0.630862,-0.566751,-0.48806099999999997
1629724815894,-0.630557,-0.567483,-0.488854
1629724815903,-0.630435,-0.566446,-0.48922
1629724815913,-0.630008,-0.567178,-0.49080599999999996
1629724815922,-0.629215,-0.567727,-0.49227
1629724815932,-0.630069,-0.569313,-0.493063
1629724815942,-0.630191,-0.5690689999999999,-0.493978
1629724815951,-0.630496,-0.568947,-0.494527
1629724815961,-0.631594,-0.5684589999999999,-0.493673
1629724815970,-0.632265,-0.568215,-0.493429
1629724815980,-0.63196,-0.568398,-0.4941
1629724815990,-0.632509,-0.569557,-0.4941
1629724815999,-0.6329359999999999,-0.569618,-0.493185
1629724816009,-0.63257,-0.570106,-0.493368
1629724816018,-0.63318,-0.569496,-0.493734
1629724816028,-0.6326309999999999,-0.568703,-0.493795
1629724816038,-0.631655,-0.5681539999999999,-0.49324599999999996
1629724816047,-0.6317159999999999,-0.5712039999999999,-0.491233
1629724816057,-0.632082,-0.5712039999999999,-0.492087
1629724816066,-0.630435,-0.571875,-0.491294
1629724816076,-0.631289,-0.566446,-0.48958599999999997
1629724816086,-0.631472,-0.565226,-0.488305
1629724816095,-0.630923,-0.567056,-0.488488
1629724816105,-0.631045,-0.567605,-0.48897599999999997
1629724816114,-0.630679,-0.569313,-0.489342
1629724816124,-0.631411,-0.569557,-0.49172099999999996
1629724816134,-0.630923,-0.569191,-0.491843
1629724816143,-0.630191,-0.568032,-0.491782
1629724816153,-0.631289,-0.567788,-0.492514
1629724816162,-0.631289,-0.5678489999999999,-0.492087
1629724816172,-0.630984,-0.566507,-0.491355
1629724816182,-0.631838,-0.56608,-0.490867
1629724816191,-0.63196,-0.5669339999999999,-0.491477
1629724816201,-0.6335459999999999,-0.567605,-0.490745
1629724816210,-0.63379,-0.567788,-0.491294
1629724816220,-0.634888,-0.568703,-0.491233
1629724816230,-0.6338509999999999,-0.56913,-0.490989
1629724816239,-0.635132,-0.568276,-0.49111099999999996
1629724816249,-0.634583,-0.567422,-0.491599
1629724816258,-0.634949,-0.56669,-0.491599
1629724816268,-0.634644,-0.5663239999999999,-0.490867
1629724816278,-0.6353759999999999,-0.566263,-0.491233
1629724816287,-0.635742,-0.5660189999999999,-0.491477
1629724816297,-0.6362909999999999,-0.567666,-0.49141599999999996
1629724816306,-0.635864,-0.568337,-0.49080599999999996
1629724816316,-0.636352,-0.568093,-0.49105
1629724816326,-0.635803,-0.568337,-0.490257
1629724816335,-0.6359859999999999,-0.568642,-0.48989099999999997
1629724816345,-0.6344609999999999,-0.567788,-0.48928099999999997
1629724816354,-0.634278,-0.566995,-0.489098
1629724816364,-0.633729,-0.566568,-0.48867099999999997
1629724816374,-0.634278,-0.566385,-0.489464
1629724816383,-0.634034,-0.566751,-0.48958599999999997
1629724816393,-0.633302,-0.567178,-0.490684
1629724816402,-0.633668,-0.567666,-0.491294
1629724816412,-0.633729,-0.567117,-0.491355
1629724816422,-0.632997,-0.567056,-0.491843
1629724816431,-0.6326309999999999,-0.567117,-0.49263599999999996
1629724816441,-0.633302,-0.567178,-0.49294099999999996
1629724816450,-0.633058,-0.565287,-0.49324599999999996
1629724816460,-0.63318,-0.565226,-0.493307
1629724816470,-0.632387,-0.565592,-0.494222
1629724816479,-0.6326309999999999,-0.5663239999999999,-0.494954
1629724816489,-0.632082,-0.565653,-0.494405
1629724816498,-0.631838,-0.565958,-0.493856
1629724816508,-0.632265,-0.5660189999999999,-0.493978
1629724816518,-0.6329359999999999,-0.566751,-0.494161
1629724816527,-0.632875,-0.567361,-0.494771
1629724816537,-0.633302,-0.5666289999999999,-0.49294099999999996
1629724816546,-0.632204,-0.567788,-0.491843
1629724816556,-0.632814,-0.567727,-0.49111099999999996
1629724816566,-0.6323259999999999,-0.569618,-0.49019599999999997
1629724816575,-0.632265,-0.569618,-0.48867099999999997
1629724816585,-0.6332409999999999,-0.5705939999999999,-0.488915
1629724816594,-0.632753,-0.5690689999999999,-0.489037
1629724816604,-0.632692,-0.569191,-0.488732
1629724816614,-0.632082,-0.570167,-0.489708
1629724816623,-0.632082,-0.5721189999999999,-0.490684
1629724816633,-0.63135,-0.5705939999999999,-0.49050099999999996
1629724816642,-0.630679,-0.5702889999999999,-0.490562
1629724816652,-0.631167,-0.570228,-0.488854
1629724816662,-0.6317159999999999,-0.571875,-0.489769
1629724816671,-0.630191,-0.570533,-0.490562
1629724816681,-0.630801,-0.566568,-0.491172
1629724816690,-0.630862,-0.56425,-0.49105
1629724816700,-0.630618,-0.5666289999999999,-0.493429
1629724816710,-0.629642,-0.570716,-0.495137
1629724816719,-0.630191,-0.5727289999999999,-0.49654
1629724816729,-0.630618,-0.572607,-0.495747
1629724816738,-0.630496,-0.571082,-0.493368
1629724816748,-0.629947,-0.5690689999999999,-0.491538
1629724816758,-0.630496,-0.56852,-0.489647
1629724816767,-0.630435,-0.5673,-0.48836599999999997
1629724816777,-0.629703,-0.5675439999999999,-0.487695
1629724816786,-0.630313,-0.567666,-0.487634
1629724816796,-0.629886,-0.568398,-0.488488
1629724816806,-0.629642,-0.568703,-0.490562
1629724816815,-0.630191,-0.570838,-0.491355
1629724816825,-0.631472,-0.571326,-0.49233099999999996
1629724816834,-0.631289,-0.571387,-0.492819
1629724816844,-0.631899,-0.5708989999999999,-0.49227
1629724816854,-0.632143,-0.569496,-0.491843
1629724816863,-0.6326309999999999,-0.570228,-0.491904
1629724816873,-0.6326309999999999,-0.570838,-0.492209
1629724816882,-0.632814,-0.570777,-0.491599
1629724816892,-0.634217,-0.571631,-0.492453
1629724816902,-0.6338509999999999,-0.571631,-0.49111099999999996
1629724816911,-0.632509,-0.571631,-0.490684
1629724816921,-0.631838,-0.5712039999999999,-0.49044
1629724816930,-0.631594,-0.570167,-0.490928
1629724816940,-0.629642,-0.571265,-0.48861
1629724816950,-0.631106,-0.57401,-0.489525
1629724816959,-0.629947,-0.573095,-0.489769
1629724816969,-0.630374,-0.571753,-0.48836599999999997
1629724816978,-0.629886,-0.56791,-0.485255
1629724816988,-0.630435,-0.5678489999999999,-0.484279
1629724816998,-0.630496,-0.5690689999999999,-0.484828
1629724817007,-0.629642,-0.5724239999999999,-0.486109
1629724817017,-0.630923,-0.574376,-0.488793
1629724817026,-0.630191,-0.57401,-0.489952
1629724817036,-0.629825,-0.572363,-0.48983
1629724817046,-0.629764,-0.571448,-0.48989099999999997
1629724817055,-0.629886,-0.570228,-0.490257
1629724817065,-0.629764,-0.571021,-0.489708
1629724817074,-0.630374,-0.570106,-0.48861
1629724817084,-0.630374,-0.570167,-0.48867099999999997
1629724817094,-0.630862,-0.5712039999999999,-0.488244
1629724817103,-0.6317159999999999,-0.571021,-0.487878
1629724817113,-0.6323259999999999,-0.5721189999999999,-0.487817
1629724817122,-0.6320209999999999,-0.572058,-0.487573
1629724817132,-0.631411,-0.573034,-0.488244
1629724817142,-0.631045,-0.572058,-0.488732
1629724817151,-0.631594,-0.571021,-0.48958599999999997
1629724817161,-0.631838,-0.57035,-0.490013
1629724817170,-0.631899,-0.568886,-0.489769
1629724817180,-0.632265,-0.568642,-0.490013
1629724817190,-0.6326309999999999,-0.569618,-0.489708
1629724817199,-0.63318,-0.5708989999999999,-0.48983
1629724817209,-0.6326309999999999,-0.572546,-0.489464
1629724817218,-0.632997,-0.572363,-0.49050099999999996
1629724817228,-0.632204,-0.5718139999999999,-0.49019599999999997
1629724817238,-0.631899,-0.571082,-0.489098
1629724817247,-0.632204,-0.56974,-0.488549
1629724817257,-0.632082,-0.569191,-0.487512
1629724817266,-0.631838,-0.569557,-0.487268
1629724817276,-0.631838,-0.570167,-0.487512
1629724817286,-0.631289,-0.571143,-0.488122
1629724817295,-0.631899,-0.571143,-0.488244
1629724817305,-0.632082,-0.570838,-0.488854
1629724817314,-0.631655,-0.5705939999999999,-0.489525
1629724817324,-0.631289,-0.570777,-0.490318
1629724817334,-0.631655,-0.5696789999999999,-0.491233
1629724817343,-0.631899,-0.570411,-0.490623
1629724817353,-0.631228,-0.5705939999999999,-0.490745
1629724817362,-0.631777,-0.57035,-0.49044
1629724817372,-0.630984,-0.5702889999999999,-0.490318
1629724817382,-0.632082,-0.570228,-0.491233
1629724817391,-0.631533,-0.5699839999999999,-0.490257
1629724817401,-0.631594,-0.570838,-0.48958599999999997
1629724817410,-0.631472,-0.570716,-0.489037
1629724817420,-0.631228,-0.570655,-0.489037
1629724817430,-0.631472,-0.570777,-0.489403
1629724817439,-0.63074,-0.5708989999999999,-0.489952
1629724817449,-0.6317159999999999,-0.570167,-0.48928099999999997
1629724817458,-0.630496,-0.570167,-0.490257
1629724817468,-0.63074,-0.570167,-0.49019599999999997
1629724817478,-0.630984,-0.570411,-0.490074
1629724817487,-0.631045,-0.5705939999999999,-0.49044
1629724817497,-0.63074,-0.570472,-0.48928099999999997
1629724817506,-0.632143,-0.570472,-0.489342
1629724817516,-0.631655,-0.571753,-0.488244
1629724817526,-0.6320209999999999,-0.571265,-0.488732
1629724817535,-0.632875,-0.57218,-0.487939
1629724817545,-0.632692,-0.571021,-0.487268
1629724817554,-0.631594,-0.570655,-0.486475
1629724817564,-0.631533,-0.572058,-0.487024
1629724817574,-0.632814,-0.573278,-0.488549
1629724817583,-0.632204,-0.572241,-0.488732
1629724817593,-0.631045,-0.571936,-0.487207
1629724817602,-0.632265,-0.572912,-0.48653599999999997
1629724817612,-0.632753,-0.574193,-0.48775599999999997
1629724817622,-0.632509,-0.573827,-0.487207
1629724817631,-0.631106,-0.56913,-0.485987
1629724817641,-0.630313,-0.565653,-0.486048
1629724817650,-0.632143,-0.568398,-0.487512
1629724817660,-0.6320209999999999,-0.571631,-0.489952
1629724817670,-0.63196,-0.57462,-0.49202599999999996
1629724817679,-0.63196,-0.574376,-0.492087
1629724817689,-0.632448,-0.573949,-0.49080599999999996
1629724817698,-0.6323259999999999,-0.571387,-0.488732
1629724817708,-0.632509,-0.569923,-0.487329
1629724817718,-0.630862,-0.568642,-0.48653599999999997
1629724817727,-0.631472,-0.569252,-0.485133
1629724817737,-0.631594,-0.570045,-0.485133
1629724817746,-0.631472,-0.570838,-0.484584
1629724817756,-0.631472,-0.570533,-0.485743
1629724817766,-0.631594,-0.572302,-0.48678
1629724817775,-0.632265,-0.573217,-0.48836599999999997
1629724817785,-0.631899,-0.573217,-0.48836599999999997
1629724817794,-0.632509,-0.5727289999999999,-0.490074
1629724817804,-0.632509,-0.572668,-0.490257
1629724817814,-0.632814,-0.572363,-0.490013
1629724817823,-0.632265,-0.571692,-0.489708
1629724817833,-0.632692,-0.573095,-0.48922
1629724817842,-0.632448,-0.572058,-0.489098
1629724817852,-0.6326309999999999,-0.5724239999999999,-0.488854
1629724817862,-0.632082,-0.572485,-0.48867099999999997
1629724817871,-0.632204,-0.571692,-0.48958599999999997
1629724817881,-0.6326309999999999,-0.57096,-0.489525
1629724817890,-0.630557,-0.57035,-0.490013
1629724817900,-0.63013,-0.57218,-0.48867099999999997
1629724817910,-0.63257,-0.574742,-0.487939
1629724817919,-0.630496,-0.573583,-0.48745099999999997
1629724817929,-0.630618,-0.572241,-0.48592599999999997
1629724817938,-0.631106,-0.567422,-0.483059
1629724817948,-0.631411,-0.568947,-0.48312
1629724817958,-0.63135,-0.57035,-0.484157
1629724817967,-0.631777,-0.57279,-0.48495
1629724817977,-0.632448,-0.573034,-0.485743
1629724817986,-0.632143,-0.572485,-0.486963
1629724817996,-0.632143,-0.572668,-0.48806099999999997
1629724818006,-0.632265,-0.57218,-0.488122
1629724818015,-0.631472,-0.5724239999999999,-0.488427
1629724818025,-0.63196,-0.571753,-0.48806099999999997
1629724818034,-0.63196,-0.570838,-0.487085
1629724818044,-0.631838,-0.570411,-0.486719
1629724818054,-0.63318,-0.570472,-0.48617
1629724818063,-0.633363,-0.571997,-0.485987
1629724818073,-0.632875,-0.5721189999999999,-0.486292
1629724818082,-0.63379,-0.572241,-0.486353
1629724818092,-0.633363,-0.570777,-0.48678
1629724818102,-0.633729,-0.570655,-0.488
1629724818111,-0.632448,-0.570655,-0.488305
1629724818121,-0.63318,-0.570045,-0.48806099999999997
1629724818130,-0.633424,-0.569801,-0.488732
1629724818140,-0.633363,-0.569862,-0.489769
1629724818150,-0.634949,-0.5696789999999999,-0.489525
1629724818159,-0.634583,-0.5705939999999999,-0.490074
1629724818169,-0.634034,-0.5708989999999999,-0.48922
1629724818178,-0.634583,-0.571692,-0.48922
1629724818188,-0.634034,-0.571692,-0.488854
1629724818198,-0.63379,-0.571265,-0.486902
1629724818207,-0.634278,-0.571082,-0.486353
1629724818217,-0.6335459999999999,-0.57035,-0.485194
1629724818226,-0.634705,-0.5699839999999999,-0.485194
1629724818236,-0.633912,-0.57035,-0.485804
1629724818246,-0.633119,-0.570411,-0.486414
1629724818255,-0.6332409999999999,-0.570716,-0.486963
1629724818265,-0.6329359999999999,-0.5705939999999999,-0.486353
1629724818274,-0.6332409999999999,-0.5702889999999999,-0.486658
1629724818284,-0.633058,-0.569801,-0.487268
1629724818294,-0.632875,-0.570228,-0.48775599999999997
1629724818303,-0.6329359999999999,-0.569862,-0.487573
1629724818313,-0.633302,-0.570167,-0.487939
1629724818322,-0.633302,-0.5705939999999999,-0.488488
1629724818332,-0.633302,-0.570106,-0.48922
1629724818342,-0.6335459999999999,-0.570045,-0.488427
1629724818351,-0.6335459999999999,-0.569557,-0.48745099999999997
1629724818361,-0.6332409999999999,-0.570411,-0.48739
1629724818370,-0.633729,-0.570411,-0.487634
1629724818380,-0.633668,-0.570167,-0.487512
1629724818390,-0.63379,-0.569557,-0.487695
1629724818399,-0.633485,-0.56974,-0.486963
1629724818409,-0.633912,-0.570716,-0.487085
1629724818418,-0.633119,-0.570777,-0.488854
1629724818428,-0.633973,-0.57035,-0.487634
1629724818438,-0.633668,-0.570167,-0.487634
1629724818447,-0.633485,-0.5693739999999999,-0.487634
1629724818457,-0.633729,-0.5687639999999999,-0.488183
1629724818466,-0.633485,-0.569496,-0.488183
1629724818476,-0.634034,-0.56913,-0.488732
1629724818486,-0.63379,-0.5690689999999999,-0.489037
1629724818495,-0.633668,-0.5702889999999999,-0.48928099999999997
1629724818505,-0.6347659999999999,-0.569862,-0.489098
1629724818514,-0.634034,-0.569313,-0.487512
1629724818524,-0.633302,-0.570045,-0.487695
1629724818534,-0.633302,-0.570533,-0.486658
1629724818543,-0.634278,-0.56913,-0.486048
1629724818553,-0.634339,-0.569313,-0.48653599999999997
1629724818562,-0.6341559999999999,-0.571326,-0.48592599999999997
1629724818572,-0.634583,-0.57218,-0.486963
1629724818582,-0.634583,-0.5727289999999999,-0.48714599999999997
1629724818591,-0.632753,-0.571387,-0.48531599999999997
1629724818601,-0.6335459999999999,-0.573095,-0.484828
1629724818610,-0.634034,-0.574071,-0.485804
1629724818620,-0.633058,-0.573827,-0.486658
1629724818630,-0.633912,-0.568276,-0.485804
1629724818639,-0.634034,-0.565226,-0.484767
1629724818649,-0.632997,-0.5660189999999999,-0.48470599999999997
1629724818658,-0.6338509999999999,-0.569008,-0.486658
1629724818668,-0.634217,-0.57157,-0.488854
1629724818678,-0.633424,-0.573095,-0.489464
1629724818687,-0.633668,-0.573095,-0.489708
1629724818697,-0.633485,-0.570838,-0.49019599999999997
1629724818706,-0.6329359999999999,-0.568703,-0.488305
1629724818716,-0.63318,-0.568276,-0.487634
1629724818726,-0.632753,-0.5678489999999999,-0.485743
1629724818735,-0.6329359999999999,-0.568886,-0.48470599999999997
1629724818745,-0.6329359999999999,-0.568276,-0.485072
1629724818754,-0.63318,-0.570411,-0.484645
1629724818764,-0.6329359999999999,-0.571143,-0.485072
1629724818774,-0.633119,-0.572241,-0.485865
1629724818783,-0.63257,-0.571936,-0.486902
1629724818793,-0.63379,-0.572058,-0.48775599999999997
1629724818802,-0.6341559999999999,-0.571753,-0.487512
1629724818812,-0.633973,-0.571021,-0.48678
1629724818822,-0.634278,-0.571082,-0.48714599999999997
1629724818831,-0.6359859999999999,-0.569801,-0.487878
1629724818841,-0.635498,-0.570472,-0.488854
1629724818850,-0.634705,-0.571021,-0.489159
1629724818860,-0.634827,-0.5705939999999999,-0.489159
1629724818870,-0.634888,-0.570167,-0.48983
1629724818879,-0.634827,-0.5687639999999999,-0.490074
1629724818889,-0.633729,-0.568093,-0.49050099999999996
1629724818898,-0.633363,-0.568337,-0.489464
1629724818908,-0.633912,-0.570838,-0.48836599999999997
1629724818918,-0.633058,-0.570411,-0.487634
1629724818927,-0.6329359999999999,-0.570777,-0.48592599999999997
1629724818937,-0.633363,-0.567178,-0.483608
1629724818946,-0.633302,-0.5669339999999999,-0.482998
1629724818956,-0.63379,-0.567361,-0.483608
1629724818966,-0.633363,-0.5684589999999999,-0.48440099999999997
1629724818975,-0.633973,-0.570045,-0.485133
1629724818985,-0.634278,-0.570228,-0.485987
1629724818994,-0.635315,-0.569435,-0.486719
1629724819004,-0.63562,-0.569862,-0.48775599999999997
1629724819014,-0.635132,-0.570045,-0.487634
1629724819023,-0.63501,-0.5702889999999999,-0.48684099999999997
1629724819033,-0.63562,-0.569618,-0.48684099999999997
1629724819042,-0.635803,-0.56974,-0.487085
1629724819052,-0.635254,-0.569191,-0.48617
1629724819062,-0.635193,-0.568947,-0.485743
1629724819071,-0.634827,-0.568642,-0.48562099999999997
1629724819081,-0.6356809999999999,-0.568947,-0.484889
1629724819090,-0.635498,-0.5678489999999999,-0.484889
1629724819100,-0.635559,-0.569313,-0.48531599999999997
1629724819110,-0.635132,-0.568581,-0.48623099999999997
1629724819119,-0.634644,-0.56852,-0.486658
1629724819129,-0.635498,-0.568276,-0.487329
1629724819138,-0.6350709999999999,-0.568581,-0.487268
1629724819148,-0.635559,-0.5681539999999999,-0.488183
1629724819158,-0.63623,-0.568642,-0.48739
1629724819167,-0.636474,-0.568398,-0.488183
1629724819177,-0.63684,-0.5684589999999999,-0.48714599999999997
1629724819186,-0.636718,-0.5699839999999999,-0.487268
1629724819196,-0.636657,-0.570228,-0.486658
1629724819206,-0.637389,-0.570472,-0.484584
1629724819215,-0.637267,-0.570411,-0.483547
1629724819225,-0.636718,-0.569618,-0.48318099999999997
1629724819234,-0.636535,-0.570106,-0.484157
1629724819244,-0.635498,-0.569496,-0.48348599999999997
1629724819254,-0.635559,-0.570045,-0.483364
1629724819263,-0.635132,-0.56974,-0.484767
1629724819273,-0.634827,-0.570106,-0.48434
1629724819282,-0.635132,-0.568886,-0.48501099999999997
1629724819292,-0.6353759999999999,-0.5687639999999999,-0.48592599999999997
1629724819302,-0.6341559999999999,-0.5693739999999999,-0.485987
1629724819311,-0.635132,-0.5687639999999999,-0.48678
1629724819321,-0.634705,-0.569252,-0.48714599999999997
1629724819330,-0.6347659999999999,-0.56974,-0.48739
1629724819340,-0.63501,-0.569496,-0.48684099999999997
1629724819350,-0.6347659999999999,-0.5693739999999999,-0.486414
1629724819359,-0.63501,-0.5699839999999999,-0.48653599999999997
1629724819369,-0.634705,-0.569862,-0.485133
1629724819378,-0.634888,-0.570106,-0.48592599999999997
1629724819388,-0.634583,-0.5705939999999999,-0.485133
1629724819398,-0.634888,-0.5699839999999999,-0.486353
1629724819407,-0.634034,-0.570045,-0.485865
1629724819417,-0.63379,-0.570716,-0.48592599999999997
1629724819426,-0.634339,-0.57035,-0.48495
1629724819436,-0.635193,-0.570533,-0.484828
1629724819446,-0.6344609999999999,-0.5712039999999999,-0.485194
1629724819455,-0.635498,-0.570411,-0.48623099999999997
1629724819465,-0.635437,-0.571082,-0.486719
1629724819474,-0.634827,-0.5699839999999999,-0.48562099999999997
1629724819484,-0.6341559999999999,-0.5699839999999999,-0.486048
1629724819494,-0.6338509999999999,-0.569252,-0.486292
1629724819503,-0.6341559999999999,-0.569862,-0.486414
1629724819513,-0.634339,-0.569801,-0.48745099999999997
1629724819522,-0.634339,-0.569618,-0.48775599999999997
1629724819532,-0.634827,-0.570472,-0.486353
1629724819542,-0.634888,-0.569862,-0.485865
1629724819551,-0.635193,-0.570106,-0.486414
1629724819561,-0.635132,-0.57035,-0.485255
1629724819570,-0.636047,-0.570716,-0.48440099999999997
1629724819580,-0.635132,-0.569801,-0.484035
1629724819590,-0.635132,-0.570472,-0.484035
1629724819599,-0.635559,-0.5718139999999999,-0.485194
1629724819609,-0.635864,-0.571448,-0.48501099999999997
1629724819618,-0.634949,-0.570777,-0.484035
1629724819628,-0.633912,-0.571143,-0.482083
1629724819638,-0.634949,-0.57279,-0.483608
1629724819647,-0.6350709999999999,-0.57279,-0.48440099999999997
1629724819657,-0.635254,-0.569618,-0.48409599999999997
1629724819666,-0.635498,-0.565531,-0.483608
1629724819676,-0.635864,-0.5641889999999999,-0.483669
1629724819686,-0.6365959999999999,-0.567056,-0.485438
1629724819695,-0.636535,-0.570228,-0.488
1629724819705,-0.63562,-0.5718139999999999,-0.488793
1629724819714,-0.636779,-0.572058,-0.489342
1629724819724,-0.636535,-0.571448,-0.48867099999999997
1629724819734,-0.636047,-0.569496,-0.487329
1629724819743,-0.637023,-0.5687639999999999,-0.484584
1629724819753,-0.635559,-0.56791,-0.483364
1629724819762,-0.636047,-0.568337,-0.481473
1629724819772,-0.635132,-0.5687639999999999,-0.48129
1629724819782,-0.635803,-0.5708989999999999,-0.481168
1629724819791,-0.635864,-0.5715089999999999,-0.481656
1629724819801,-0.63623,-0.572058,-0.48251
1629724819810,-0.635803,-0.572851,-0.48348599999999997
1629724819820,-0.636108,-0.57218,-0.484279
1629724819830,-0.63562,-0.571265,-0.485438
1629724819839,-0.635864,-0.5705939999999999,-0.486048
1629724819849,-0.6359859999999999,-0.569801,-0.487207
1629724819858,-0.635803,-0.569008,-0.487939
1629724819868,-0.63562,-0.56974,-0.48745099999999997
1629724819878,-0.635193,-0.570655,-0.48928099999999997
1629724819887,-0.635803,-0.570777,-0.487939
1629724819897,-0.634949,-0.570655,-0.48836599999999997
1629724819906,-0.635254,-0.5696789999999999,-0.48836599999999997
1629724819916,-0.633912,-0.56913,-0.488183
1629724819926,-0.633058,-0.570106,-0.485682
1629724819935,-0.6338509999999999,-0.572058,-0.484462
1629724819945,-0.633607,-0.572302,-0.483852
1629724819954,-0.633424,-0.572241,-0.482144
1629724819964,-0.634827,-0.569008,-0.480497
1629724819974,-0.634278,-0.568825,-0.480985
1629724819983,-0.634522,-0.5702889999999999,-0.481412
1629724819993,-0.634583,-0.570472,-0.483303
1629724820002,-0.6347659999999999,-0.571387,-0.48434
1629724820012,-0.635315,-0.571448,-0.48531599999999997
1629724820022,-0.635864,-0.571326,-0.485682
1629724820031,-0.634827,-0.5712039999999999,-0.48623099999999997
1629724820041,-0.635132,-0.570106,-0.485987
1629724820050,-0.635803,-0.570228,-0.485804
1629724820060,-0.635132,-0.570411,-0.485987
1629724820070,-0.635498,-0.570106,-0.485255
1629724820079,-0.634888,-0.570777,-0.484828
1629724820089,-0.6353759999999999,-0.5702889999999999,-0.484218
1629724820098,-0.636169,-0.570533,-0.483303
1629724820108,-0.636108,-0.5693739999999999,-0.483669
1629724820118,-0.635254,-0.571143,-0.48409599999999997
1629724820127,-0.635925,-0.570045,-0.484218
1629724820137,-0.63501,-0.570045,-0.483852
1629724820146,-0.635742,-0.5699839999999999,-0.485072
1629724820156,-0.63562,-0.569923,-0.486719
1629724820166,-0.6359859999999999,-0.569313,-0.487024
1629724820175,-0.635498,-0.569252,-0.487878
1629724820185,-0.63562,-0.569252,-0.48739
1629724820194,-0.635925,-0.568215,-0.48653599999999997
1629724820204,-0.636535,-0.569557,-0.486414
1629724820214,-0.6362909999999999,-0.56913,-0.485682
1629724820223,-0.63684,-0.570777,-0.485743
1629724820233,-0.6359859999999999,-0.5715089999999999,-0.485377
1629724820242,-0.63562,-0.571082,-0.483852
1629724820252,-0.6356809999999999,-0.571692,-0.48318099999999997
1629724820262,-0.63501,-0.571021,-0.48251
1629724820271,-0.634522,-0.5702889999999999,-0.482388
1629724820281,-0.635132,-0.5699839999999999,-0.482998
1629724820290,-0.635742,-0.571021,-0.484035
1629724820300,-0.6347659999999999,-0.571387,-0.48440099999999997
1629724820310,-0.634583,-0.571021,-0.484889
1629724820319,-0.63379,-0.571387,-0.486414
1629724820329,-0.633363,-0.571326,-0.48653599999999997
1629724820338,-0.633119,-0.570228,-0.486353
1629724820348,-0.633302,-0.5699839999999999,-0.486597
1629724820358,-0.633058,-0.570411,-0.486658
1629724820367,-0.6326309999999999,-0.569862,-0.48714599999999997
1629724820377,-0.632814,-0.569862,-0.485438
1629724820386,-0.633363,-0.570472,-0.486719
1629724820396,-0.633668,-0.5712039999999999,-0.486658
1629724820406,-0.633302,-0.571021,-0.486963
1629724820415,-0.6335459999999999,-0.5705939999999999,-0.485499
1629724820425,-0.634034,-0.5718139999999999,-0.48556
1629724820434,-0.634522,-0.572241,-0.485194
1629724820444,-0.634522,-0.572668,-0.485133
1629724820454,-0.6347659999999999,-0.5718139999999999,-0.484218
1629724820463,-0.634095,-0.571997,-0.484218
1629724820473,-0.634522,-0.571692,-0.484889
1629724820482,-0.6347659999999999,-0.571692,-0.484523
1629724820492,-0.63501,-0.571875,-0.484767
1629724820502,-0.63501,-0.571875,-0.484889
1629724820511,-0.634583,-0.5718139999999999,-0.48501099999999997
1629724820521,-0.6350709999999999,-0.571448,-0.484645
1629724820530,-0.634339,-0.570228,-0.485072
1629724820540,-0.634827,-0.57096,-0.48562099999999997
1629724820550,-0.635132,-0.571326,-0.486048
1629724820559,-0.634644,-0.571631,-0.485804
1629724820569,-0.63501,-0.571753,-0.485377
1629724820578,-0.635193,-0.571936,-0.48434
1629724820588,-0.636108,-0.5718139999999999,-0.48434
1629724820598,-0.635742,-0.571143,-0.483242
1629724820607,-0.635498,-0.570228,-0.483669
1629724820617,-0.6359859999999999,-0.572058,-0.482632
1629724820626,-0.635559,-0.572607,-0.482937
1629724820636,-0.635498,-0.572485,-0.48287599999999997
1629724820646,-0.6344,-0.570472,-0.48318099999999997
1629724820655,-0.635315,-0.571021,-0.483852
1629724820665,-0.635925,-0.572668,-0.484462
1629724820674,-0.635254,-0.572912,-0.48495
1629724820684,-0.634644,-0.5699839999999999,-0.485438
1629724820694,-0.634339,-0.566141,-0.484828
1629724820703,-0.634644,-0.566202,-0.484035
1629724820713,-0.6350709999999999,-0.568398,-0.48617
1629724820722,-0.635498,-0.571143,-0.48775599999999997
1629724820732,-0.6347659999999999,-0.573278,-0.488183
1629724820742,-0.635254,-0.573278,-0.48745099999999997
1629724820751,-0.6353759999999999,-0.571631,-0.486597
1629724820761,-0.6350709999999999,-0.569801,-0.485804
1629724820770,-0.6344,-0.568032,-0.483913
1629724820780,-0.634705,-0.56791,-0.48257099999999997
1629724820790,-0.633363,-0.567605,-0.482388
1629724820799,-0.633912,-0.568825,-0.482022
1629724820809,-0.634644,-0.568947,-0.481778
1629724820818,-0.634217,-0.569801,-0.482937
1629724820828,-0.634278,-0.57035,-0.485133
1629724820838,-0.6344,-0.571326,-0.485194
1629724820847,-0.6344609999999999,-0.570777,-0.48592599999999997
1629724820857,-0.635864,-0.5705939999999999,-0.486963
1629724820866,-0.636718,-0.5705939999999999,-0.48653599999999997
1629724820876,-0.6369009999999999,-0.570838,-0.487268
1629724820886,-0.637023,-0.570472,-0.48678
1629724820895,-0.637572,-0.571753,-0.487512
1629724820905,-0.636657,-0.571448,-0.48653599999999997
1629724820914,-0.637572,-0.571326,-0.486475
1629724820924,-0.637145,-0.571326,-0.487207
1629724820934,-0.636535,-0.569801,-0.487512
1629724820943,-0.634278,-0.570167,-0.485743
1629724820953,-0.6344,-0.573522,-0.48501099999999997
1629724820962,-0.633912,-0.573339,-0.485438
1629724820972,-0.634339,-0.57218,-0.48440099999999997
1629724820982,-0.634949,-0.5681539999999999,-0.482388
1629724820991,-0.634034,-0.567605,-0.480802
1629724821001,-0.634217,-0.567117,-0.48068
1629724821010,-0.634095,-0.568886,-0.482205
1629724821020,-0.634339,-0.571265,-0.484645
1629724821030,-0.6350709999999999,-0.572912,-0.486048
1629724821039,-0.634644,-0.572302,-0.48653599999999997
1629724821049,-0.634583,-0.57157,-0.486109
1629724821058,-0.634522,-0.571387,-0.485682
1629724821068,-0.6347659999999999,-0.570716,-0.484462
1629724821078,-0.634522,-0.569801,-0.48348599999999997
1629724821087,-0.6344,-0.569862,-0.482632
1629724821097,-0.6347659999999999,-0.56913,-0.483425
1629724821106,-0.63562,-0.57096,-0.483242
1629724821116,-0.6353759999999999,-0.57096,-0.48318099999999997
1629724821126,-0.6353759999999999,-0.57035,-0.48409599999999997
1629724821135,-0.635925,-0.570411,-0.484828
1629724821145,-0.635498,-0.5708989999999999,-0.48562099999999997
1629724821154,-0.634949,-0.570045,-0.48623099999999997
1629724821164,-0.635254,-0.570716,-0.487085
1629724821174,-0.635864,-0.571021,-0.487695
1629724821183,-0.6353759999999999,-0.569313,-0.486597
1629724821193,-0.6365959999999999,-0.5687639999999999,-0.487024
1629724821202,-0.636047,-0.5690689999999999,-0.486658
1629724821212,-0.635498,-0.569618,-0.486109
1629724821222,-0.63562,-0.569862,-0.486353
1629724821231,-0.635559,-0.570167,-0.48556
1629724821241,-0.634888,-0.570838,-0.48470599999999997
1629724821250,-0.634949,-0.571021,-0.48501099999999997
1629724821260,-0.63501,-0.571448,-0.484889
1629724821270,-0.635132,-0.5712039999999999,-0.48409599999999997
1629724821279,-0.63501,-0.570838,-0.48434
1629724821289,-0.6347659999999999,-0.569862,-0.483669
1629724821298,-0.634583,-0.570228,-0.484462
1629724821308,-0.634705,-0.570106,-0.48501099999999997
1629724821318,-0.633424,-0.570533,-0.48531599999999997
1629724821327,-0.634583,-0.570777,-0.48617
1629724821337,-0.634827,-0.570533,-0.485987
1629724821346,-0.634888,-0.57035,-0.486597
1629724821356,-0.6350709999999999,-0.570777,-0.487024
1629724821366,-0.634705,-0.56974,-0.487207
1629724821375,-0.634827,-0.570838,-0.487939
1629724821385,-0.63379,-0.570167,-0.487695
1629724821394,-0.6341559999999999,-0.569496,-0.48745099999999997
1629724821404,-0.6338509999999999,-0.5693739999999999,-0.48678
1629724821414,-0.633607,-0.569313,-0.486292
1629724821423,-0.633668,-0.569801,-0.48623099999999997
1629724821433,-0.6341559999999999,-0.571143,-0.48617
1629724821442,-0.634217,-0.571326,-0.486414
1629724821452,-0.6341559999999999,-0.571082,-0.486048
1629724821462,-0.634644,-0.5702889999999999,-0.485743
1629724821471,-0.6344609999999999,-0.5712039999999999,-0.48495
1629724821481,-0.634522,-0.5702889999999999,-0.485499
1629724821490,-0.634583,-0.570777,-0.485377
1629724821500,-0.633668,-0.570472,-0.48501099999999997
1629724821510,-0.634522,-0.570106,-0.48440099999999997
1629724821519,-0.634705,-0.571448,-0.484462
1629724821529,-0.63501,-0.571021,-0.484279
1629724821538,-0.635254,-0.571692,-0.484462
1629724821548,-0.636535,-0.572302,-0.48379099999999997
1629724821558,-0.636962,-0.571143,-0.48373
1629724821567,-0.636047,-0.5702889999999999,-0.482205
1629724821577,-0.636169,-0.5715089999999999,-0.481717
1629724821586,-0.6362909999999999,-0.5721189999999999,-0.482815
1629724821596,-0.635742,-0.573278,-0.48373
1629724821606,-0.6359859999999999,-0.572241,-0.48379099999999997
1629724821615,-0.6362909999999999,-0.571021,-0.48312
1629724821625,-0.636474,-0.572241,-0.482632
1629724821634,-0.635742,-0.5724239999999999,-0.482693
1629724821644,-0.636047,-0.570533,-0.484523
1629724821654,-0.635437,-0.568276,-0.485255
1629724821663,-0.636169,-0.566812,-0.485133
1629724821673,-0.6356809999999999,-0.569313,-0.486292
1629724821682,-0.635498,-0.572363,-0.487939
1629724821692,-0.635864,-0.573278,-0.487573
1629724821702,-0.635559,-0.573705,-0.486048
1629724821711,-0.635803,-0.571631,-0.484584
1629724821721,-0.635498,-0.570228,-0.483669
1629724821730,-0.634949,-0.569313,-0.482266
1629724821740,-0.634827,-0.56791,-0.482754
1629724821750,-0.633058,-0.5681539999999999,-0.48312
1629724821759,-0.63379,-0.5684589999999999,-0.482998
1629724821769,-0.633973,-0.568215,-0.48495
1629724821778,-0.633973,-0.568703,-0.485499
1629724821788,-0.634827,-0.56974,-0.485865
1629724821798,-0.6350709999999999,-0.5699839999999999,-0.486292
1629724821807,-0.635254,-0.571021,-0.487634
1629724821817,-0.635925,-0.570411,-0.48684099999999997
1629724821826,-0.637023,-0.570655,-0.487878
1629724821836,-0.6372059999999999,-0.570045,-0.487939
1629724821846,-0.637755,-0.570228,-0.488915
1629724821855,-0.636718,-0.570106,-0.488305
1629724821865,-0.635925,-0.570533,-0.488183
1629724821874,-0.636352,-0.570533,-0.488854
1629724821884,-0.635559,-0.5690689999999999,-0.48836599999999997
1629724821894,-0.634278,-0.568093,-0.487573
1629724821903,-0.63379,-0.571387,-0.48556
1629724821913,-0.634888,-0.571692,-0.485194
1629724821922,-0.634278,-0.57279,-0.485255
1629724821932,-0.633607,-0.567605,-0.484218
1629724821942,-0.633973,-0.567361,-0.482693
1629724821951,-0.634522,-0.5690689999999999,-0.48251
1629724821961,-0.634339,-0.570045,-0.483242
1629724821970,-0.634705,-0.572302,-0.483303
1629724821980,-0.634827,-0.5724239999999999,-0.484889
1629724821990,-0.634278,-0.572912,-0.485438
1629724821999,-0.634217,-0.57157,-0.485133
1629724822009,-0.634095,-0.571387,-0.486048
1629724822018,-0.6344,-0.57157,-0.485499
1629724822028,-0.634522,-0.569862,-0.484462
1629724822038,-0.633912,-0.568703,-0.484584
1629724822047,-0.633119,-0.568825,-0.483852
1629724822057,-0.634522,-0.5699839999999999,-0.483547
1629724822066,-0.634583,-0.571265,-0.482998
1629724822076,-0.634644,-0.571326,-0.48379099999999997
1629724822086,-0.634827,-0.571753,-0.483669
1629724822095,-0.63501,-0.57157,-0.48495
1629724822105,-0.6344609999999999,-0.571631,-0.48592599999999997
1629724822114,-0.635254,-0.570106,-0.486353
1629724822124,-0.635437,-0.569496,-0.48678
1629724822134,-0.6353759999999999,-0.569435,-0.48739
1629724822143,-0.635803,-0.570228,-0.487207
1629724822153,-0.6353759999999999,-0.569801,-0.486963
1629724822162,-0.635315,-0.571143,-0.48623099999999997
1629724822172,-0.635254,-0.57157,-0.486475
1629724822182,-0.635864,-0.572607,-0.485255
1629724822191,-0.635315,-0.572302,-0.484828
1629724822201,-0.6362909999999999,-0.5724239999999999,-0.483547
1629724822210,-0.634888,-0.5724239999999999,-0.483974
1629724822220,-0.634705,-0.572668,-0.483059
1629724822230,-0.6344609999999999,-0.572241,-0.482632
1629724822239,-0.634888,-0.572241,-0.483059
1629724822249,-0.634949,-0.571936,-0.48251
1629724822258,-0.634705,-0.572485,-0.482632
1629724822268,-0.634522,-0.572241,-0.48318099999999997
1629724822278,-0.634705,-0.571936,-0.48470599999999997
1629724822287,-0.633729,-0.572302,-0.484767
1629724822297,-0.634888,-0.5708989999999999,-0.486353
1629724822306,-0.6344609999999999,-0.570716,-0.48623099999999997
1629724822316,-0.6341559999999999,-0.570411,-0.487207
1629724822326,-0.63257,-0.57035,-0.486902
1629724822335,-0.6326309999999999,-0.569496,-0.486658
1629724822345,-0.632143,-0.570472,-0.48806099999999997
1629724822354,-0.632204,-0.570167,-0.488
1629724822364,-0.63257,-0.570533,-0.487634
1629724822374,-0.6323259999999999,-0.5699839999999999,-0.487817
1629724822383,-0.6329359999999999,-0.5702889999999999,-0.48653599999999997
1629724822393,-0.632875,-0.5712039999999999,-0.488244
1629724822402,-0.633363,-0.571143,-0.486414
1629724822412,-0.633607,-0.571387,-0.48470599999999997
1629724822422,-0.633607,-0.571875,-0.483852
1629724822431,-0.63379,-0.572058,-0.483303
1629724822441,-0.63379,-0.57218,-0.483364
1629724822450,-0.635559,-0.5727289999999999,-0.48287599999999997
1629724822460,-0.63562,-0.572668,-0.482998
1629724822470,-0.6353759999999999,-0.5715089999999999,-0.483242
1629724822479,-0.635742,-0.573034,-0.483242
1629724822489,-0.635254,-0.5734,-0.482693
1629724822498,-0.634949,-0.572851,-0.483364
1629724822508,-0.6350709999999999,-0.5721189999999999,-0.483303
1629724822518,-0.635254,-0.571021,-0.482266
1629724822527,-0.635132,-0.572851,-0.481046
1629724822537,-0.63501,-0.572241,-0.480863
1629724822546,-0.634278,-0.57096,-0.483852
1629724822556,-0.6350709999999999,-0.567788,-0.484218
1629724822566,-0.6353759999999999,-0.567422,-0.485194
1629724822575,-0.635315,-0.5702889999999999,-0.487268
1629724822585,-0.635925,-0.573156,-0.489342
1629724822594,-0.636169,-0.573339,-0.488854
1629724822604,-0.636535,-0.572363,-0.486902
1629724822614,-0.636108,-0.57035,-0.484218
1629724822623,-0.6353759999999999,-0.569435,-0.482327
1629724822633,-0.634522,-0.568642,-0.48129
1629724822642,-0.634644,-0.5681539999999999,-0.481351
1629724822652,-0.635315,-0.5690689999999999,-0.481412
1629724822662,-0.6344,-0.569496,-0.48312
1629724822671,-0.634583,-0.569801,-0.48409599999999997
1629724822681,-0.634522,-0.56974,-0.48684099999999997
1629724822690,-0.634095,-0.570472,-0.48653599999999997
1629724822700,-0.634583,-0.5699839999999999,-0.486719
1629724822710,-0.635498,-0.570045,-0.486658
1629724822719,-0.635742,-0.570472,-0.486658
1629724822729,-0.637145,-0.571448,-0.48678
1629724822738,-0.636352,-0.570472,-0.48592599999999997
1629724822748,-0.636352,-0.5705939999999999,-0.486292
1629724822758,-0.6375109999999999,-0.571265,-0.486963
1629724822767,-0.63684,-0.57157,-0.48678
1629724822777,-0.635437,-0.571387,-0.487085
1629724822786,-0.6353759999999999,-0.570777,-0.486597
1629724822796,-0.635193,-0.5690689999999999,-0.487512
1629724822806,-0.6341559999999999,-0.56913,-0.486658
1629724822815,-0.6344,-0.572668,-0.484767
1629724822825,-0.634217,-0.573217,-0.485377
1629724822834,-0.633912,-0.572668,-0.48495
1629724822844,-0.634034,-0.566873,-0.481473
1629724822854,-0.6341559999999999,-0.567666,-0.48007
1629724822863,-0.6347659999999999,-0.569313,-0.480131
1629724822873,-0.635132,-0.57035,-0.48092399999999996
1629724822882,-0.6347659999999999,-0.572607,-0.482205
1629724822892,-0.635132,-0.57279,-0.48318099999999997
1629724822902,-0.634827,-0.5724239999999999,-0.48409599999999997
1629724822911,-0.634888,-0.5715089999999999,-0.483852
1629724822921,-0.6350709999999999,-0.57096,-0.484218
1629724822930,-0.634827,-0.570167,-0.484157
1629724822940,-0.635132,-0.56913,-0.48379099999999997
1629724822950,-0.63562,-0.57035,-0.483242
1629724822959,-0.636718,-0.57096,-0.483852
1629724822969,-0.637084,-0.572668,-0.483547
1629724822978,-0.6375109999999999,-0.5724239999999999,-0.483425
1629724822988,-0.6369009999999999,-0.571753,-0.483974
1629724822998,-0.636779,-0.57096,-0.484157
1629724823007,-0.636779,-0.57157,-0.48440099999999997
1629724823017,-0.635742,-0.570106,-0.48470599999999997
1629724823026,-0.6365959999999999,-0.569008,-0.483547
1629724823036,-0.636108,-0.569252,-0.48440099999999997
1629724823046,-0.636413,-0.569496,-0.484828
1629724823055,-0.636657,-0.5699839999999999,-0.48470599999999997
1629724823065,-0.6369009999999999,-0.57157,-0.484828
1629724823074,-0.636962,-0.571997,-0.482754
1629724823084,-0.6365959999999999,-0.572058,-0.483669
1629724823094,-0.6369009999999999,-0.572058,-0.48312
1629724823103,-0.636169,-0.571326,-0.483303
1629724823113,-0.63562,-0.570655,-0.481412
1629724823122,-0.635925,-0.570411,-0.48092399999999996
1629724823132,-0.63623,-0.56974,-0.48129
1629724823142,-0.63562,-0.570655,-0.481778
1629724823151,-0.635925,-0.571265,-0.481534
1629724823161,-0.635742,-0.572302,-0.48251
1629724823170,-0.635498,-0.5721189999999999,-0.48348599999999997
1629724823180,-0.63562,-0.572058,-0.484035
1629724823190,-0.635559,-0.571997,-0.485377
1629724823199,-0.635498,-0.570716,-0.485377
1629724823209,-0.63562,-0.571082,-0.484889
1629724823218,-0.635254,-0.569862,-0.485743
1629724823228,-0.63501,-0.570045,-0.48495
1629724823238,-0.635498,-0.570411,-0.48440099999999997
1629724823247,-0.634705,-0.571387,-0.48495
1629724823257,-0.634644,-0.5715089999999999,-0.484279
1629724823266,-0.634583,-0.570411,-0.484584
1629724823276,-0.633729,-0.570045,-0.48434
1629724823286,-0.634644,-0.570167,-0.484645
1629724823295,-0.634583,-0.569923,-0.48434
1629724823305,-0.634095,-0.570716,-0.484767
1629724823314,-0.634705,-0.570655,-0.484218
1629724823324,-0.635437,-0.571326,-0.483974
1629724823334,-0.6353759999999999,-0.572363,-0.483913
1629724823343,-0.634644,-0.571448,-0.483669
1629724823353,-0.636108,-0.572485,-0.482815
1629724823362,-0.636352,-0.573034,-0.48379099999999997
1629724823372,-0.635925,-0.571021,-0.48257099999999997
1629724823382,-0.636352,-0.571143,-0.482266
1629724823391,-0.635742,-0.572546,-0.484279
1629724823401,-0.635132,-0.5734,-0.485072
1629724823410,-0.635559,-0.571265,-0.484279
1629724823420,-0.6356809999999999,-0.571082,-0.481717
1629724823430,-0.6353759999999999,-0.5727289999999999,-0.481412
1629724823439,-0.636108,-0.573339,-0.482266
