timestamp,ax,ay,az
1629724800038,-0.5689697265625,0.0560302734375,0.83795166015625
1629724800038,-0.55859375,0.013427734375,0.8253173828125
1629724800038,-0.565185546875,0.04278564453125,0.8338623046875
1629724800121,-0.55950927734375,-0.07098388671875,0.80133056640625
1629724800122,-0.5570068359375,-0.019287109375,0.81439208984375
1629724800122,-0.56134033203125,-0.10528564453125,0.79949951171875
1629724800216,-0.55596923828125,-0.12835693359375,0.79864501953125
1629724800216,-0.560791015625,-0.13043212890625,0.7939453125
1629724800216,-0.56591796875,-0.1220703125,0.7969970703125
1629724800246,-0.5611572265625,-0.09967041015625,0.78863525390625
1629724800246,-0.56292724609375,-0.08758544921875,0.7900390625
1629724800247,-0.5633544921875,-0.1083984375,0.79339599609375
1629724800298,-0.5540771484375,-0.0364990234375,0.79534912109375
1629724800298,-0.56219482421875,-0.07086181640625,0.793212890625
1629724800298,-0.55963134765625,-0.05072021484375,0.79168701171875
1629724800331,-0.52996826171875,-0.03643798828125,0.85406494140625
1629724800331,-0.54071044921875,-0.030029296875,0.8232421875
1629724800331,-0.5489501953125,-0.0321044921875,0.80780029296875
1629724800394,-0.5299072265625,-0.036376953125,0.8758544921875
1629724800394,-0.520263671875,-0.01312255859375,0.89044189453125
1629724800394,-0.5140380859375,0.00494384765625,0.87298583984375
1629724800456,-0.5079345703125,0.0146484375,0.85186767578125
1629724800457,-0.50787353515625,-0.01446533203125,0.8358154296875
1629724800470,-0.50567626953125,0.0030517578125,0.84149169921875
1629724800501,-0.494140625,-0.0267333984375,0.86761474609375
1629724800501,-0.502197265625,-0.01995849609375,0.8525390625
1629724800502,-0.5018310546875,-0.026123046875,0.84942626953125
1629724800589,-0.49871826171875,-0.0267333984375,0.86767578125
1629724800589,-0.49566650390625,-0.02874755859375,0.876953125
1629724800589,-0.4898681640625,-0.01104736328125,0.87384033203125
1629724800622,-0.4979248046875,-0.0142822265625,0.869140625
1629724800622,-0.4759521484375,0.00494384765625,0.87945556640625
1629724800622,-0.49066162109375,0.0072021484375,0.88037109375
1629724800724,-0.51202392578125,-0.04156494140625,0.83697509765625
1629724800724,-0.5006103515625,-0.02386474609375,0.86163330078125
1629724800724,-0.50469970703125,-0.02825927734375,0.875732421875
1629724800772,-0.54913330078125,-0.0440673828125,0.76715087890625
1629724800772,-0.53155517578125,-0.052978515625,0.771728515625
1629724800791,-0.52093505859375,-0.06005859375,0.79852294921875
1629724800804,-0.56597900390625,-0.0489501953125,0.81231689453125
1629724800805,-0.5587158203125,-0.04583740234375,0.78973388671875
1629724800805,-0.57110595703125,-0.044189453125,0.82098388671875
1629724800850,-0.5701904296875,-0.048828125,0.8314208984375
1629724800850,-0.5770263671875,-0.04095458984375,0.81890869140625
1629724800850,-0.5697021484375,-0.044921875,0.82745361328125
1629724800950,-0.5821533203125,-0.05303955078125,0.7994384765625
1629724800950,-0.58319091796875,-0.04974365234375,0.81396484375
1629724800974,-0.58050537109375,-0.05133056640625,0.79827880859375
1629724800997,-0.5810546875,-0.051513671875,0.78375244140625
1629724800998,-0.57916259765625,-0.0472412109375,0.794189453125
1629724800998,-0.58184814453125,-0.05474853515625,0.78033447265625
1629724801062,-0.57952880859375,-0.05511474609375,0.781982421875
1629724801062,-0.5870361328125,-0.05303955078125,0.7841796875
1629724801075,-0.5770263671875,-0.0576171875,0.78851318359375
1629724801094,-0.5775146484375,-0.058349609375,0.7877197265625
1629724801094,-0.57720947265625,-0.066650390625,0.78863525390625
1629724801094,-0.57318115234375,-0.06207275390625,0.78497314453125
1629724801211,-0.5732421875,-0.06768798828125,0.79400634765625
1629724801211,-0.569091796875,-0.06597900390625,0.79632568359375
1629724801212,-0.5699462890625,-0.066650390625,0.78656005859375
1629724801243,-0.57501220703125,-0.05804443359375,0.788818359375
1629724801243,-0.5745849609375,-0.057861328125,0.78759765625
1629724801243,-0.56982421875,-0.06585693359375,0.78326416015625
1629724801290,-0.57366943359375,-0.05181884765625,0.7955322265625
1629724801291,-0.57763671875,-0.047607421875,0.79913330078125
1629724801291,-0.57769775390625,-0.0467529296875,0.8087158203125
1629724801339,-0.58673095703125,-0.05511474609375,0.8096923828125
1629724801339,-0.58160400390625,-0.0450439453125,0.799560546875
1629724801339,-0.57843017578125,-0.05047607421875,0.8131103515625
1629724801428,-0.58990478515625,-0.04681396484375,0.79290771484375
1629724801429,-0.58935546875,-0.0450439453125,0.79815673828125
1629724801429,-0.5811767578125,-0.04193115234375,0.7967529296875
1629724801474,-0.59405517578125,-0.047119140625,0.765380859375
1629724801482,-0.59393310546875,-0.04693603515625,0.769775390625
1629724801483,-0.588134765625,-0.04876708984375,0.778564453125
1629724801521,-0.59368896484375,-0.054931640625,0.7620849609375
1629724801521,-0.59747314453125,-0.06585693359375,0.75640869140625
1629724801521,-0.59393310546875,-0.0621337890625,0.7584228515625
1629724801590,-0.58935546875,-0.0628662109375,0.76690673828125
1629724801591,-0.58477783203125,-0.05712890625,0.77874755859375
1629724801597,-0.576171875,-0.05816650390625,0.7919921875
1629724801635,-0.56646728515625,-0.07928466796875,0.83111572265625
1629724801635,-0.55517578125,-0.075439453125,0.84466552734375
1629724801636,-0.57208251953125,-0.06494140625,0.81048583984375
1629724801683,-0.536865234375,-0.0540771484375,0.86627197265625
1629724801683,-0.54791259765625,-0.0670166015625,0.85247802734375
1629724801683,-0.52606201171875,-0.001220703125,0.8740234375
1629724801746,-0.51654052734375,0.043212890625,0.87860107421875
1629724801748,-0.5162353515625,-0.023193359375,0.8182373046875
1629724801750,-0.51513671875,0.02496337890625,0.85986328125
1629724801777,-0.522705078125,-0.080078125,0.76531982421875
1629724801778,-0.52862548828125,-0.10308837890625,0.73919677734375
1629724801778,-0.52655029296875,-0.11053466796875,0.76165771484375
1629724801904,-0.52020263671875,-0.11004638671875,0.785400390625
1629724801905,-0.51171875,-0.1217041015625,0.8062744140625
1629724801905,-0.5047607421875,-0.14190673828125,0.81317138671875
1629724801921,-0.49566650390625,-0.17205810546875,0.83245849609375
1629724801936,-0.48260498046875,-0.1922607421875,0.86822509765625
1629724801938,-0.4910888671875,-0.19342041015625,0.8504638671875
1629724801987,-0.47760009765625,-0.2120361328125,0.94708251953125
1629724801988,-0.48291015625,-0.2083740234375,0.91357421875
1629724801988,-0.48016357421875,-0.19293212890625,0.88525390625
1629724802022,-0.4677734375,-0.1903076171875,0.934814453125
1629724802022,-0.47491455078125,-0.10455322265625,0.881591796875
1629724802022,-0.46905517578125,-0.15277099609375,0.90087890625
1629724802118,-0.48455810546875,-0.05743408203125,0.86993408203125
1629724802118,-0.496337890625,-0.03662109375,0.83746337890625
1629724802118,-0.484619140625,-0.07574462890625,0.891357421875
1629724802164,-0.51861572265625,-0.03741455078125,0.74755859375
1629724802164,-0.5050048828125,-0.03228759765625,0.8060302734375
1629724802165,-0.51068115234375,-0.02825927734375,0.76800537109375
1629724802239,-0.5255126953125,-0.04229736328125,0.79925537109375
1629724802240,-0.52520751953125,-0.0328369140625,0.74932861328125
1629724802240,-0.52886962890625,-0.04010009765625,0.77044677734375
1629724802268,-0.5174560546875,-0.04058837890625,0.8421630859375
1629724802268,-0.510986328125,-0.03350830078125,0.86572265625
1629724802269,-0.52294921875,-0.04345703125,0.8172607421875
1629724802330,-0.50994873046875,-0.029296875,0.88214111328125
1629724802345,-0.49932861328125,-0.02264404296875,0.876220703125
1629724802346,-0.5047607421875,-0.02581787109375,0.88262939453125
1629724802403,-0.48388671875,-0.0159912109375,0.86907958984375
1629724802403,-0.47503662109375,-0.016357421875,0.87042236328125
1629724802403,-0.49053955078125,-0.01666259765625,0.8651123046875
1629724802485,-0.46636962890625,-0.0274658203125,0.87664794921875
1629724802485,-0.4683837890625,-0.02044677734375,0.8753662109375
1629724802485,-0.458984375,-0.029541015625,0.87054443359375
1629724802532,-0.45220947265625,-0.03326416015625,0.870361328125
1629724802551,-0.45257568359375,-0.0379638671875,0.875
1629724802551,-0.44793701171875,-0.04840087890625,0.88983154296875
1629724802581,-0.43377685546875,-0.06622314453125,0.90106201171875
1629724802581,-0.44305419921875,-0.05755615234375,0.89862060546875
1629724802581,-0.4384765625,-0.06402587890625,0.90484619140625
1629724802649,-0.43182373046875,-0.065673828125,0.89501953125
1629724802667,-0.4334716796875,-0.0631103515625,0.8883056640625
1629724802668,-0.43560791015625,-0.0634765625,0.883544921875
1629724802684,-0.42926025390625,-0.0589599609375,0.88751220703125
1629724802687,-0.43231201171875,-0.06219482421875,0.88055419921875
1629724802698,-0.43365478515625,-0.0625,0.88262939453125
1629724802762,-0.4266357421875,-0.0596923828125,0.88916015625
1629724802762,-0.43170166015625,-0.05859375,0.893798828125
1629724802762,-0.4312744140625,-0.05914306640625,0.899169921875
1629724802830,-0.4300537109375,-0.059326171875,0.89715576171875
1629724802830,-0.42913818359375,-0.0599365234375,0.895263671875
1629724802830,-0.430419921875,-0.06024169921875,0.89764404296875
1629724803003,-0.43243408203125,-0.04241943359375,0.8875732421875
1629724803003,-0.43341064453125,-0.04345703125,0.89044189453125
1629724803011,-0.43316650390625,-0.0478515625,0.8900146484375
1629724803081,-0.43365478515625,-0.0467529296875,0.88116455078125
1629724803081,-0.431640625,-0.05029296875,0.88525390625
1629724803095,-0.4345703125,-0.04901123046875,0.88568115234375
1629724803112,-0.44049072265625,-0.0440673828125,0.88690185546875
1629724803112,-0.43603515625,-0.04998779296875,0.8861083984375
1629724803114,-0.43963623046875,-0.04534912109375,0.8846435546875
1629724803179,-0.44146728515625,-0.0419921875,0.88323974609375
1629724803179,-0.4383544921875,-0.04638671875,0.884765625
1629724803179,-0.4393310546875,-0.0479736328125,0.883544921875
1629724803203,-0.43914794921875,-0.03924560546875,0.885986328125
1629724803203,-0.43853759765625,-0.03729248046875,0.8841552734375
1629724803203,-0.44049072265625,-0.041015625,0.88140869140625
1629724803288,-0.43634033203125,-0.0484619140625,0.8868408203125
1629724803288,-0.4400634765625,-0.04486083984375,0.8912353515625
1629724803289,-0.43798828125,-0.04339599609375,0.8895263671875
1629724803374,-0.4410400390625,-0.04949951171875,0.88800048828125
1629724803375,-0.44598388671875,-0.048828125,0.887939453125
1629724803375,-0.44390869140625,-0.05108642578125,0.88653564453125
1629724803403,-0.4461669921875,-0.0521240234375,0.8837890625
1629724803403,-0.4473876953125,-0.0462646484375,0.88653564453125
1629724803405,-0.447021484375,-0.04864501953125,0.88043212890625
1629724803504,-0.4471435546875,-0.05206298828125,0.87677001953125
1629724803504,-0.44927978515625,-0.050537109375,0.88189697265625
1629724803504,-0.44769287109375,-0.04803466796875,0.87347412109375
1629724803572,-0.44500732421875,-0.05096435546875,0.88031005859375
1629724803572,-0.44610595703125,-0.04852294921875,0.87652587890625
1629724803572,-0.44659423828125,-0.04791259765625,0.8775634765625
1629724803589,-0.4461669921875,-0.04888916015625,0.88031005859375
1629724803589,-0.45184326171875,-0.0484619140625,0.88238525390625
1629724803604,-0.44683837890625,-0.04681396484375,0.8846435546875
1629724803651,-0.44805908203125,-0.04754638671875,0.885009765625
1629724803651,-0.45074462890625,-0.0455322265625,0.88311767578125
1629724803651,-0.4473876953125,-0.04571533203125,0.8836669921875
1629724803715,-0.45184326171875,-0.046630859375,0.88201904296875
1629724803715,-0.451416015625,-0.046142578125,0.8839111328125
1629724803715,-0.4517822265625,-0.04595947265625,0.88031005859375
1629724803745,-0.4508056640625,-0.04693603515625,0.873046875
1629724803745,-0.45306396484375,-0.048828125,0.87847900390625
1629724803746,-0.4532470703125,-0.049072265625,0.88006591796875
1629724804087,-0.54254150390625,-0.04901123046875,0.68255615234375
1629724804087,-0.55560302734375,-0.0364990234375,0.702880859375
1629724804088,-0.5323486328125,-0.05902099609375,0.68841552734375
1629724804134,-0.5596923828125,-0.033203125,0.72601318359375
1629724804134,-0.5604248046875,-0.0330810546875,0.72576904296875
1629724804134,-0.56048583984375,-0.0302734375,0.723876953125
1629724804167,-0.55523681640625,-0.038818359375,0.82049560546875
1629724804167,-0.5616455078125,-0.03692626953125,0.7501220703125
1629724804168,-0.5574951171875,-0.03863525390625,0.787353515625
1629724804222,-0.55096435546875,-0.042724609375,0.84552001953125
1629724804226,-0.5284423828125,-0.05743408203125,0.8798828125
1629724804226,-0.5382080078125,-0.05035400390625,0.864013671875
1629724804298,-0.500244140625,-0.04193115234375,0.8902587890625
1629724804298,-0.51104736328125,-0.053466796875,0.8751220703125
1629724804298,-0.4866943359375,-0.04302978515625,0.89947509765625
1629724804348,-0.468017578125,-0.0496826171875,0.9114990234375
1629724804349,-0.4605712890625,-0.0552978515625,0.92333984375
1629724804349,-0.47442626953125,-0.043701171875,0.90869140625
1629724804446,-0.43865966796875,-0.0606689453125,0.918212890625
1629724804446,-0.44268798828125,-0.06085205078125,0.926513671875
1629724804446,-0.43829345703125,-0.06378173828125,0.8934326171875
1629724804446,-0.4412841796875,-0.05963134765625,0.9345703125
1629724804466,-0.4547119140625,-0.0595703125,0.92864990234375
1629724804467,-0.43658447265625,-0.0631103515625,0.87188720703125
1629724804568,-0.44464111328125,-0.0589599609375,0.85394287109375
1629724804568,-0.44647216796875,-0.0535888671875,0.845947265625
1629724804568,-0.43896484375,-0.0611572265625,0.86639404296875
1629724804601,-0.4583740234375,-0.050048828125,0.82586669921875
1629724804602,-0.4473876953125,-0.04986572265625,0.836669921875
1629724804602,-0.452392578125,-0.04925537109375,0.8297119140625
1629724804664,-0.468017578125,-0.052490234375,0.85174560546875
1629724804664,-0.466552734375,-0.0509033203125,0.8406982421875
1629724804666,-0.46331787109375,-0.05096435546875,0.8289794921875
1629724804721,-0.47509765625,-0.05584716796875,0.8865966796875
1629724804721,-0.4752197265625,-0.05609130859375,0.87408447265625
1629724804721,-0.47381591796875,-0.05487060546875,0.8603515625
1629724804745,-0.474853515625,-0.05316162109375,0.902587890625
1629724804747,-0.47271728515625,-0.05157470703125,0.89520263671875
1629724804748,-0.47283935546875,-0.0504150390625,0.9039306640625
1629724804820,-0.45684814453125,-0.05450439453125,0.8961181640625
1629724804820,-0.46038818359375,-0.05230712890625,0.90130615234375
1629724804824,-0.46875,-0.05364990234375,0.908447265625
1629724804866,-0.4537353515625,-0.057373046875,0.88916015625
1629724804866,-0.45013427734375,-0.06524658203125,0.87896728515625
1629724804866,-0.451171875,-0.0638427734375,0.87799072265625
1629724804938,-0.44342041015625,-0.059814453125,0.865478515625
1629724804938,-0.4434814453125,-0.06951904296875,0.8701171875
1629724804939,-0.451171875,-0.0728759765625,0.87457275390625
1629724804989,-0.431640625,-0.05072021484375,0.86663818359375
1629724804990,-0.4378662109375,-0.05084228515625,0.86273193359375
1629724804990,-0.4371337890625,-0.05206298828125,0.86468505859375
1629724805064,-0.42767333984375,-0.05316162109375,0.87994384765625
1629724805064,-0.42828369140625,-0.0513916015625,0.8736572265625
1629724805080,-0.4317626953125,-0.04876708984375,0.8704833984375
1629724805113,-0.4315185546875,-0.0540771484375,0.885986328125
1629724805113,-0.42767333984375,-0.055419921875,0.8896484375
1629724805113,-0.42608642578125,-0.05279541015625,0.89752197265625
1629724805166,-0.4276123046875,-0.05572509765625,0.90850830078125
1629724805166,-0.4276123046875,-0.0567626953125,0.91705322265625
1629724805166,-0.42950439453125,-0.05682373046875,0.9066162109375
1629724805228,-0.425048828125,-0.06201171875,0.923583984375
1629724805246,-0.43035888671875,-0.06011962890625,0.91583251953125
1629724805247,-0.42938232421875,-0.06170654296875,0.91937255859375
1629724805323,-0.425537109375,-0.05657958984375,0.90985107421875
1629724805323,-0.42828369140625,-0.05633544921875,0.9014892578125
1629724805324,-0.43060302734375,-0.05499267578125,0.89404296875
1629724805372,-0.43841552734375,-0.05230712890625,0.8797607421875
1629724805372,-0.43597412109375,-0.05706787109375,0.8739013671875
1629724805372,-0.4302978515625,-0.05450439453125,0.88299560546875
1629724805440,-0.4395751953125,-0.05682373046875,0.86810302734375
1629724805440,-0.4378662109375,-0.05841064453125,0.86932373046875
1629724805440,-0.4378662109375,-0.0596923828125,0.8656005859375
1629724805507,-0.43951416015625,-0.05535888671875,0.868896484375
1629724805507,-0.43756103515625,-0.052490234375,0.87017822265625
1629724805507,-0.437744140625,-0.048828125,0.875732421875
1629724805588,-0.4305419921875,-0.0574951171875,0.9039306640625
1629724805589,-0.43310546875,-0.0531005859375,0.89825439453125
1629724805590,-0.43280029296875,-0.05828857421875,0.9012451171875
1629724805591,-0.4351806640625,-0.04620361328125,0.8804931640625
1629724805591,-0.4332275390625,-0.05316162109375,0.8919677734375
1629724805591,-0.435791015625,-0.04974365234375,0.8856201171875
1629724805692,-0.43267822265625,-0.0635986328125,0.90338134765625
1629724805693,-0.43157958984375,-0.06134033203125,0.90374755859375
1629724805693,-0.4327392578125,-0.06036376953125,0.9044189453125
1629724805737,-0.4342041015625,-0.0623779296875,0.90057373046875
1629724805738,-0.43682861328125,-0.05718994140625,0.8916015625
1629724805741,-0.43310546875,-0.05902099609375,0.89599609375
1629724805755,-0.4390869140625,-0.0537109375,0.88427734375
1629724805755,-0.4388427734375,-0.0523681640625,0.8848876953125
1629724805756,-0.43890380859375,-0.052978515625,0.87933349609375
1629724805856,-0.43994140625,-0.06640625,0.87371826171875
1629724805857,-0.43768310546875,-0.05889892578125,0.87725830078125
1629724805860,-0.4410400390625,-0.0689697265625,0.8763427734375
1629724805862,-0.4407958984375,-0.06268310546875,0.8802490234375
1629724805869,-0.4376220703125,-0.05706787109375,0.8751220703125
1629724805871,-0.44000244140625,-0.0537109375,0.872314453125
1629724805947,-0.43304443359375,-0.05810546875,0.888427734375
1629724805948,-0.43927001953125,-0.05889892578125,0.8773193359375
1629724805948,-0.433837890625,-0.06231689453125,0.88397216796875
1629724806049,-0.4312744140625,-0.05780029296875,0.89801025390625
1629724806049,-0.433349609375,-0.0599365234375,0.89459228515625
1629724806049,-0.43316650390625,-0.05572509765625,0.9010009765625
1629724806080,-0.43792724609375,-0.06097412109375,0.899658203125
1629724806080,-0.4375,-0.06268310546875,0.89874267578125
1629724806100,-0.4405517578125,-0.0623779296875,0.8941650390625
1629724806110,-0.44219970703125,-0.05889892578125,0.89508056640625
1629724806127,-0.44537353515625,-0.0576171875,0.88726806640625
1629724806128,-0.44635009765625,-0.06036376953125,0.88604736328125
1629724806157,-0.448486328125,-0.05975341796875,0.8790283203125
1629724806173,-0.45062255859375,-0.05450439453125,0.8697509765625
1629724806173,-0.44732666015625,-0.05853271484375,0.87225341796875
1629724806258,-0.450927734375,-0.0523681640625,0.865234375
1629724806258,-0.45355224609375,-0.0543212890625,0.86566162109375
1629724806258,-0.4525146484375,-0.05682373046875,0.86480712890625
1629724806287,-0.45257568359375,-0.05767822265625,0.868896484375
1629724806287,-0.45416259765625,-0.05810546875,0.87744140625
1629724806287,-0.451904296875,-0.0570068359375,0.8717041015625
1629724806333,-0.45086669921875,-0.06121826171875,0.87860107421875
1629724806333,-0.4539794921875,-0.06329345703125,0.880859375
1629724806334,-0.4547119140625,-0.06280517578125,0.88427734375
1629724806398,-0.45269775390625,-0.06689453125,0.88153076171875
1629724806398,-0.4483642578125,-0.06488037109375,0.8807373046875
1629724806398,-0.44677734375,-0.060546875,0.881591796875
1629724806472,-0.45318603515625,-0.0614013671875,0.8792724609375
1629724806472,-0.454833984375,-0.060791015625,0.875244140625
1629724806472,-0.45135498046875,-0.0606689453125,0.87969970703125
1629724806537,-0.458251953125,-0.06488037109375,0.875732421875
1629724806537,-0.45263671875,-0.0596923828125,0.87908935546875
1629724806538,-0.455078125,-0.061279296875,0.87591552734375
1629724806568,-0.45513916015625,-0.06585693359375,0.87762451171875
1629724806568,-0.4544677734375,-0.06658935546875,0.8753662109375
1629724806568,-0.4534912109375,-0.06622314453125,0.87677001953125
1629724806677,-0.456787109375,-0.0672607421875,0.87847900390625
1629724806677,-0.4559326171875,-0.06842041015625,0.8748779296875
1629724806677,-0.45172119140625,-0.06365966796875,0.87518310546875
1629724806745,-0.45037841796875,-0.05767822265625,0.87750244140625
1629724806746,-0.44927978515625,-0.0594482421875,0.87786865234375
1629724806746,-0.449951171875,-0.06146240234375,0.873046875
1629724806791,-0.44903564453125,-0.057861328125,0.88055419921875
1629724806791,-0.44708251953125,-0.05987548828125,0.878173828125
1629724806813,-0.45123291015625,-0.05731201171875,0.87921142578125
1629724806826,-0.44940185546875,-0.060546875,0.88153076171875
1629724806826,-0.4522705078125,-0.070556640625,0.87921142578125
1629724806833,-0.45306396484375,-0.06414794921875,0.88262939453125
1629724806867,-0.4503173828125,-0.06121826171875,0.87518310546875
1629724806867,-0.45477294921875,-0.0684814453125,0.876220703125
1629724806883,-0.4495849609375,-0.06683349609375,0.87799072265625
1629724806930,-0.45037841796875,-0.06951904296875,0.8797607421875
1629724806930,-0.44573974609375,-0.064453125,0.88018798828125
1629724806931,-0.44757080078125,-0.06304931640625,0.87994384765625
1629724806994,-0.4451904296875,-0.06585693359375,0.8802490234375
1629724806994,-0.4466552734375,-0.06195068359375,0.87762451171875
1629724806994,-0.44775390625,-0.064453125,0.88165283203125
1629724807058,-0.44915771484375,-0.063232421875,0.8782958984375
1629724807061,-0.44659423828125,-0.0654296875,0.88079833984375
1629724807062,-0.4498291015625,-0.066162109375,0.8795166015625
1629724807140,-0.44952392578125,-0.06402587890625,0.87591552734375
1629724807140,-0.4488525390625,-0.06988525390625,0.87890625
1629724807140,-0.44488525390625,-0.07080078125,0.8809814453125
1629724807174,-0.4482421875,-0.066650390625,0.87884521484375
1629724807174,-0.44744873046875,-0.0665283203125,0.8748779296875
1629724807174,-0.4495849609375,-0.06658935546875,0.87725830078125
1629724807218,-0.447998046875,-0.06402587890625,0.8809814453125
1629724807233,-0.45037841796875,-0.066162109375,0.87664794921875
1629724807233,-0.4482421875,-0.0626220703125,0.88427734375
1629724807281,-0.4459228515625,-0.06060791015625,0.885009765625
1629724807281,-0.44451904296875,-0.06060791015625,0.8828125
1629724807281,-0.44708251953125,-0.06219482421875,0.88116455078125
1629724807349,-0.44451904296875,-0.0579833984375,0.88507080078125
1629724807349,-0.4423828125,-0.06146240234375,0.883544921875
1629724807349,-0.44073486328125,-0.052978515625,0.8851318359375
1629724807404,-0.441162109375,-0.05474853515625,0.88690185546875
1629724807404,-0.4432373046875,-0.0509033203125,0.888427734375
1629724807405,-0.43988037109375,-0.05633544921875,0.8826904296875
1629724807488,-0.44140625,-0.05523681640625,0.88140869140625
1629724807489,-0.439453125,-0.0555419921875,0.8841552734375
1629724807489,-0.438232421875,-0.0589599609375,0.88360595703125
1629724807518,-0.43841552734375,-0.06103515625,0.88397216796875
1629724807518,-0.438232421875,-0.06219482421875,0.88946533203125
1629724807518,-0.44085693359375,-0.05950927734375,0.8870849609375
1629724807564,-0.4388427734375,-0.05853271484375,0.884521484375
1629724807564,-0.437255859375,-0.06060791015625,0.88970947265625
1629724807564,-0.43798828125,-0.0616455078125,0.88507080078125
1629724807637,-0.434326171875,-0.0576171875,0.89044189453125
1629724807637,-0.4371337890625,-0.06036376953125,0.88958740234375
1629724807637,-0.4383544921875,-0.056396484375,0.88623046875
1629724807736,-0.43634033203125,-0.05615234375,0.88916015625
1629724807737,-0.43511962890625,-0.0535888671875,0.8885498046875
1629724807739,-0.43719482421875,-0.05889892578125,0.88958740234375
1629724807767,-0.43621826171875,-0.05499267578125,0.88427734375
1629724807767,-0.43450927734375,-0.0623779296875,0.88238525390625
1629724807768,-0.44219970703125,-0.0631103515625,0.88909912109375
1629724807871,-0.43096923828125,-0.0545654296875,0.88671875
1629724807871,-0.43475341796875,-0.05706787109375,0.884765625
1629724807871,-0.43865966796875,-0.052734375,0.88067626953125
1629724807917,-0.42877197265625,-0.05157470703125,0.89007568359375
1629724807918,-0.4322509765625,-0.0579833984375,0.8863525390625
1629724807918,-0.42950439453125,-0.050048828125,0.88848876953125
1629724807953,-0.43670654296875,-0.0545654296875,0.89154052734375
1629724807967,-0.43218994140625,-0.0537109375,0.891845703125
1629724807969,-0.43450927734375,-0.05413818359375,0.89068603515625
1629724807985,-0.43487548828125,-0.05474853515625,0.89105224609375
1629724807985,-0.435302734375,-0.05218505859375,0.8902587890625
1629724807985,-0.43463134765625,-0.05328369140625,0.8883056640625
1629724808090,-0.432373046875,-0.0594482421875,0.889404296875
1629724808091,-0.4354248046875,-0.0548095703125,0.888671875
1629724808091,-0.430908203125,-0.05389404296875,0.8863525390625
1629724808115,-0.42974853515625,-0.05853271484375,0.887451171875
1629724808116,-0.43145751953125,-0.05841064453125,0.8900146484375
1629724808116,-0.43353271484375,-0.05419921875,0.88775634765625
1629724808194,-0.43603515625,-0.05340576171875,0.89007568359375
1629724808198,-0.43505859375,-0.054931640625,0.89111328125
1629724808198,-0.4344482421875,-0.05609130859375,0.89068603515625
1629724808229,-0.4375,-0.05035400390625,0.88482666015625
1629724808229,-0.43402099609375,-0.0540771484375,0.8868408203125
1629724808229,-0.4359130859375,-0.05499267578125,0.88934326171875
1629724808272,-0.43365478515625,-0.04974365234375,0.885009765625
1629724808272,-0.4334716796875,-0.04937744140625,0.8846435546875
1629724808273,-0.435302734375,-0.0484619140625,0.8853759765625
1629724808362,-0.4361572265625,-0.0511474609375,0.886962890625
1629724808362,-0.43182373046875,-0.04998779296875,0.88580322265625
1629724808362,-0.43621826171875,-0.05133056640625,0.88653564453125
1629724808433,-0.43402099609375,-0.0537109375,0.88671875
1629724808433,-0.43438720703125,-0.05340576171875,0.88958740234375
1629724808433,-0.43585205078125,-0.05841064453125,0.887939453125
1629724808484,-0.4329833984375,-0.05682373046875,0.8941650390625
1629724808484,-0.434326171875,-0.05450439453125,0.89306640625
1629724808517,-0.43536376953125,-0.0582275390625,0.89447021484375
1629724808517,-0.43487548828125,-0.05206298828125,0.89306640625
1629724808518,-0.43377685546875,-0.05224609375,0.8885498046875
1629724808579,-0.43524169921875,-0.053955078125,0.8846435546875
1629724808579,-0.438232421875,-0.056640625,0.88458251953125
1629724808580,-0.43548583984375,-0.0565185546875,0.8853759765625
1629724808626,-0.4332275390625,-0.05279541015625,0.8878173828125
1629724808626,-0.43145751953125,-0.0513916015625,0.8829345703125
1629724808626,-0.43438720703125,-0.0516357421875,0.8831787109375
1629724808707,-0.43182373046875,-0.05316162109375,0.88800048828125
1629724808707,-0.43023681640625,-0.054443359375,0.8878173828125
1629724808722,-0.43035888671875,-0.05352783203125,0.88677978515625
1629724808737,-0.43450927734375,-0.05218505859375,0.88787841796875
1629724808737,-0.43475341796875,-0.0537109375,0.8900146484375
1629724808738,-0.43292236328125,-0.0546875,0.89031982421875
1629724808836,-0.43402099609375,-0.0521240234375,0.89630126953125
1629724808836,-0.436279296875,-0.04931640625,0.8924560546875
1629724808836,-0.4373779296875,-0.04888916015625,0.8922119140625
1629724808871,-0.4349365234375,-0.05267333984375,0.888916015625
1629724808872,-0.43365478515625,-0.04656982421875,0.8878173828125
1629724808873,-0.4342041015625,-0.0499267578125,0.88909912109375
1629724808969,-0.433349609375,-0.04534912109375,0.88641357421875
1629724808969,-0.43316650390625,-0.04736328125,0.88543701171875
1629724808970,-0.436279296875,-0.046630859375,0.8876953125
1629724809000,-0.43707275390625,-0.04901123046875,0.8907470703125
1629724809001,-0.433837890625,-0.048828125,0.8900146484375
1629724809002,-0.43634033203125,-0.0482177734375,0.88922119140625
1629724809033,-0.4359130859375,-0.05059814453125,0.88958740234375
1629724809033,-0.43646240234375,-0.0489501953125,0.8873291015625
1629724809033,-0.43560791015625,-0.050537109375,0.8880615234375
1629724809120,-0.439208984375,-0.047607421875,0.881591796875
1629724809122,-0.437744140625,-0.04522705078125,0.88653564453125
1629724809122,-0.43817138671875,-0.0478515625,0.88238525390625
1629724809220,-0.43682861328125,-0.05230712890625,0.8804931640625
1629724809220,-0.43756103515625,-0.0523681640625,0.88262939453125
1629724809222,-0.436767578125,-0.05413818359375,0.88360595703125
1629724809250,-0.43499755859375,-0.06158447265625,0.88751220703125
1629724809250,-0.43548583984375,-0.062744140625,0.8912353515625
1629724809254,-0.43572998046875,-0.05902099609375,0.88653564453125
1629724809283,-0.43389892578125,-0.05657958984375,0.89544677734375
1629724809285,-0.433349609375,-0.05767822265625,0.89312744140625
1629724809361,-0.4345703125,-0.0543212890625,0.8880615234375
1629724809370,-0.43505859375,-0.0572509765625,0.89697265625
1629724809370,-0.43646240234375,-0.05450439453125,0.886474609375
1629724809456,-0.442138671875,-0.05499267578125,0.8868408203125
1629724809456,-0.43658447265625,-0.05645751953125,0.88592529296875
1629724809456,-0.43817138671875,-0.06268310546875,0.8817138671875
1629724809479,-0.439208984375,-0.04901123046875,0.8814697265625
1629724809480,-0.43585205078125,-0.05633544921875,0.88067626953125
1629724809481,-0.4381103515625,-0.0548095703125,0.87908935546875
1629724809574,-0.43572998046875,-0.05340576171875,0.88726806640625
1629724809589,-0.437255859375,-0.0511474609375,0.88592529296875
1629724809589,-0.4384765625,-0.05322265625,0.88323974609375
1629724809622,-0.43511962890625,-0.05010986328125,0.89215087890625
1629724809622,-0.43499755859375,-0.04986572265625,0.8914794921875
1629724809622,-0.43389892578125,-0.05157470703125,0.89471435546875
1629724809747,-0.43603515625,-0.05096435546875,0.88946533203125
1629724809748,-0.4376220703125,-0.05224609375,0.8887939453125
1629724809749,-0.43634033203125,-0.05340576171875,0.8895263671875
1629724809750,-0.4359130859375,-0.05401611328125,0.8890380859375
1629724809756,-0.43780517578125,-0.05316162109375,0.893310546875
1629724809758,-0.4359130859375,-0.05010986328125,0.89141845703125
1629724809779,-0.43798828125,-0.05194091796875,0.88421630859375
1629724809780,-0.43487548828125,-0.0555419921875,0.88482666015625
1629724809782,-0.43450927734375,-0.04998779296875,0.88702392578125
1629724809865,-0.4376220703125,-0.05145263671875,0.883544921875
1629724809865,-0.43841552734375,-0.0535888671875,0.8865966796875
1629724809865,-0.4368896484375,-0.05487060546875,0.88531494140625
1629724809882,-0.43768310546875,-0.05621337890625,0.88751220703125
1629724809882,-0.43548583984375,-0.05816650390625,0.8870849609375
1629724809887,-0.4376220703125,-0.05474853515625,0.887939453125
1629724809915,-0.43603515625,-0.0498046875,0.88836669921875
1629724809920,-0.43499755859375,-0.04925537109375,0.88848876953125
1629724809923,-0.4365234375,-0.0523681640625,0.88714599609375
1629724810024,-0.434814453125,-0.04791259765625,0.88739013671875
1629724810041,-0.43377685546875,-0.0474853515625,0.89031982421875
1629724810041,-0.43463134765625,-0.049072265625,0.88995361328125
1629724810071,-0.4326171875,-0.05218505859375,0.890380859375
1629724810071,-0.4320068359375,-0.0504150390625,0.894287109375
1629724810073,-0.431884765625,-0.04730224609375,0.89056396484375
1629724810102,-0.43695068359375,-0.0531005859375,0.8883056640625
1629724810102,-0.4324951171875,-0.0487060546875,0.88824462890625
1629724810103,-0.4337158203125,-0.0509033203125,0.88641357421875
1629724810189,-0.43731689453125,-0.05267333984375,0.888671875
1629724810190,-0.43817138671875,-0.04931640625,0.88775634765625
1629724810205,-0.43670654296875,-0.0506591796875,0.88690185546875
1629724810234,-0.4383544921875,-0.05126953125,0.8861083984375
1629724810234,-0.442138671875,-0.0501708984375,0.88421630859375
1629724810234,-0.439453125,-0.0496826171875,0.8839111328125
1629724810282,-0.4425048828125,-0.0528564453125,0.8824462890625
1629724810283,-0.44000244140625,-0.0501708984375,0.88714599609375
1629724810283,-0.4443359375,-0.05426025390625,0.88470458984375
1629724810366,-0.433837890625,-0.04827880859375,0.88458251953125
1629724810367,-0.44036865234375,-0.04864501953125,0.87921142578125
1629724810367,-0.4375,-0.0467529296875,0.88311767578125
1629724810412,-0.43609619140625,-0.0452880859375,0.8916015625
1629724810413,-0.439208984375,-0.04876708984375,0.89080810546875
1629724810413,-0.43505859375,-0.04742431640625,0.889404296875
1629724810474,-0.4368896484375,-0.051025390625,0.89166259765625
1629724810474,-0.43988037109375,-0.0540771484375,0.89404296875
1629724810474,-0.44024658203125,-0.05279541015625,0.88818359375
1629724810557,-0.437255859375,-0.05096435546875,0.8870849609375
1629724810557,-0.4403076171875,-0.0540771484375,0.88140869140625
1629724810557,-0.4346923828125,-0.05181884765625,0.882080078125
1629724810589,-0.43719482421875,-0.05328369140625,0.88543701171875
1629724810589,-0.43505859375,-0.05303955078125,0.88330078125
1629724810590,-0.43695068359375,-0.05706787109375,0.88555908203125
1629724810666,-0.43707275390625,-0.05267333984375,0.88360595703125
1629724810666,-0.43914794921875,-0.0567626953125,0.88177490234375
1629724810666,-0.43853759765625,-0.05462646484375,0.880126953125
1629724810716,-0.439453125,-0.05438232421875,0.8875732421875
1629724810717,-0.439208984375,-0.0572509765625,0.88800048828125
1629724810717,-0.4368896484375,-0.0538330078125,0.883056640625
1629724810744,-0.43719482421875,-0.05108642578125,0.88592529296875
1629724810747,-0.43621826171875,-0.05316162109375,0.88470458984375
1629724810747,-0.43792724609375,-0.0540771484375,0.88714599609375
1629724810824,-0.44244384765625,-0.05560302734375,0.88812255859375
1629724810824,-0.4404296875,-0.05389404296875,0.8870849609375
1629724810824,-0.43988037109375,-0.0521240234375,0.88836669921875
1629724810937,-0.44000244140625,-0.05291748046875,0.8828125
1629724810938,-0.43902587890625,-0.0499267578125,0.88568115234375
1629724810939,-0.43426513671875,-0.05206298828125,0.88555908203125
1629724810983,-0.4390869140625,-0.05316162109375,0.8828125
1629724810985,-0.44195556640625,-0.05950927734375,0.8831787109375
1629724810986,-0.4425048828125,-0.0557861328125,0.88494873046875
1629724811045,-0.44183349609375,-0.05517578125,0.880859375
1629724811045,-0.44061279296875,-0.06005859375,0.88446044921875
1629724811045,-0.43914794921875,-0.05645751953125,0.8817138671875
1629724811046,-0.4395751953125,-0.05548095703125,0.8851318359375
1629724811046,-0.439453125,-0.05743408203125,0.884521484375
1629724811048,-0.43963623046875,-0.05706787109375,0.884765625
1629724811107,-0.4400634765625,-0.05133056640625,0.88909912109375
1629724811125,-0.44134521484375,-0.05426025390625,0.88507080078125
1629724811127,-0.44317626953125,-0.0531005859375,0.88604736328125
1629724811180,-0.4356689453125,-0.05401611328125,0.8863525390625
1629724811181,-0.43756103515625,-0.05279541015625,0.88702392578125
1629724811182,-0.44061279296875,-0.05755615234375,0.8878173828125
1629724811258,-0.44549560546875,-0.057373046875,0.888427734375
1629724811258,-0.4412841796875,-0.06182861328125,0.88739013671875
1629724811258,-0.4434814453125,-0.059814453125,0.88238525390625
1629724811305,-0.43951416015625,-0.0570068359375,0.88201904296875
1629724811306,-0.439697265625,-0.05767822265625,0.8780517578125
1629724811318,-0.44110107421875,-0.057861328125,0.88140869140625
1629724811323,-0.43743896484375,-0.05767822265625,0.88800048828125
1629724811325,-0.436767578125,-0.0513916015625,0.88958740234375
1629724811325,-0.4393310546875,-0.05224609375,0.8890380859375
1629724811402,-0.4388427734375,-0.058837890625,0.887451171875
1629724811403,-0.4400634765625,-0.05450439453125,0.88848876953125
1629724811404,-0.4415283203125,-0.05694580078125,0.8902587890625
1629724811488,-0.4423828125,-0.05841064453125,0.883056640625
1629724811488,-0.4422607421875,-0.05694580078125,0.8895263671875
1629724811488,-0.43988037109375,-0.0562744140625,0.8861083984375
1629724811537,-0.44061279296875,-0.0577392578125,0.8831787109375
1629724811538,-0.44158935546875,-0.05499267578125,0.884521484375
1629724811540,-0.44085693359375,-0.05743408203125,0.88543701171875
1629724811630,-0.44451904296875,-0.05389404296875,0.880859375
1629724811630,-0.44549560546875,-0.0582275390625,0.8843994140625
1629724811630,-0.4425048828125,-0.05322265625,0.8804931640625
1629724811707,-0.44482421875,-0.05535888671875,0.88409423828125
1629724811707,-0.44091796875,-0.056640625,0.880615234375
1629724811707,-0.4453125,-0.05792236328125,0.88348388671875
1629724811787,-0.44354248046875,-0.05841064453125,0.88421630859375
1629724811789,-0.44384765625,-0.056884765625,0.8824462890625
1629724811789,-0.44110107421875,-0.05609130859375,0.8819580078125
1629724811794,-0.4449462890625,-0.055419921875,0.8822021484375
1629724811795,-0.4451904296875,-0.04998779296875,0.8828125
1629724811799,-0.445556640625,-0.05743408203125,0.883544921875
1629724811831,-0.44415283203125,-0.0528564453125,0.88360595703125
1629724811832,-0.4456787109375,-0.05218505859375,0.87982177734375
1629724811832,-0.4453125,-0.0489501953125,0.8843994140625
1629724811863,-0.4403076171875,-0.0582275390625,0.88330078125
1629724811863,-0.44207763671875,-0.05572509765625,0.87908935546875
1629724811864,-0.44024658203125,-0.0570068359375,0.88055419921875
1629724811947,-0.4423828125,-0.06243896484375,0.88482666015625
1629724811949,-0.4442138671875,-0.05987548828125,0.88470458984375
1629724811949,-0.44342041015625,-0.05987548828125,0.883056640625
1629724812024,-0.44305419921875,-0.05908203125,0.88726806640625
1629724812024,-0.44464111328125,-0.06097412109375,0.88232421875
1629724812024,-0.44488525390625,-0.0633544921875,0.88275146484375
1629724812088,-0.4404296875,-0.057861328125,0.88360595703125
1629724812088,-0.43988037109375,-0.06365966796875,0.8831787109375
1629724812089,-0.44012451171875,-0.0599365234375,0.8851318359375
1629724812103,-0.4393310546875,-0.06103515625,0.8834228515625
1629724812103,-0.44403076171875,-0.06219482421875,0.88336181640625
1629724812103,-0.44140625,-0.0601806640625,0.88385009765625
1629724812167,-0.44354248046875,-0.06060791015625,0.88470458984375
1629724812169,-0.44378662109375,-0.06085205078125,0.88494873046875
1629724812169,-0.43963623046875,-0.0587158203125,0.88555908203125
1629724812255,-0.44342041015625,-0.05975341796875,0.87921142578125
1629724812255,-0.4464111328125,-0.06732177734375,0.88336181640625
1629724812256,-0.44427490234375,-0.067138671875,0.88330078125
1629724812304,-0.443359375,-0.0576171875,0.8798828125
1629724812304,-0.443115234375,-0.06036376953125,0.88360595703125
1629724812305,-0.444580078125,-0.0556640625,0.878662109375
1629724812385,-0.44329833984375,-0.05706787109375,0.88616943359375
1629724812386,-0.4403076171875,-0.05499267578125,0.88397216796875
1629724812386,-0.44012451171875,-0.05230712890625,0.884033203125
1629724812430,-0.44512939453125,-0.06103515625,0.88592529296875
1629724812430,-0.4425048828125,-0.060791015625,0.88739013671875
1629724812430,-0.4415283203125,-0.05780029296875,0.88433837890625
1629724812465,-0.4420166015625,-0.061767578125,0.88250732421875
1629724812465,-0.44207763671875,-0.0616455078125,0.88494873046875
1629724812465,-0.44403076171875,-0.0565185546875,0.8822021484375
1629724812553,-0.4434814453125,-0.0584716796875,0.88201904296875
1629724812553,-0.44403076171875,-0.05780029296875,0.880615234375
1629724812570,-0.44451904296875,-0.0596923828125,0.8817138671875
1629724812601,-0.44464111328125,-0.05743408203125,0.8837890625
1629724812602,-0.4427490234375,-0.05572509765625,0.87945556640625
1629724812604,-0.443359375,-0.05804443359375,0.8818359375
1629724812633,-0.44384765625,-0.05810546875,0.8861083984375
1629724812634,-0.44256591796875,-0.05743408203125,0.88494873046875
1629724812636,-0.44622802734375,-0.05841064453125,0.88677978515625
1629724812725,-0.4427490234375,-0.05609130859375,0.8818359375
1629724812725,-0.44061279296875,-0.05706787109375,0.88677978515625
1629724812725,-0.4420166015625,-0.05938720703125,0.88055419921875
1629724812748,-0.44439697265625,-0.0570068359375,0.88458251953125
1629724812749,-0.44293212890625,-0.0576171875,0.88201904296875
1629724812763,-0.44183349609375,-0.062744140625,0.88006591796875
1629724812811,-0.446533203125,-0.05828857421875,0.88360595703125
1629724812812,-0.44171142578125,-0.0589599609375,0.88543701171875
1629724812812,-0.4423828125,-0.05865478515625,0.886474609375
1629724812873,-0.44403076171875,-0.061767578125,0.88372802734375
1629724812874,-0.43963623046875,-0.06109619140625,0.880615234375
1629724812874,-0.4388427734375,-0.05767822265625,0.8817138671875
1629724812983,-0.44073486328125,-0.06365966796875,0.88275146484375
1629724812983,-0.4398193359375,-0.06109619140625,0.8834228515625
1629724812985,-0.439208984375,-0.06060791015625,0.88177490234375
1629724812985,-0.44097900390625,-0.06182861328125,0.8837890625
1629724812986,-0.4417724609375,-0.06243896484375,0.8856201171875
1629724812986,-0.4429931640625,-0.06378173828125,0.88555908203125
1629724813077,-0.44500732421875,-0.0616455078125,0.88153076171875
1629724813077,-0.4398193359375,-0.061767578125,0.8809814453125
1629724813077,-0.440673828125,-0.06097412109375,0.8865966796875
1629724813156,-0.44219970703125,-0.0621337890625,0.88458251953125
1629724813157,-0.44293212890625,-0.06170654296875,0.8883056640625
1629724813158,-0.44158935546875,-0.0616455078125,0.8846435546875
1629724813175,-0.4407958984375,-0.06292724609375,0.8836669921875
1629724813175,-0.44598388671875,-0.06097412109375,0.88427734375
1629724813177,-0.4439697265625,-0.066162109375,0.8829345703125
1629724813245,-0.4404296875,-0.0650634765625,0.8812255859375
1629724813245,-0.4439697265625,-0.06744384765625,0.884033203125
1629724813245,-0.438232421875,-0.0587158203125,0.880615234375
1629724813307,-0.4412841796875,-0.05767822265625,0.88604736328125
1629724813307,-0.44049072265625,-0.05792236328125,0.88262939453125
1629724813307,-0.4354248046875,-0.06207275390625,0.88623046875
1629724813336,-0.43902587890625,-0.05755615234375,0.885986328125
1629724813337,-0.438720703125,-0.06146240234375,0.88726806640625
1629724813352,-0.4405517578125,-0.05792236328125,0.88818359375
1629724813481,-0.44049072265625,-0.06146240234375,0.8848876953125
1629724813493,-0.443115234375,-0.0650634765625,0.884521484375
1629724813495,-0.44305419921875,-0.06341552734375,0.8836669921875
1629724813496,-0.44158935546875,-0.06201171875,0.884765625
1629724813501,-0.44024658203125,-0.06488037109375,0.88531494140625
1629724813513,-0.4442138671875,-0.06072998046875,0.88104248046875
1629724813560,-0.44207763671875,-0.064208984375,0.88421630859375
1629724813561,-0.4423828125,-0.06085205078125,0.8836669921875
1629724813563,-0.44390869140625,-0.06011962890625,0.8818359375
1629724813593,-0.4417724609375,-0.0645751953125,0.88421630859375
1629724813593,-0.44097900390625,-0.06195068359375,0.88031005859375
1629724813593,-0.4456787109375,-0.0614013671875,0.87841796875
1629724813689,-0.44281005859375,-0.0601806640625,0.88214111328125
1629724813691,-0.4400634765625,-0.06494140625,0.8829345703125
1629724813691,-0.44219970703125,-0.058349609375,0.88446044921875
1629724813737,-0.44024658203125,-0.06402587890625,0.88201904296875
1629724813738,-0.444091796875,-0.0657958984375,0.88238525390625
1629724813738,-0.44384765625,-0.06134033203125,0.8831787109375
1629724813787,-0.4395751953125,-0.0565185546875,0.88525390625
1629724813787,-0.4417724609375,-0.05841064453125,0.88519287109375
1629724813787,-0.44134521484375,-0.06329345703125,0.88555908203125
1629724813893,-0.44085693359375,-0.06207275390625,0.88409423828125
1629724813893,-0.441162109375,-0.0572509765625,0.88238525390625
1629724813894,-0.44036865234375,-0.0574951171875,0.88409423828125
1629724813926,-0.4376220703125,-0.062255859375,0.884033203125
1629724813926,-0.43463134765625,-0.0667724609375,0.88702392578125
1629724813926,-0.437255859375,-0.06512451171875,0.88665771484375
1629724813957,-0.44329833984375,-0.0633544921875,0.88519287109375
1629724813957,-0.441650390625,-0.059814453125,0.88739013671875
1629724813957,-0.4368896484375,-0.0621337890625,0.88653564453125
1629724814006,-0.44012451171875,-0.062255859375,0.884521484375
1629724814006,-0.43914794921875,-0.05718994140625,0.88525390625
1629724814006,-0.43792724609375,-0.0633544921875,0.88629150390625
1629724814097,-0.43719482421875,-0.06048583984375,0.886474609375
1629724814097,-0.43829345703125,-0.0557861328125,0.883544921875
1629724814098,-0.43896484375,-0.0572509765625,0.88629150390625
1629724814130,-0.44134521484375,-0.0614013671875,0.88421630859375
1629724814131,-0.44403076171875,-0.05975341796875,0.88311767578125
1629724814131,-0.4407958984375,-0.05792236328125,0.88836669921875
1629724814207,-0.4439697265625,-0.06494140625,0.883056640625
1629724814207,-0.4404296875,-0.06451416015625,0.87890625
1629724814207,-0.4429931640625,-0.0614013671875,0.87994384765625
1629724814289,-0.44317626953125,-0.0599365234375,0.87701416015625
1629724814289,-0.43939208984375,-0.0604248046875,0.8780517578125
1629724814290,-0.4420166015625,-0.0595703125,0.88262939453125
1629724814320,-0.43829345703125,-0.060791015625,0.89007568359375
1629724814320,-0.4324951171875,-0.06298828125,0.88812255859375
1629724814326,-0.442626953125,-0.0618896484375,0.8841552734375
1629724814350,-0.43798828125,-0.0660400390625,0.88800048828125
1629724814350,-0.435791015625,-0.066162109375,0.8853759765625
1629724814354,-0.436767578125,-0.06854248046875,0.88702392578125
1629724814400,-0.44189453125,-0.06787109375,0.8897705078125
1629724814400,-0.4365234375,-0.06890869140625,0.88824462890625
1629724814400,-0.43756103515625,-0.07000732421875,0.88934326171875
1629724814479,-0.437744140625,-0.06939697265625,0.88519287109375
1629724814479,-0.43829345703125,-0.06488037109375,0.8905029296875
1629724814479,-0.43914794921875,-0.0672607421875,0.88800048828125
1629724814554,-0.43634033203125,-0.06536865234375,0.8792724609375
1629724814554,-0.4354248046875,-0.06524658203125,0.88323974609375
1629724814555,-0.4385986328125,-0.066162109375,0.88238525390625
1629724814587,-0.437255859375,-0.06866455078125,0.88714599609375
1629724814588,-0.43994140625,-0.06719970703125,0.88507080078125
1629724814592,-0.439208984375,-0.0679931640625,0.88623046875
1629724814648,-0.440673828125,-0.0648193359375,0.88458251953125
1629724814648,-0.43829345703125,-0.06585693359375,0.88458251953125
1629724814649,-0.43695068359375,-0.0604248046875,0.88677978515625
1629724814754,-0.4417724609375,-0.065185546875,0.88568115234375
1629724814757,-0.43621826171875,-0.06256103515625,0.8836669921875
1629724814757,-0.43841552734375,-0.06707763671875,0.8846435546875
1629724814784,-0.43731689453125,-0.06085205078125,0.8843994140625
1629724814784,-0.4354248046875,-0.06268310546875,0.88702392578125
1629724814785,-0.436767578125,-0.05950927734375,0.884521484375
1629724814855,-0.439697265625,-0.0594482421875,0.8836669921875
1629724814855,-0.43951416015625,-0.05609130859375,0.88616943359375
1629724814871,-0.4356689453125,-0.06085205078125,0.89044189453125
1629724814896,-0.43646240234375,-0.06549072265625,0.88311767578125
1629724814901,-0.43756103515625,-0.0596923828125,0.885498046875
1629724814902,-0.4385986328125,-0.06317138671875,0.885009765625
1629724814932,-0.43829345703125,-0.0625,0.8817138671875
1629724814932,-0.43975830078125,-0.060302734375,0.88275146484375
1629724814961,-0.43939208984375,-0.06011962890625,0.888427734375
1629724814996,-0.44024658203125,-0.06304931640625,0.88458251953125
1629724814996,-0.43670654296875,-0.0616455078125,0.8909912109375
1629724814996,-0.439453125,-0.059814453125,0.88970947265625
1629724815121,-0.44000244140625,-0.06182861328125,0.88275146484375
1629724815121,-0.43963623046875,-0.060546875,0.88128662109375
1629724815122,-0.43792724609375,-0.06219482421875,0.88623046875
1629724815171,-0.4365234375,-0.0555419921875,0.8804931640625
1629724815172,-0.43505859375,-0.06048583984375,0.88201904296875
1629724815190,-0.4388427734375,-0.064208984375,0.88385009765625
1629724815217,-0.43438720703125,-0.05841064453125,0.88861083984375
1629724815222,-0.43267822265625,-0.06036376953125,0.88677978515625
1629724815223,-0.4332275390625,-0.06134033203125,0.88897705078125
1629724815242,-0.4349365234375,-0.0577392578125,0.8883056640625
1629724815242,-0.43701171875,-0.06439208984375,0.88812255859375
1629724815243,-0.43365478515625,-0.0618896484375,0.8870849609375
1629724815305,-0.439697265625,-0.05950927734375,0.8900146484375
1629724815306,-0.4344482421875,-0.06402587890625,0.89208984375
1629724815306,-0.43292236328125,-0.063720703125,0.89117431640625
1629724815351,-0.43853759765625,-0.06451416015625,0.88555908203125
1629724815369,-0.43804931640625,-0.0611572265625,0.890380859375
1629724815369,-0.438232421875,-0.0589599609375,0.8870849609375
1629724815416,-0.43878173828125,-0.06219482421875,0.8822021484375
1629724815417,-0.43743896484375,-0.06097412109375,0.88763427734375
1629724815417,-0.4371337890625,-0.05938720703125,0.8824462890625
1629724815477,-0.43743896484375,-0.06182861328125,0.8873291015625
1629724815481,-0.4371337890625,-0.06219482421875,0.8868408203125
1629724815481,-0.4375,-0.05908203125,0.88409423828125
1629724815579,-0.437255859375,-0.05828857421875,0.88946533203125
1629724815579,-0.43865966796875,-0.0596923828125,0.89007568359375
1629724815579,-0.43603515625,-0.05731201171875,0.88916015625
1629724815638,-0.438720703125,-0.05841064453125,0.8885498046875
1629724815638,-0.4378662109375,-0.05987548828125,0.88763427734375
1629724815639,-0.4393310546875,-0.05352783203125,0.8846435546875
1629724815654,-0.43896484375,-0.05755615234375,0.8831787109375
1629724815654,-0.43914794921875,-0.053466796875,0.8839111328125
1629724815664,-0.43597412109375,-0.05328369140625,0.88494873046875
1629724815736,-0.43603515625,-0.061767578125,0.88958740234375
1629724815736,-0.44122314453125,-0.0614013671875,0.88916015625
1629724815737,-0.435791015625,-0.0548095703125,0.88470458984375
1629724815752,-0.4354248046875,-0.0615234375,0.88629150390625
1629724815752,-0.43450927734375,-0.0628662109375,0.886474609375
1629724815766,-0.43359375,-0.063232421875,0.8876953125
1629724815855,-0.43359375,-0.0601806640625,0.887451171875
1629724815855,-0.435546875,-0.0582275390625,0.885986328125
1629724815855,-0.43328857421875,-0.06170654296875,0.8885498046875
1629724815886,-0.43829345703125,-0.05999755859375,0.8892822265625
1629724815888,-0.4346923828125,-0.05804443359375,0.89080810546875
1629724815903,-0.4354248046875,-0.056640625,0.89093017578125
1629724815985,-0.4359130859375,-0.06011962890625,0.88458251953125
1629724815985,-0.43896484375,-0.0667724609375,0.88427734375
1629724815985,-0.43963623046875,-0.0687255859375,0.88525390625
1629724816018,-0.435791015625,-0.06256103515625,0.88043212890625
1629724816020,-0.4384765625,-0.070556640625,0.883056640625
1629724816020,-0.43988037109375,-0.06414794921875,0.87860107421875
1629724816064,-0.43878173828125,-0.064208984375,0.8875732421875
1629724816065,-0.4371337890625,-0.0621337890625,0.88568115234375
1629724816065,-0.4345703125,-0.063720703125,0.88677978515625
1629724816139,-0.436279296875,-0.0631103515625,0.88397216796875
1629724816139,-0.4344482421875,-0.06158447265625,0.88751220703125
1629724816142,-0.435546875,-0.06353759765625,0.8876953125
1629724816185,-0.4412841796875,-0.0631103515625,0.888916015625
1629724816185,-0.4404296875,-0.06439208984375,0.88482666015625
1629724816185,-0.44085693359375,-0.063720703125,0.888427734375
1629724816246,-0.43994140625,-0.066162109375,0.88507080078125
1629724816246,-0.4373779296875,-0.06439208984375,0.8841552734375
1629724816247,-0.4384765625,-0.06182861328125,0.88238525390625
1629724816308,-0.4385986328125,-0.0654296875,0.88104248046875
1629724816309,-0.442626953125,-0.07000732421875,0.88714599609375
1629724816309,-0.4412841796875,-0.069091796875,0.88592529296875
1629724816388,-0.44012451171875,-0.06732177734375,0.881591796875
1629724816388,-0.43896484375,-0.0672607421875,0.88531494140625
1629724816389,-0.43975830078125,-0.06695556640625,0.8822021484375
1629724816429,-0.44195556640625,-0.0653076171875,0.8880615234375
1629724816430,-0.44232177734375,-0.06732177734375,0.8843994140625
1629724816431,-0.44097900390625,-0.06427001953125,0.88677978515625
1629724816494,-0.44158935546875,-0.06536865234375,0.88507080078125
1629724816494,-0.43951416015625,-0.0640869140625,0.88250732421875
1629724816495,-0.4410400390625,-0.06414794921875,0.88714599609375
1629724816538,-0.43853759765625,-0.0614013671875,0.88226318359375
1629724816538,-0.4422607421875,-0.06048583984375,0.88323974609375
1629724816540,-0.43707275390625,-0.06146240234375,0.88275146484375
1629724816600,-0.43792724609375,-0.0628662109375,0.88482666015625
1629724816601,-0.44036865234375,-0.06109619140625,0.88629150390625
1629724816601,-0.4359130859375,-0.06329345703125,0.884765625
1629724816714,-0.4359130859375,-0.06573486328125,0.88665771484375
1629724816725,-0.4393310546875,-0.064208984375,0.884033203125
1629724816725,-0.43682861328125,-0.06536865234375,0.88507080078125
1629724816760,-0.43829345703125,-0.06396484375,0.88671875
1629724816760,-0.43865966796875,-0.06585693359375,0.88348388671875
1629724816764,-0.438232421875,-0.0660400390625,0.8880615234375
1629724816792,-0.43902587890625,-0.06292724609375,0.88385009765625
1629724816792,-0.43798828125,-0.06640625,0.88336181640625
1629724816793,-0.4365234375,-0.0628662109375,0.88568115234375
1629724816839,-0.43878173828125,-0.0645751953125,0.884765625
1629724816839,-0.44122314453125,-0.0631103515625,0.8890380859375
1629724816841,-0.4393310546875,-0.06488037109375,0.8883056640625
1629724816886,-0.43853759765625,-0.0665283203125,0.885009765625
1629724816901,-0.44122314453125,-0.0675048828125,0.88385009765625
1629724816901,-0.4422607421875,-0.06732177734375,0.88568115234375
1629724816937,-0.44232177734375,-0.06268310546875,0.87982177734375
1629724816937,-0.44232177734375,-0.06390380859375,0.88055419921875
1629724816937,-0.4429931640625,-0.07110595703125,0.8807373046875
1629724817035,-0.44268798828125,-0.0643310546875,0.88555908203125
1629724817037,-0.438720703125,-0.064208984375,0.88458251953125
1629724817060,-0.4400634765625,-0.06280517578125,0.87945556640625
1629724817069,-0.43902587890625,-0.0645751953125,0.8865966796875
1629724817070,-0.44000244140625,-0.06219482421875,0.8870849609375
1629724817070,-0.439453125,-0.0625,0.88604736328125
1629724817139,-0.43939208984375,-0.06591796875,0.88812255859375
1629724817139,-0.43731689453125,-0.06591796875,0.8875732421875
1629724817139,-0.439697265625,-0.06597900390625,0.88775634765625
1629724817186,-0.44061279296875,-0.06793212890625,0.88018798828125
1629724817186,-0.44140625,-0.065673828125,0.88580322265625
1629724817202,-0.4427490234375,-0.0667724609375,0.8826904296875
1629724817283,-0.43603515625,-0.0675048828125,0.88360595703125
1629724817300,-0.43829345703125,-0.0657958984375,0.878173828125
1629724817300,-0.444580078125,-0.06463623046875,0.8819580078125
1629724817352,-0.44354248046875,-0.06463623046875,0.88311767578125
1629724817352,-0.43963623046875,-0.06378173828125,0.8809814453125
1629724817352,-0.4410400390625,-0.06561279296875,0.880126953125
1629724817421,-0.4405517578125,-0.0643310546875,0.88818359375
1629724817421,-0.4429931640625,-0.06829833984375,0.88623046875
1629724817421,-0.44439697265625,-0.06396484375,0.88671875
1629724817437,-0.44012451171875,-0.06561279296875,0.88629150390625
1629724817438,-0.44244384765625,-0.06524658203125,0.88330078125
1629724817438,-0.441650390625,-0.0635986328125,0.88543701171875
1629724817484,-0.440185546875,-0.0611572265625,0.88397216796875
1629724817484,-0.44049072265625,-0.0592041015625,0.88409423828125
1629724817485,-0.44110107421875,-0.06011962890625,0.883056640625
1629724817546,-0.4407958984375,-0.0618896484375,0.88494873046875
1629724817547,-0.44219970703125,-0.06195068359375,0.88323974609375
1629724817548,-0.44134521484375,-0.060791015625,0.885498046875
1629724817578,-0.43902587890625,-0.061767578125,0.88238525390625
1629724817580,-0.4425048828125,-0.063232421875,0.884521484375
1629724817580,-0.4429931640625,-0.064453125,0.88665771484375
1629724817663,-0.44085693359375,-0.06414794921875,0.8846435546875
1629724817664,-0.43743896484375,-0.06256103515625,0.88482666015625
1629724817664,-0.4371337890625,-0.06378173828125,0.88421630859375
1629724817709,-0.4390869140625,-0.066162109375,0.88446044921875
1629724817710,-0.4403076171875,-0.06292724609375,0.88519287109375
1629724817727,-0.44158935546875,-0.060791015625,0.884033203125
1629724817804,-0.44158935546875,-0.0611572265625,0.8834228515625
1629724817805,-0.4415283203125,-0.06134033203125,0.8831787109375
1629724817805,-0.4415283203125,-0.0618896484375,0.88433837890625
1629724817854,-0.43731689453125,-0.0650634765625,0.8870849609375
1629724817855,-0.44342041015625,-0.0621337890625,0.88470458984375
1629724817856,-0.4420166015625,-0.06005859375,0.884765625
1629724817901,-0.44500732421875,-0.06329345703125,0.88275146484375
1629724817901,-0.44415283203125,-0.06536865234375,0.88226318359375
1629724817902,-0.44775390625,-0.07025146484375,0.88458251953125
1629724817931,-0.44415283203125,-0.06884765625,0.88018798828125
1629724817931,-0.438720703125,-0.06103515625,0.87896728515625
1629724817933,-0.44091796875,-0.06402587890625,0.87664794921875
1629724818006,-0.44268798828125,-0.0633544921875,0.8795166015625
1629724818007,-0.43682861328125,-0.06146240234375,0.88623046875
1629724818010,-0.43798828125,-0.06707763671875,0.88104248046875
1629724818137,-0.4407958984375,-0.0621337890625,0.88494873046875
1629724818137,-0.43701171875,-0.060546875,0.8885498046875
1629724818137,-0.43927001953125,-0.061767578125,0.88427734375
1629724818153,-0.44317626953125,-0.06378173828125,0.889404296875
1629724818153,-0.441650390625,-0.06298828125,0.88641357421875
1629724818153,-0.4423828125,-0.063232421875,0.8876953125
1629724818185,-0.43963623046875,-0.0689697265625,0.88287353515625
1629724818186,-0.4376220703125,-0.0667724609375,0.88153076171875
1629724818189,-0.44244384765625,-0.06146240234375,0.8826904296875
1629724818256,-0.44122314453125,-0.0653076171875,0.8834228515625
1629724818257,-0.43853759765625,-0.06182861328125,0.88037109375
1629724818257,-0.442626953125,-0.05987548828125,0.88153076171875
1629724818318,-0.44091796875,-0.05938720703125,0.8807373046875
1629724818318,-0.4422607421875,-0.0599365234375,0.879150390625
1629724818318,-0.43902587890625,-0.06109619140625,0.88433837890625
1629724818348,-0.44122314453125,-0.063720703125,0.88531494140625
1629724818350,-0.4376220703125,-0.064208984375,0.8878173828125
1629724818363,-0.44219970703125,-0.06109619140625,0.88037109375
1629724818430,-0.44403076171875,-0.060791015625,0.88385009765625
1629724818455,-0.442138671875,-0.06195068359375,0.8819580078125
1629724818455,-0.4432373046875,-0.06146240234375,0.8828125
1629724818464,-0.44384765625,-0.05657958984375,0.88525390625
1629724818464,-0.44482421875,-0.059326171875,0.88134765625
1629724818465,-0.4442138671875,-0.05712890625,0.88397216796875
1629724818524,-0.4400634765625,-0.0582275390625,0.88226318359375
1629724818524,-0.44390869140625,-0.05645751953125,0.88262939453125
1629724818525,-0.44378662109375,-0.0592041015625,0.8817138671875
1629724818605,-0.440185546875,-0.0625,0.8831787109375
1629724818605,-0.444580078125,-0.06256103515625,0.88385009765625
1629724818605,-0.44561767578125,-0.06536865234375,0.88360595703125
1629724818671,-0.4400634765625,-0.06219482421875,0.88232421875
1629724818671,-0.440673828125,-0.0606689453125,0.88494873046875
1629724818671,-0.4444580078125,-0.06280517578125,0.8837890625
1629724818738,-0.4415283203125,-0.0626220703125,0.8846435546875
1629724818741,-0.4437255859375,-0.06298828125,0.883544921875
1629724818744,-0.439453125,-0.05950927734375,0.8836669921875
1629724818782,-0.44207763671875,-0.06402587890625,0.88397216796875
1629724818782,-0.4461669921875,-0.06268310546875,0.88330078125
1629724818783,-0.43841552734375,-0.05950927734375,0.88165283203125
1629724818877,-0.4454345703125,-0.05975341796875,0.88861083984375
1629724818877,-0.441162109375,-0.061279296875,0.88311767578125
1629724818878,-0.44158935546875,-0.06280517578125,0.884521484375
1629724818907,-0.44378662109375,-0.061767578125,0.88104248046875
1629724818908,-0.44293212890625,-0.06256103515625,0.88067626953125
1629724818908,-0.44451904296875,-0.0623779296875,0.885009765625
1629724818985,-0.4451904296875,-0.0650634765625,0.88250732421875
1629724818993,-0.4432373046875,-0.0606689453125,0.87921142578125
1629724819003,-0.4453125,-0.0667724609375,0.88238525390625
1629724819033,-0.43963623046875,-0.0574951171875,0.88299560546875
1629724819047,-0.44354248046875,-0.0562744140625,0.87982177734375
1629724819054,-0.44244384765625,-0.060302734375,0.88043212890625
1629724819063,-0.44146728515625,-0.0543212890625,0.88873291015625
1629724819063,-0.4390869140625,-0.05810546875,0.88525390625
1629724819064,-0.44384765625,-0.059326171875,0.88519287109375
1629724819157,-0.4427490234375,-0.06536865234375,0.88616943359375
1629724819157,-0.442626953125,-0.06402587890625,0.88604736328125
1629724819157,-0.444580078125,-0.0692138671875,0.8857421875
1629724819189,-0.4427490234375,-0.05999755859375,0.8843994140625
1629724819206,-0.44189453125,-0.067626953125,0.88055419921875
1629724819218,-0.44134521484375,-0.06573486328125,0.88250732421875
1629724819235,-0.439697265625,-0.062255859375,0.8824462890625
1629724819235,-0.44342041015625,-0.0621337890625,0.88623046875
1629724819235,-0.44085693359375,-0.05682373046875,0.880126953125
1629724819303,-0.44293212890625,-0.06378173828125,0.88037109375
1629724819303,-0.4393310546875,-0.0626220703125,0.880126953125
1629724819310,-0.44317626953125,-0.06304931640625,0.8822021484375
1629724819375,-0.44189453125,-0.064453125,0.8876953125
1629724819375,-0.44390869140625,-0.06317138671875,0.88336181640625
1629724819376,-0.445556640625,-0.0638427734375,0.88623046875
1629724819420,-0.44110107421875,-0.06146240234375,0.88323974609375
1629724819420,-0.44427490234375,-0.06353759765625,0.8818359375
1629724819420,-0.4422607421875,-0.06256103515625,0.885009765625
1629724819519,-0.440673828125,-0.06085205078125,0.88055419921875
1629724819522,-0.439453125,-0.060791015625,0.8839111328125
1629724819524,-0.441650390625,-0.05841064453125,0.88262939453125
1629724819550,-0.44342041015625,-0.05859375,0.88201904296875
1629724819552,-0.4425048828125,-0.0604248046875,0.8822021484375
1629724819556,-0.438720703125,-0.06011962890625,0.8831787109375
1629724819600,-0.44451904296875,-0.0643310546875,0.881103515625
1629724819600,-0.44146728515625,-0.0634765625,0.88348388671875
1629724819602,-0.4425048828125,-0.06695556640625,0.883544921875
1629724819665,-0.442626953125,-0.06671142578125,0.88128662109375
1629724819665,-0.44110107421875,-0.068603515625,0.883056640625
1629724819665,-0.4412841796875,-0.067626953125,0.88427734375
1629724819736,-0.44134521484375,-0.06243896484375,0.884765625
1629724819749,-0.4420166015625,-0.0628662109375,0.88421630859375
1629724819749,-0.44189453125,-0.06610107421875,0.8837890625
1629724819765,-0.44268798828125,-0.0648193359375,0.88153076171875
1629724819765,-0.4444580078125,-0.065185546875,0.88427734375
1629724819766,-0.4425048828125,-0.0628662109375,0.8836669921875
1629724819855,-0.44439697265625,-0.06256103515625,0.88140869140625
1629724819857,-0.442626953125,-0.06329345703125,0.8843994140625
1629724819858,-0.44305419921875,-0.06280517578125,0.88427734375
1629724819921,-0.44305419921875,-0.0635986328125,0.88226318359375
1629724819922,-0.44439697265625,-0.0650634765625,0.87896728515625
1629724819922,-0.44305419921875,-0.0614013671875,0.8807373046875
1629724819970,-0.4437255859375,-0.06829833984375,0.87945556640625
1629724819970,-0.44317626953125,-0.065673828125,0.8829345703125
1629724819971,-0.44482421875,-0.0699462890625,0.88275146484375
1629724820001,-0.44195556640625,-0.0643310546875,0.8782958984375
1629724820002,-0.44158935546875,-0.06640625,0.8836669921875
1629724820007,-0.44219970703125,-0.05450439453125,0.87939453125
1629724820104,-0.440185546875,-0.06280517578125,0.88519287109375
1629724820104,-0.44000244140625,-0.06207275390625,0.88616943359375
1629724820118,-0.441650390625,-0.06329345703125,0.8828125
1629724820169,-0.440673828125,-0.06182861328125,0.88543701171875
1629724820181,-0.4427490234375,-0.06097412109375,0.88525390625
1629724820182,-0.44647216796875,-0.06292724609375,0.8895263671875
1629724820204,-0.443359375,-0.065673828125,0.8817138671875
1629724820204,-0.44671630859375,-0.06329345703125,0.8846435546875
1629724820206,-0.443603515625,-0.05938720703125,0.88677978515625
1629724820234,-0.44189453125,-0.064697265625,0.88153076171875
1629724820234,-0.44439697265625,-0.06646728515625,0.88189697265625
1629724820235,-0.44610595703125,-0.06591796875,0.88348388671875
1629724820304,-0.443115234375,-0.06243896484375,0.8802490234375
1629724820304,-0.4423828125,-0.06439208984375,0.87939453125
1629724820305,-0.44061279296875,-0.05828857421875,0.8790283203125
1629724820376,-0.44677734375,-0.06378173828125,0.8853759765625
1629724820376,-0.4444580078125,-0.0625,0.88421630859375
1629724820376,-0.44146728515625,-0.0654296875,0.883056640625
1629724820457,-0.44171142578125,-0.06353759765625,0.88616943359375
1629724820457,-0.44256591796875,-0.06219482421875,0.88525390625
1629724820470,-0.4404296875,-0.06298828125,0.88470458984375
1629724820488,-0.4398193359375,-0.060546875,0.8824462890625
1629724820490,-0.44073486328125,-0.06298828125,0.88238525390625
1629724820490,-0.441650390625,-0.0665283203125,0.8826904296875
1629724820585,-0.4420166015625,-0.06512451171875,0.88690185546875
1629724820585,-0.4373779296875,-0.0679931640625,0.88604736328125
1629724820586,-0.43994140625,-0.06439208984375,0.8843994140625
1629724820589,-0.4425048828125,-0.06256103515625,0.88330078125
1629724820590,-0.4390869140625,-0.0594482421875,0.887451171875
1629724820590,-0.44293212890625,-0.06378173828125,0.88397216796875
1629724820667,-0.44024658203125,-0.06732177734375,0.88623046875
1629724820667,-0.44281005859375,-0.067626953125,0.88671875
1629724820670,-0.4404296875,-0.065185546875,0.88323974609375
1629724820749,-0.4412841796875,-0.06549072265625,0.882568359375
1629724820749,-0.44232177734375,-0.06268310546875,0.88421630859375
1629724820749,-0.440673828125,-0.060546875,0.88311767578125
1629724820780,-0.44134521484375,-0.0616455078125,0.88214111328125
1629724820780,-0.4420166015625,-0.06195068359375,0.88482666015625
1629724820781,-0.443115234375,-0.06292724609375,0.88543701171875
1629724820870,-0.44287109375,-0.06488037109375,0.88543701171875
1629724820870,-0.44366455078125,-0.0633544921875,0.88372802734375
1629724820871,-0.44464111328125,-0.0601806640625,0.8802490234375
1629724820917,-0.44482421875,-0.06805419921875,0.8795166015625
1629724820917,-0.44683837890625,-0.06427001953125,0.88134765625
1629724820922,-0.44140625,-0.0654296875,0.8826904296875
1629724820980,-0.44097900390625,-0.06097412109375,0.88385009765625
1629724820981,-0.44305419921875,-0.0616455078125,0.87896728515625
1629724820981,-0.44091796875,-0.062255859375,0.88018798828125
1629724821011,-0.436767578125,-0.06109619140625,0.88531494140625
1629724821011,-0.43780517578125,-0.06280517578125,0.885498046875
1629724821011,-0.43548583984375,-0.063720703125,0.88507080078125
1629724821104,-0.4412841796875,-0.063232421875,0.88861083984375
1629724821104,-0.43798828125,-0.0634765625,0.88775634765625
1629724821107,-0.439453125,-0.06109619140625,0.88653564453125
1629724821136,-0.4429931640625,-0.0638427734375,0.88409423828125
1629724821136,-0.4443359375,-0.0640869140625,0.88983154296875
1629724821136,-0.440673828125,-0.0650634765625,0.88629150390625
1629724821198,-0.4400634765625,-0.064697265625,0.88671875
1629724821198,-0.43609619140625,-0.064453125,0.88494873046875
1629724821198,-0.43890380859375,-0.06207275390625,0.88360595703125
1629724821262,-0.4395751953125,-0.06158447265625,0.8824462890625
1629724821262,-0.43865966796875,-0.0611572265625,0.8790283203125
1629724821262,-0.438720703125,-0.05914306640625,0.881103515625
1629724821339,-0.44061279296875,-0.06378173828125,0.8837890625
1629724821339,-0.44073486328125,-0.06488037109375,0.88507080078125
1629724821339,-0.43719482421875,-0.066162109375,0.8829345703125
1629724821378,-0.4410400390625,-0.06707763671875,0.88519287109375
1629724821400,-0.443603515625,-0.0675048828125,0.88372802734375
1629724821401,-0.44012451171875,-0.06744384765625,0.88568115234375
1629724821425,-0.441162109375,-0.0618896484375,0.8831787109375
1629724821425,-0.4390869140625,-0.0614013671875,0.88348388671875
1629724821425,-0.44140625,-0.06463623046875,0.88677978515625
1629724821505,-0.4429931640625,-0.05975341796875,0.8812255859375
1629724821505,-0.44085693359375,-0.06158447265625,0.880859375
1629724821505,-0.441650390625,-0.06243896484375,0.88385009765625
1629724821597,-0.43975830078125,-0.06719970703125,0.88311767578125
1629724821598,-0.44378662109375,-0.0623779296875,0.882568359375
1629724821598,-0.44512939453125,-0.072021484375,0.8809814453125
1629724821598,-0.44012451171875,-0.06756591796875,0.88555908203125
1629724821599,-0.44061279296875,-0.0660400390625,0.88250732421875
1629724821599,-0.4434814453125,-0.06939697265625,0.8828125
1629724821664,-0.442626953125,-0.06549072265625,0.883544921875
1629724821664,-0.4432373046875,-0.065185546875,0.88330078125
1629724821664,-0.44122314453125,-0.065673828125,0.88299560546875
1629724821694,-0.44085693359375,-0.0643310546875,0.88323974609375
1629724821695,-0.4432373046875,-0.06207275390625,0.88568115234375
1629724821695,-0.44158935546875,-0.06298828125,0.88446044921875
1629724821788,-0.4434814453125,-0.06341552734375,0.88031005859375
1629724821788,-0.444091796875,-0.0670166015625,0.88116455078125
1629724821790,-0.446533203125,-0.067138671875,0.87982177734375
1629724821821,-0.44256591796875,-0.0682373046875,0.87750244140625
1629724821821,-0.44287109375,-0.063720703125,0.8778076171875
1629724821822,-0.44207763671875,-0.0615234375,0.88421630859375
1629724821888,-0.44036865234375,-0.0638427734375,0.88397216796875
1629724821888,-0.43853759765625,-0.06304931640625,0.88397216796875
1629724821888,-0.44122314453125,-0.0628662109375,0.88665771484375
1629724821954,-0.44146728515625,-0.0640869140625,0.886474609375
1629724821954,-0.441650390625,-0.0621337890625,0.885498046875
1629724821955,-0.43975830078125,-0.05950927734375,0.88238525390625
1629724822019,-0.44195556640625,-0.0648193359375,0.888427734375
1629724822019,-0.4437255859375,-0.06304931640625,0.88836669921875
1629724822022,-0.44219970703125,-0.0679931640625,0.88629150390625
1629724822108,-0.43988037109375,-0.06451416015625,0.88055419921875
1629724822108,-0.44024658203125,-0.06512451171875,0.87890625
1629724822111,-0.44049072265625,-0.066650390625,0.88165283203125
1629724822155,-0.4434814453125,-0.05889892578125,0.87762451171875
1629724822156,-0.43994140625,-0.0667724609375,0.88336181640625
1629724822156,-0.4405517578125,-0.06317138671875,0.8758544921875
1629724822221,-0.443359375,-0.06500244140625,0.8831787109375
1629724822222,-0.4427490234375,-0.06451416015625,0.8819580078125
1629724822223,-0.4495849609375,-0.06207275390625,0.8807373046875
1629724822320,-0.44287109375,-0.06439208984375,0.88677978515625
1629724822321,-0.43994140625,-0.0670166015625,0.88775634765625
1629724822323,-0.4449462890625,-0.06549072265625,0.8843994140625
1629724822352,-0.44384765625,-0.05877685546875,0.8814697265625
1629724822352,-0.4429931640625,-0.06390380859375,0.88372802734375
1629724822354,-0.44140625,-0.061767578125,0.88189697265625
1629724822387,-0.439697265625,-0.060302734375,0.87994384765625
1629724822402,-0.44097900390625,-0.06365966796875,0.87884521484375
1629724822403,-0.4429931640625,-0.0611572265625,0.88037109375
1629724822419,-0.443115234375,-0.061767578125,0.8841552734375
1629724822420,-0.4400634765625,-0.0628662109375,0.88409423828125
1629724822420,-0.4456787109375,-0.06634521484375,0.88421630859375
1629724822570,-0.44354248046875,-0.0704345703125,0.883544921875
1629724822571,-0.44061279296875,-0.0643310546875,0.880615234375
1629724822571,-0.44305419921875,-0.0665283203125,0.8839111328125
1629724822574,-0.44122314453125,-0.06878662109375,0.88323974609375
1629724822574,-0.440673828125,-0.06524658203125,0.8819580078125
1629724822574,-0.4429931640625,-0.06390380859375,0.88409423828125
1629724822600,-0.44097900390625,-0.0635986328125,0.8856201171875
1629724822616,-0.44146728515625,-0.0654296875,0.884521484375
1629724822618,-0.43878173828125,-0.06207275390625,0.888427734375
1629724822663,-0.44537353515625,-0.066162109375,0.88153076171875
1629724822663,-0.4398193359375,-0.06488037109375,0.88153076171875
1629724822664,-0.44232177734375,-0.06866455078125,0.88409423828125
1629724822726,-0.44439697265625,-0.062255859375,0.87799072265625
1629724822726,-0.4462890625,-0.07183837890625,0.88189697265625
1629724822726,-0.44622802734375,-0.06597900390625,0.8778076171875
1629724822792,-0.4427490234375,-0.0611572265625,0.8880615234375
1629724822792,-0.439697265625,-0.06304931640625,0.88568115234375
1629724822792,-0.44146728515625,-0.06072998046875,0.882568359375
1629724822840,-0.43743896484375,-0.060302734375,0.88543701171875
1629724822840,-0.4442138671875,-0.06414794921875,0.884765625
1629724822840,-0.43634033203125,-0.06292724609375,0.88360595703125
1629724822902,-0.4434814453125,-0.06549072265625,0.88641357421875
1629724822902,-0.4429931640625,-0.06744384765625,0.88531494140625
1629724822918,-0.44378662109375,-0.0657958984375,0.88653564453125
1629724822982,-0.445556640625,-0.06231689453125,0.8828125
1629724822982,-0.44586181640625,-0.0660400390625,0.87969970703125
1629724822982,-0.4451904296875,-0.06549072265625,0.8828125
1629724823029,-0.44317626953125,-0.066650390625,0.88397216796875
1629724823029,-0.446533203125,-0.06414794921875,0.88055419921875
1629724823029,-0.446044921875,-0.06976318359375,0.88525390625
1629724823091,-0.44500732421875,-0.0633544921875,0.878662109375
1629724823091,-0.443115234375,-0.06597900390625,0.881591796875
1629724823092,-0.44573974609375,-0.06622314453125,0.88232421875
1629724823187,-0.44451904296875,-0.06292724609375,0.8851318359375
1629724823188,-0.44580078125,-0.06500244140625,0.88250732421875
1629724823189,-0.44525146484375,-0.064697265625,0.8870849609375
1629724823235,-0.44451904296875,-0.0609130859375,0.8836669921875
1629724823235,-0.44598388671875,-0.0645751953125,0.88262939453125
1629724823235,-0.44476318359375,-0.06024169921875,0.8818359375
1629724823249,-0.4456787109375,-0.057861328125,0.88104248046875
1629724823250,-0.44549560546875,-0.05889892578125,0.8824462890625
1629724823250,-0.443603515625,-0.059814453125,0.88018798828125
1629724823332,-0.4444580078125,-0.063720703125,0.88323974609375
1629724823332,-0.4444580078125,-0.063720703125,0.87957763671875
1629724823332,-0.44403076171875,-0.0633544921875,0.88177490234375
1629724823361,-0.44354248046875,-0.06439208984375,0.88641357421875
1629724823362,-0.4427490234375,-0.06683349609375,0.8822021484375
1629724823362,-0.44256591796875,-0.0653076171875,0.8837890625
1629724823438,-0.445556640625,-0.06451416015625,0.88189697265625
1629724823438,-0.4423828125,-0.06427001953125,0.88421630859375
1629724823440,-0.44683837890625,-0.06463623046875,0.882568359375
1629724823489,-0.444091796875,-0.06243896484375,0.8817138671875
1629724823489,-0.44488525390625,-0.06201171875,0.88043212890625
1629724823489,-0.4432373046875,-0.05999755859375,0.88092041015625
1629724823553,-0.44158935546875,-0.0654296875,0.88421630859375
1629724823553,-0.4447021484375,-0.06182861328125,0.88037109375
1629724823553,-0.44512939453125,-0.0611572265625,0.88092041015625
1629724823599,-0.445556640625,-0.06341552734375,0.87933349609375
1629724823599,-0.44659423828125,-0.06494140625,0.88275146484375
1629724823599,-0.4461669921875,-0.0633544921875,0.87957763671875
1629724823654,-0.4493408203125,-0.0697021484375,0.88128662109375
1629724823656,-0.44940185546875,-0.07086181640625,0.87969970703125
1629724823656,-0.44793701171875,-0.07110595703125,0.876953125
1629724823755,-0.44659423828125,-0.05999755859375,0.8743896484375
1629724823756,-0.44580078125,-0.062255859375,0.87811279296875
1629724823756,-0.44390869140625,-0.06268310546875,0.8809814453125
1629724823770,-0.4403076171875,-0.06097412109375,0.88397216796875
1629724823770,-0.44354248046875,-0.05950927734375,0.88262939453125
1629724823770,-0.44232177734375,-0.05889892578125,0.88525390625
1629724823833,-0.44366455078125,-0.06402587890625,0.88629150390625
1629724823833,-0.44482421875,-0.06512451171875,0.8834228515625
1629724823833,-0.4437255859375,-0.06268310546875,0.884521484375
1629724823905,-0.44744873046875,-0.06317138671875,0.8759765625
1629724823905,-0.4478759765625,-0.0643310546875,0.88116455078125
1629724823905,-0.44805908203125,-0.06524658203125,0.8812255859375
1629724823972,-0.4442138671875,-0.0625,0.88262939453125
1629724823975,-0.4466552734375,-0.0645751953125,0.8807373046875
1629724823975,-0.44671630859375,-0.0655517578125,0.88104248046875
1629724824074,-0.44439697265625,-0.06219482421875,0.87823486328125
1629724824075,-0.44793701171875,-0.05853271484375,0.875
1629724824075,-0.44610595703125,-0.06097412109375,0.8765869140625
1629724824088,-0.44677734375,-0.06219482421875,0.87994384765625
1629724824090,-0.44744873046875,-0.060546875,0.8814697265625
1629724824097,-0.4453125,-0.06378173828125,0.88726806640625
1629724824120,-0.4481201171875,-0.06756591796875,0.88409423828125
1629724824121,-0.44451904296875,-0.06427001953125,0.88525390625
1629724824121,-0.44525146484375,-0.0653076171875,0.8826904296875
1629724824204,-0.44647216796875,-0.0618896484375,0.8807373046875
1629724824204,-0.4466552734375,-0.060302734375,0.8800048828125
1629724824205,-0.44635009765625,-0.0609130859375,0.8807373046875
1629724824241,-0.44366455078125,-0.05889892578125,0.88140869140625
1629724824242,-0.4454345703125,-0.06231689453125,0.87786865234375
1629724824243,-0.44683837890625,-0.0599365234375,0.87945556640625
1629724824320,-0.4456787109375,-0.06353759765625,0.8809814453125
1629724824320,-0.44677734375,-0.0682373046875,0.88201904296875
1629724824325,-0.44879150390625,-0.06707763671875,0.880615234375
1629724824384,-0.4454345703125,-0.06884765625,0.8824462890625
1629724824385,-0.44580078125,-0.06817626953125,0.88360595703125
1629724824385,-0.44696044921875,-0.06805419921875,0.88385009765625
1629724824453,-0.44390869140625,-0.0631103515625,0.88238525390625
1629724824454,-0.44293212890625,-0.064453125,0.88323974609375
1629724824454,-0.44354248046875,-0.0653076171875,0.8837890625
1629724824584,-0.4434814453125,-0.06512451171875,0.88189697265625
1629724824584,-0.44781494140625,-0.06427001953125,0.88232421875
1629724824584,-0.44659423828125,-0.06500244140625,0.8819580078125
1629724824600,-0.44757080078125,-0.0645751953125,0.88140869140625
1629724824600,-0.4410400390625,-0.0626220703125,0.881591796875
1629724824607,-0.44427490234375,-0.062744140625,0.88031005859375
1629724824633,-0.4468994140625,-0.06658935546875,0.88067626953125
1629724824633,-0.4447021484375,-0.0643310546875,0.87774658203125
1629724824634,-0.4456787109375,-0.06341552734375,0.8785400390625
1629724824663,-0.44683837890625,-0.068359375,0.88201904296875
1629724824663,-0.45001220703125,-0.0699462890625,0.87945556640625
1629724824679,-0.4476318359375,-0.066650390625,0.877685546875
1629724824758,-0.44854736328125,-0.05902099609375,0.876220703125
1629724824758,-0.44439697265625,-0.06304931640625,0.878662109375
1629724824758,-0.44610595703125,-0.06256103515625,0.8765869140625
1629724824789,-0.44317626953125,-0.05712890625,0.88311767578125
1629724824808,-0.44482421875,-0.06103515625,0.882080078125
1629724824813,-0.44464111328125,-0.0615234375,0.88323974609375
1629724824821,-0.44635009765625,-0.0621337890625,0.88287353515625
1629724824823,-0.44873046875,-0.0628662109375,0.883544921875
1629724824823,-0.44891357421875,-0.0653076171875,0.883544921875
1629724824900,-0.44488525390625,-0.0677490234375,0.8812255859375
1629724824900,-0.44464111328125,-0.06610107421875,0.8795166015625
1629724824901,-0.4451904296875,-0.0662841796875,0.8802490234375
1629724824950,-0.443603515625,-0.06591796875,0.8787841796875
1629724824950,-0.44561767578125,-0.06597900390625,0.880859375
1629724824950,-0.445068359375,-0.0653076171875,0.88079833984375
1629724825019,-0.4461669921875,-0.0634765625,0.87939453125
1629724825020,-0.44757080078125,-0.0631103515625,0.8779296875
1629724825020,-0.44854736328125,-0.0615234375,0.8740234375
1629724825065,-0.44720458984375,-0.0657958984375,0.8873291015625
1629724825065,-0.4461669921875,-0.06402587890625,0.88311767578125
1629724825066,-0.44732666015625,-0.06524658203125,0.87982177734375
1629724825147,-0.44921875,-0.062744140625,0.881591796875
1629724825147,-0.44720458984375,-0.06719970703125,0.88079833984375
1629724825147,-0.44775390625,-0.0643310546875,0.8843994140625
1629724825252,-0.44677734375,-0.06829833984375,0.8795166015625
1629724825269,-0.4444580078125,-0.064453125,0.87945556640625
1629724825272,-0.44830322265625,-0.06036376953125,0.88153076171875
1629724825275,-0.4482421875,-0.0565185546875,0.882568359375
1629724825276,-0.44921875,-0.058837890625,0.8807373046875
1629724825279,-0.44427490234375,-0.0595703125,0.88232421875
1629724825321,-0.44793701171875,-0.0667724609375,0.88140869140625
1629724825321,-0.4449462890625,-0.06390380859375,0.87884521484375
1629724825321,-0.4459228515625,-0.0640869140625,0.8795166015625
1629724825383,-0.448974609375,-0.0628662109375,0.88018798828125
1629724825393,-0.44677734375,-0.06591796875,0.88214111328125
1629724825394,-0.447265625,-0.0667724609375,0.8818359375
1629724825454,-0.44830322265625,-0.06109619140625,0.87835693359375
1629724825454,-0.44793701171875,-0.0635986328125,0.88238525390625
1629724825456,-0.4454345703125,-0.064697265625,0.879638671875
1629724825506,-0.446533203125,-0.06414794921875,0.87664794921875
1629724825521,-0.4493408203125,-0.06488037109375,0.88214111328125
1629724825522,-0.4483642578125,-0.0634765625,0.87982177734375
1629724825602,-0.44793701171875,-0.06158447265625,0.88128662109375
1629724825602,-0.44970703125,-0.0611572265625,0.8817138671875
1629724825602,-0.44708251953125,-0.062255859375,0.8807373046875
1629724825656,-0.4447021484375,-0.06268310546875,0.8834228515625
1629724825657,-0.44921875,-0.0615234375,0.88580322265625
1629724825657,-0.4468994140625,-0.06512451171875,0.8826904296875
1629724825705,-0.45098876953125,-0.07061767578125,0.87982177734375
1629724825705,-0.447021484375,-0.06787109375,0.87762451171875
1629724825705,-0.4493408203125,-0.06689453125,0.87969970703125
1629724825786,-0.44500732421875,-0.059814453125,0.876953125
1629724825786,-0.443359375,-0.06085205078125,0.8779296875
1629724825787,-0.4501953125,-0.066650390625,0.87921142578125
1629724825818,-0.44439697265625,-0.05743408203125,0.8802490234375
1629724825818,-0.4462890625,-0.0611572265625,0.88128662109375
1629724825822,-0.445068359375,-0.05963134765625,0.8824462890625
1629724825847,-0.44384765625,-0.060546875,0.88427734375
1629724825847,-0.446044921875,-0.05902099609375,0.88372802734375
1629724825864,-0.44580078125,-0.06671142578125,0.88446044921875
1629724825987,-0.4468994140625,-0.062255859375,0.8780517578125
1629724825987,-0.44708251953125,-0.06005859375,0.87994384765625
1629724825988,-0.4442138671875,-0.063232421875,0.88031005859375
1629724825988,-0.44757080078125,-0.06805419921875,0.8814697265625
1629724825988,-0.44580078125,-0.0660400390625,0.88275146484375
1629724825990,-0.4466552734375,-0.06695556640625,0.8817138671875
1629724826034,-0.449951171875,-0.0633544921875,0.87933349609375
1629724826034,-0.4505615234375,-0.0665283203125,0.8740234375
1629724826036,-0.450927734375,-0.06500244140625,0.8773193359375
1629724826082,-0.45013427734375,-0.065185546875,0.880615234375
1629724826082,-0.44659423828125,-0.0638427734375,0.8814697265625
1629724826082,-0.447265625,-0.06329345703125,0.8773193359375
1629724826181,-0.449462890625,-0.06329345703125,0.8839111328125
1629724826181,-0.44677734375,-0.0645751953125,0.882568359375
1629724826181,-0.4464111328125,-0.05889892578125,0.88153076171875
1629724826213,-0.44732666015625,-0.05889892578125,0.878173828125
1629724826213,-0.4466552734375,-0.05902099609375,0.8775634765625
1629724826217,-0.44732666015625,-0.0606689453125,0.8800048828125
1629724826260,-0.44598388671875,-0.06201171875,0.8792724609375
1629724826261,-0.4520263671875,-0.05712890625,0.88055419921875
1629724826261,-0.44677734375,-0.0604248046875,0.87982177734375
1629724826352,-0.45208740234375,-0.06634521484375,0.87872314453125
1629724826354,-0.44439697265625,-0.0672607421875,0.877685546875
1629724826354,-0.4483642578125,-0.0643310546875,0.8819580078125
1629724826398,-0.44635009765625,-0.0635986328125,0.88018798828125
1629724826398,-0.44683837890625,-0.0657958984375,0.88348388671875
1629724826398,-0.4498291015625,-0.0654296875,0.88177490234375
1629724826472,-0.44647216796875,-0.0626220703125,0.88385009765625
1629724826472,-0.44573974609375,-0.0611572265625,0.88079833984375
1629724826472,-0.44488525390625,-0.062744140625,0.88299560546875
1629724826488,-0.44744873046875,-0.06298828125,0.8836669921875
1629724826488,-0.44525146484375,-0.06732177734375,0.8843994140625
1629724826489,-0.4447021484375,-0.06207275390625,0.88458251953125
1629724826568,-0.44384765625,-0.06378173828125,0.8795166015625
1629724826568,-0.44830322265625,-0.06402587890625,0.87823486328125
1629724826568,-0.447021484375,-0.06390380859375,0.87872314453125
1629724826618,-0.44354248046875,-0.0638427734375,0.8804931640625
1629724826634,-0.44610595703125,-0.06292724609375,0.88104248046875
1629724826635,-0.44818115234375,-0.0621337890625,0.88372802734375
1629724826690,-0.4508056640625,-0.06500244140625,0.87939453125
1629724826690,-0.4471435546875,-0.066162109375,0.8812255859375
1629724826690,-0.447509765625,-0.06365966796875,0.8780517578125
1629724826723,-0.44830322265625,-0.06201171875,0.87506103515625
1629724826723,-0.44647216796875,-0.06793212890625,0.875244140625
1629724826724,-0.44927978515625,-0.07012939453125,0.87774658203125
1629724826819,-0.4459228515625,-0.06524658203125,0.883056640625
1629724826819,-0.44805908203125,-0.06219482421875,0.874755859375
1629724826819,-0.446044921875,-0.06195068359375,0.881591796875
1629724826883,-0.4464111328125,-0.05877685546875,0.88330078125
1629724826883,-0.44122314453125,-0.0614013671875,0.8814697265625
1629724826885,-0.44647216796875,-0.06103515625,0.88031005859375
1629724826914,-0.451904296875,-0.0609130859375,0.88336181640625
1629724826915,-0.442626953125,-0.06512451171875,0.88568115234375
1629724826915,-0.4454345703125,-0.06402587890625,0.882568359375
1629724826961,-0.447265625,-0.0635986328125,0.8802490234375
1629724826962,-0.44927978515625,-0.06280517578125,0.8814697265625
1629724826962,-0.44635009765625,-0.0625,0.88177490234375
1629724827007,-0.44903564453125,-0.0655517578125,0.87982177734375
1629724827008,-0.45068359375,-0.06329345703125,0.87774658203125
1629724827008,-0.44757080078125,-0.05975341796875,0.87591552734375
1629724827103,-0.44781494140625,-0.0634765625,0.882080078125
1629724827106,-0.44683837890625,-0.0609130859375,0.87542724609375
1629724827113,-0.445068359375,-0.06378173828125,0.87811279296875
1629724827152,-0.44842529296875,-0.06097412109375,0.88397216796875
1629724827152,-0.4449462890625,-0.064697265625,0.88226318359375
1629724827153,-0.4462890625,-0.06298828125,0.8817138671875
1629724827252,-0.4482421875,-0.06146240234375,0.88092041015625
1629724827252,-0.4503173828125,-0.0595703125,0.8819580078125
1629724827252,-0.44976806640625,-0.065185546875,0.88372802734375
1629724827299,-0.44635009765625,-0.0567626953125,0.87841796875
1629724827300,-0.4468994140625,-0.0584716796875,0.8779296875
1629724827301,-0.4471435546875,-0.0595703125,0.879638671875
1629724827301,-0.4490966796875,-0.05902099609375,0.881591796875
1629724827301,-0.4442138671875,-0.06134033203125,0.881591796875
1629724827301,-0.45025634765625,-0.061767578125,0.8778076171875
1629724827388,-0.44781494140625,-0.0675048828125,0.88128662109375
1629724827389,-0.4482421875,-0.0655517578125,0.884033203125
1629724827405,-0.4456787109375,-0.0631103515625,0.8800048828125
1629724827419,-0.4481201171875,-0.0614013671875,0.8829345703125
1629724827419,-0.448486328125,-0.0665283203125,0.8817138671875
1629724827422,-0.4466552734375,-0.0648193359375,0.8846435546875
1629724827503,-0.4486083984375,-0.06195068359375,0.88006591796875
1629724827503,-0.449462890625,-0.0635986328125,0.88037109375
1629724827504,-0.4483642578125,-0.0655517578125,0.8807373046875
1629724827590,-0.44580078125,-0.0675048828125,0.88153076171875
1629724827591,-0.44512939453125,-0.06268310546875,0.87896728515625
1629724827594,-0.44305419921875,-0.06219482421875,0.881103515625
1629724827620,-0.4482421875,-0.063720703125,0.88165283203125
1629724827621,-0.44818115234375,-0.06329345703125,0.88128662109375
1629724827626,-0.44671630859375,-0.06048583984375,0.8807373046875
1629724827705,-0.45367431640625,-0.0667724609375,0.8785400390625
1629724827705,-0.449951171875,-0.063720703125,0.88043212890625
1629724827705,-0.45013427734375,-0.06475830078125,0.8775634765625
1629724827755,-0.4461669921875,-0.05975341796875,0.87945556640625
1629724827756,-0.45050048828125,-0.06158447265625,0.87451171875
1629724827756,-0.4512939453125,-0.06591796875,0.8731689453125
1629724827787,-0.44586181640625,-0.06243896484375,0.88214111328125
1629724827787,-0.44415283203125,-0.0648193359375,0.88165283203125
1629724827787,-0.449462890625,-0.0616455078125,0.87762451171875
1629724827879,-0.448974609375,-0.062255859375,0.88214111328125
1629724827880,-0.4462890625,-0.06536865234375,0.883056640625
1629724827881,-0.4505615234375,-0.06646728515625,0.88250732421875
1629724827899,-0.44549560546875,-0.06640625,0.884765625
1629724827899,-0.4456787109375,-0.06317138671875,0.88031005859375
1629724827900,-0.4459228515625,-0.06683349609375,0.884033203125
1629724827987,-0.44921875,-0.0653076171875,0.883544921875
1629724827987,-0.4482421875,-0.0611572265625,0.87860107421875
1629724827987,-0.4522705078125,-0.0654296875,0.87933349609375
1629724828034,-0.4473876953125,-0.06353759765625,0.87799072265625
1629724828034,-0.45208740234375,-0.0614013671875,0.8765869140625
1629724828037,-0.44573974609375,-0.06195068359375,0.87457275390625
1629724828118,-0.44866943359375,-0.06591796875,0.882080078125
1629724828118,-0.44561767578125,-0.064208984375,0.88311767578125
1629724828131,-0.44580078125,-0.06036376953125,0.87689208984375
1629724828152,-0.44915771484375,-0.06304931640625,0.88543701171875
1629724828153,-0.4481201171875,-0.06219482421875,0.8817138671875
1629724828154,-0.447509765625,-0.06170654296875,0.8843994140625
1629724828183,-0.44952392578125,-0.061767578125,0.8782958984375
1629724828189,-0.44854736328125,-0.0599365234375,0.87896728515625
1629724828190,-0.4527587890625,-0.0615234375,0.87939453125
1629724828263,-0.44989013671875,-0.05975341796875,0.87579345703125
1629724828267,-0.448974609375,-0.05963134765625,0.878662109375
1629724828267,-0.44873046875,-0.06268310546875,0.877197265625
1629724828294,-0.4462890625,-0.06488037109375,0.8843994140625
1629724828294,-0.44818115234375,-0.06439208984375,0.880126953125
1629724828310,-0.44610595703125,-0.06195068359375,0.87847900390625
1629724828373,-0.451171875,-0.06475830078125,0.87969970703125
1629724828383,-0.448486328125,-0.0687255859375,0.88140869140625
1629724828391,-0.45379638671875,-0.06524658203125,0.87774658203125
1629724828452,-0.44708251953125,-0.0645751953125,0.87872314453125
1629724828454,-0.45050048828125,-0.06536865234375,0.87921142578125
1629724828454,-0.4481201171875,-0.065673828125,0.87884521484375
1629724828513,-0.4462890625,-0.06103515625,0.88177490234375
1629724828513,-0.44866943359375,-0.06463623046875,0.880859375
1629724828513,-0.45037841796875,-0.0643310546875,0.88201904296875
1629724828531,-0.4495849609375,-0.06500244140625,0.87725830078125
1629724828538,-0.45013427734375,-0.06231689453125,0.87786865234375
1629724828538,-0.453125,-0.06524658203125,0.87451171875
1629724828612,-0.449951171875,-0.0654296875,0.87847900390625
1629724828612,-0.4520263671875,-0.06854248046875,0.877197265625
1629724828726,-0.447021484375,-0.0643310546875,0.8800048828125
1629724828732,-0.44769287109375,-0.0655517578125,0.87823486328125
1629724828734,-0.44769287109375,-0.060791015625,0.872802734375
1629724828782,-0.4449462890625,-0.06463623046875,0.88116455078125
1629724828782,-0.44683837890625,-0.06475830078125,0.88128662109375
1629724828782,-0.44647216796875,-0.0623779296875,0.8822021484375
1629724828847,-0.447265625,-0.065673828125,0.88409423828125
1629724828847,-0.44976806640625,-0.06298828125,0.88372802734375
1629724828847,-0.447265625,-0.0667724609375,0.88397216796875
1629724828889,-0.446533203125,-0.063720703125,0.877685546875
1629724828889,-0.4501953125,-0.06365966796875,0.880859375
1629724828889,-0.447998046875,-0.06536865234375,0.8818359375
1629724828958,-0.4461669921875,-0.0638427734375,0.87646484375
1629724828959,-0.44854736328125,-0.06756591796875,0.87786865234375
1629724828959,-0.4461669921875,-0.064697265625,0.881103515625
1629724828991,-0.44732666015625,-0.06475830078125,0.879638671875
1629724828991,-0.4486083984375,-0.06256103515625,0.87530517578125
1629724828991,-0.44927978515625,-0.06390380859375,0.8760986328125
1629724829023,-0.4495849609375,-0.06451416015625,0.88067626953125
1629724829023,-0.4468994140625,-0.06640625,0.8826904296875
1629724829024,-0.45245361328125,-0.06524658203125,0.8790283203125
1629724829054,-0.45391845703125,-0.062255859375,0.87896728515625
1629724829055,-0.4486083984375,-0.06048583984375,0.87841796875
1629724829055,-0.44464111328125,-0.0655517578125,0.88104248046875
1629724829142,-0.45220947265625,-0.06170654296875,0.87786865234375
1629724829142,-0.45123291015625,-0.05828857421875,0.87738037109375
1629724829142,-0.44696044921875,-0.0595703125,0.87933349609375
1629724829255,-0.45220947265625,-0.0699462890625,0.8798828125
1629724829255,-0.45037841796875,-0.066162109375,0.880126953125
1629724829256,-0.450927734375,-0.0623779296875,0.87933349609375
1629724829256,-0.44708251953125,-0.06610107421875,0.88165283203125
1629724829257,-0.45098876953125,-0.0587158203125,0.87591552734375
1629724829273,-0.4493408203125,-0.0653076171875,0.88043212890625
1629724829334,-0.44927978515625,-0.06640625,0.878662109375
1629724829336,-0.4488525390625,-0.0657958984375,0.8785400390625
1629724829341,-0.448974609375,-0.0672607421875,0.8802490234375
1629724829395,-0.4471435546875,-0.06475830078125,0.87689208984375
1629724829396,-0.451416015625,-0.06378173828125,0.87811279296875
1629724829398,-0.4483642578125,-0.06512451171875,0.88250732421875
1629724829429,-0.4498291015625,-0.06793212890625,0.8798828125
1629724829438,-0.45001220703125,-0.06365966796875,0.8797607421875
1629724829440,-0.4461669921875,-0.0660400390625,0.88446044921875
1629724829495,-0.44964599609375,-0.065185546875,0.87799072265625
1629724829495,-0.45068359375,-0.06854248046875,0.8780517578125
1629724829495,-0.45013427734375,-0.06597900390625,0.87933349609375
1629724829587,-0.4547119140625,-0.0667724609375,0.87530517578125
1629724829588,-0.44964599609375,-0.05792236328125,0.87518310546875
1629724829597,-0.4462890625,-0.06439208984375,0.87884521484375
1629724829610,-0.44427490234375,-0.063720703125,0.87921142578125
1629724829610,-0.44610595703125,-0.06256103515625,0.88006591796875
1629724829613,-0.4503173828125,-0.0634765625,0.8800048828125
1629724829699,-0.4486083984375,-0.06787109375,0.88177490234375
1629724829700,-0.4449462890625,-0.06219482421875,0.87921142578125
1629724829700,-0.45013427734375,-0.06304931640625,0.8837890625
1629724829779,-0.44903564453125,-0.06451416015625,0.8787841796875
1629724829779,-0.4547119140625,-0.06378173828125,0.88043212890625
1629724829794,-0.44805908203125,-0.0650634765625,0.88201904296875
1629724829813,-0.44769287109375,-0.06658935546875,0.8782958984375
1629724829813,-0.45343017578125,-0.06243896484375,0.8778076171875
1629724829813,-0.45074462890625,-0.06671142578125,0.87841796875
1629724829837,-0.45062255859375,-0.06695556640625,0.877197265625
1629724829845,-0.45098876953125,-0.0609130859375,0.878173828125
1629724829846,-0.4541015625,-0.0633544921875,0.87347412109375
1629724829948,-0.451416015625,-0.0645751953125,0.87890625
1629724829949,-0.45025634765625,-0.06365966796875,0.8748779296875
1629724829949,-0.4503173828125,-0.06494140625,0.87701416015625
1629724830013,-0.44769287109375,-0.06341552734375,0.88262939453125
1629724830013,-0.44952392578125,-0.06329345703125,0.88232421875
1629724830013,-0.4481201171875,-0.06396484375,0.88421630859375
1629724830037,-0.45037841796875,-0.06646728515625,0.8792724609375
1629724830037,-0.45111083984375,-0.062744140625,0.88226318359375
1629724830046,-0.44866943359375,-0.06024169921875,0.8798828125
1629724830149,-0.4464111328125,-0.0650634765625,0.880126953125
1629724830150,-0.4493408203125,-0.05950927734375,0.879150390625
1629724830150,-0.45245361328125,-0.0601806640625,0.87945556640625
1629724830160,-0.44940185546875,-0.060302734375,0.878662109375
1629724830162,-0.448486328125,-0.06494140625,0.87921142578125
1629724830165,-0.44842529296875,-0.05828857421875,0.87738037109375
1629724830231,-0.44671630859375,-0.066162109375,0.8780517578125
1629724830232,-0.45001220703125,-0.06756591796875,0.880615234375
1629724830232,-0.44744873046875,-0.06744384765625,0.87725830078125
1629724830320,-0.45062255859375,-0.06585693359375,0.87896728515625
1629724830322,-0.4466552734375,-0.065673828125,0.88134765625
1629724830326,-0.44720458984375,-0.0657958984375,0.8787841796875
1629724830331,-0.446533203125,-0.06689453125,0.8817138671875
1629724830332,-0.448486328125,-0.067138671875,0.88092041015625
1629724830341,-0.44818115234375,-0.064453125,0.88079833984375
1629724830426,-0.45074462890625,-0.0709228515625,0.8797607421875
1629724830435,-0.45086669921875,-0.06689453125,0.87542724609375
1629724830435,-0.4525146484375,-0.07257080078125,0.8753662109375
1629724830491,-0.45233154296875,-0.06817626953125,0.8768310546875
1629724830500,-0.447509765625,-0.05963134765625,0.877197265625
1629724830505,-0.44854736328125,-0.06219482421875,0.8724365234375
1629724830567,-0.4493408203125,-0.0623779296875,0.8822021484375
1629724830584,-0.4468994140625,-0.06610107421875,0.881591796875
1629724830586,-0.45050048828125,-0.06707763671875,0.8797607421875
1629724830659,-0.4500732421875,-0.06585693359375,0.8851318359375
1629724830660,-0.448974609375,-0.06817626953125,0.8831787109375
1629724830660,-0.44915771484375,-0.0655517578125,0.88409423828125
1629724830663,-0.44610595703125,-0.06463623046875,0.88250732421875
1629724830663,-0.4483642578125,-0.0648193359375,0.8819580078125
1629724830663,-0.44781494140625,-0.064208984375,0.88134765625
1629724830769,-0.450927734375,-0.06707763671875,0.88116455078125
1629724830769,-0.447509765625,-0.0653076171875,0.8797607421875
1629724830769,-0.45013427734375,-0.06390380859375,0.8785400390625
1629724830827,-0.45013427734375,-0.068115234375,0.8807373046875
1629724830834,-0.44842529296875,-0.06396484375,0.87591552734375
1629724830834,-0.4486083984375,-0.06396484375,0.87646484375
1629724830858,-0.448486328125,-0.06402587890625,0.8785400390625
1629724830858,-0.45001220703125,-0.0645751953125,0.875732421875
1629724830858,-0.45172119140625,-0.0660400390625,0.88067626953125
1629724830891,-0.44818115234375,-0.0623779296875,0.8790283203125
1629724830896,-0.45159912109375,-0.0672607421875,0.88055419921875
1629724830897,-0.4508056640625,-0.06884765625,0.8809814453125
1629724830962,-0.4451904296875,-0.064697265625,0.87969970703125
1629724830962,-0.4493408203125,-0.06414794921875,0.87603759765625
1629724830962,-0.449462890625,-0.062255859375,0.87921142578125
1629724831100,-0.45135498046875,-0.061767578125,0.87872314453125
1629724831101,-0.45196533203125,-0.059814453125,0.877197265625
1629724831101,-0.45037841796875,-0.0604248046875,0.87939453125
1629724831129,-0.447998046875,-0.06353759765625,0.87774658203125
1629724831129,-0.44873046875,-0.06414794921875,0.88067626953125
1629724831137,-0.4473876953125,-0.06451416015625,0.879638671875
1629724831156,-0.45172119140625,-0.068359375,0.88037109375
1629724831156,-0.44720458984375,-0.0667724609375,0.87982177734375
1629724831162,-0.447021484375,-0.064697265625,0.8819580078125
1629724831262,-0.44757080078125,-0.063720703125,0.87957763671875
1629724831262,-0.451416015625,-0.0655517578125,0.88153076171875
1629724831262,-0.4486083984375,-0.06683349609375,0.87945556640625
1629724831292,-0.451416015625,-0.06378173828125,0.8782958984375
1629724831292,-0.4490966796875,-0.0670166015625,0.87591552734375
1629724831292,-0.44940185546875,-0.061767578125,0.8828125
1629724831335,-0.44775390625,-0.0640869140625,0.879150390625
1629724831335,-0.44720458984375,-0.0670166015625,0.880126953125
1629724831336,-0.44622802734375,-0.06585693359375,0.8780517578125
1629724831445,-0.4522705078125,-0.06573486328125,0.87957763671875
1629724831445,-0.44879150390625,-0.0670166015625,0.8787841796875
1629724831458,-0.44866943359375,-0.06103515625,0.88116455078125
1629724831464,-0.45281982421875,-0.06390380859375,0.88079833984375
1629724831464,-0.44598388671875,-0.0634765625,0.88201904296875
1629724831466,-0.44903564453125,-0.07049560546875,0.8814697265625
1629724831507,-0.4522705078125,-0.0618896484375,0.87408447265625
1629724831507,-0.45068359375,-0.07147216796875,0.8758544921875
1629724831514,-0.450439453125,-0.063720703125,0.8751220703125
1629724831563,-0.44427490234375,-0.0609130859375,0.88134765625
1629724831564,-0.44732666015625,-0.06268310546875,0.88043212890625
1629724831564,-0.4476318359375,-0.0657958984375,0.88385009765625
1629724831674,-0.44879150390625,-0.065185546875,0.88336181640625
1629724831702,-0.4471435546875,-0.0631103515625,0.878662109375
1629724831702,-0.4482421875,-0.0618896484375,0.883544921875
1629724831706,-0.44854736328125,-0.06549072265625,0.8843994140625
1629724831707,-0.4495849609375,-0.06585693359375,0.8817138671875
1629724831711,-0.448486328125,-0.06756591796875,0.8775634765625
1629724831746,-0.4525146484375,-0.06640625,0.87359619140625
1629724831746,-0.45111083984375,-0.06732177734375,0.87677001953125
1629724831746,-0.450439453125,-0.064453125,0.880615234375
1629724831786,-0.45086669921875,-0.0657958984375,0.8792724609375
1629724831787,-0.45068359375,-0.0623779296875,0.8760986328125
1629724831787,-0.45257568359375,-0.06292724609375,0.87811279296875
1629724831844,-0.4520263671875,-0.0615234375,0.8759765625
1629724831845,-0.4508056640625,-0.06842041015625,0.88055419921875
1629724831845,-0.44940185546875,-0.0625,0.8778076171875
1629724831907,-0.4503173828125,-0.06390380859375,0.88079833984375
1629724831908,-0.45025634765625,-0.0634765625,0.88214111328125
1629724831959,-0.45068359375,-0.06353759765625,0.87847900390625
1629724831959,-0.45196533203125,-0.06585693359375,0.87786865234375
1629724831959,-0.447998046875,-0.06768798828125,0.87689208984375
1629724832044,-0.4532470703125,-0.06365966796875,0.877197265625
1629724832044,-0.45062255859375,-0.05902099609375,0.8782958984375
1629724832044,-0.45123291015625,-0.05859375,0.87945556640625
1629724832089,-0.4498291015625,-0.0621337890625,0.87799072265625
1629724832089,-0.4498291015625,-0.0618896484375,0.878662109375
1629724832089,-0.44879150390625,-0.06280517578125,0.87896728515625
1629724832188,-0.4473876953125,-0.0670166015625,0.88153076171875
1629724832188,-0.450439453125,-0.0684814453125,0.88037109375
1629724832189,-0.4486083984375,-0.06866455078125,0.880615234375
1629724832204,-0.444091796875,-0.06549072265625,0.8848876953125
1629724832204,-0.450927734375,-0.065673828125,0.87994384765625
1629724832205,-0.4498291015625,-0.06182861328125,0.8818359375
1629724832294,-0.4500732421875,-0.0638427734375,0.8814697265625
1629724832294,-0.44708251953125,-0.0623779296875,0.881591796875
1629724832294,-0.4481201171875,-0.06536865234375,0.882568359375
1629724832361,-0.4481201171875,-0.0640869140625,0.88031005859375
1629724832361,-0.44769287109375,-0.066162109375,0.88116455078125
1629724832362,-0.44622802734375,-0.0616455078125,0.881591796875
1629724832392,-0.4486083984375,-0.063232421875,0.87835693359375
1629724832393,-0.44952392578125,-0.06329345703125,0.87945556640625
1629724832393,-0.447021484375,-0.0631103515625,0.87884521484375
1629724832423,-0.44970703125,-0.06500244140625,0.8756103515625
1629724832424,-0.44610595703125,-0.0633544921875,0.87908935546875
1629724832424,-0.45269775390625,-0.06671142578125,0.8785400390625
1629724832485,-0.45281982421875,-0.067138671875,0.87628173828125
1629724832485,-0.45086669921875,-0.0634765625,0.8748779296875
1629724832501,-0.4520263671875,-0.06719970703125,0.87890625
1629724832567,-0.44976806640625,-0.06414794921875,0.87652587890625
1629724832568,-0.44696044921875,-0.0625,0.88360595703125
1629724832570,-0.45257568359375,-0.0621337890625,0.87646484375
1629724832616,-0.445068359375,-0.06378173828125,0.8829345703125
1629724832618,-0.4462890625,-0.06103515625,0.8809814453125
1629724832618,-0.44744873046875,-0.05877685546875,0.88177490234375
1629724832719,-0.447509765625,-0.065185546875,0.8779296875
1629724832720,-0.451171875,-0.0654296875,0.88287353515625
1629724832727,-0.45013427734375,-0.066162109375,0.8804931640625
1629724832763,-0.4520263671875,-0.0704345703125,0.87890625
1629724832779,-0.44647216796875,-0.06414794921875,0.874755859375
1629724832779,-0.45074462890625,-0.0655517578125,0.8797607421875
1629724832813,-0.4512939453125,-0.0650634765625,0.874755859375
1629724832813,-0.4498291015625,-0.06488037109375,0.87530517578125
1629724832813,-0.44854736328125,-0.061279296875,0.8775634765625
1629724832885,-0.45074462890625,-0.063720703125,0.875
1629724832885,-0.4488525390625,-0.06103515625,0.87518310546875
1629724832885,-0.4495849609375,-0.06195068359375,0.87799072265625
1629724832918,-0.45263671875,-0.0645751953125,0.884033203125
1629724832918,-0.44915771484375,-0.06292724609375,0.8763427734375
1629724832918,-0.450439453125,-0.06536865234375,0.880859375
1629724832978,-0.45050048828125,-0.0625,0.8785400390625
1629724832979,-0.4503173828125,-0.06732177734375,0.8780517578125
1629724832979,-0.45068359375,-0.064208984375,0.88165283203125
1629724833025,-0.45111083984375,-0.05914306640625,0.8778076171875
1629724833026,-0.453369140625,-0.05908203125,0.87762451171875
1629724833026,-0.4493408203125,-0.06292724609375,0.87762451171875
1629724833121,-0.447998046875,-0.0599365234375,0.8775634765625
1629724833121,-0.4459228515625,-0.06396484375,0.87786865234375
1629724833121,-0.45166015625,-0.06036376953125,0.87847900390625
1629724833187,-0.44854736328125,-0.06329345703125,0.877197265625
1629724833196,-0.45135498046875,-0.06353759765625,0.8780517578125
1629724833196,-0.4501953125,-0.066162109375,0.87762451171875
1629724833211,-0.45068359375,-0.061279296875,0.8795166015625
1629724833211,-0.45001220703125,-0.06561279296875,0.88153076171875
1629724833212,-0.449951171875,-0.06817626953125,0.87908935546875
1629724833254,-0.44659423828125,-0.06134033203125,0.87860107421875
1629724833254,-0.44769287109375,-0.06317138671875,0.8818359375
1629724833259,-0.4520263671875,-0.06256103515625,0.88385009765625
1629724833341,-0.44915771484375,-0.0634765625,0.88128662109375
1629724833341,-0.44793701171875,-0.06439208984375,0.88262939453125
1629724833341,-0.45050048828125,-0.06591796875,0.88043212890625
1629724833369,-0.44720458984375,-0.064697265625,0.8785400390625
1629724833377,-0.4493408203125,-0.06439208984375,0.87884521484375
1629724833378,-0.45068359375,-0.0623779296875,0.87939453125
1629724833466,-0.44927978515625,-0.05999755859375,0.87969970703125
1629724833467,-0.453125,-0.063232421875,0.88189697265625
1629724833467,-0.45269775390625,-0.06060791015625,0.87762451171875
1629724833514,-0.45001220703125,-0.06640625,0.8778076171875
1629724833514,-0.45257568359375,-0.063232421875,0.8760986328125
1629724833529,-0.4508056640625,-0.06732177734375,0.8765869140625
1629724833560,-0.4490966796875,-0.0599365234375,0.87567138671875
1629724833560,-0.44921875,-0.06011962890625,0.878662109375
1629724833560,-0.4539794921875,-0.0675048828125,0.875732421875
1629724833623,-0.45111083984375,-0.06146240234375,0.8804931640625
1629724833624,-0.44573974609375,-0.06103515625,0.88360595703125
1629724833624,-0.4442138671875,-0.059326171875,0.88140869140625
1629724833722,-0.45135498046875,-0.06243896484375,0.88079833984375
1629724833722,-0.4462890625,-0.0589599609375,0.88153076171875
1629724833723,-0.45068359375,-0.063720703125,0.88372802734375
1629724833753,-0.450927734375,-0.065673828125,0.88311767578125
1629724833754,-0.45013427734375,-0.06866455078125,0.88311767578125
1629724833771,-0.45025634765625,-0.06842041015625,0.8790283203125
1629724833839,-0.4522705078125,-0.06805419921875,0.87469482421875
1629724833840,-0.44866943359375,-0.0609130859375,0.87725830078125
1629724833840,-0.45147705078125,-0.0645751953125,0.88018798828125
1629724833936,-0.45184326171875,-0.06439208984375,0.874267578125
1629724833936,-0.44964599609375,-0.05908203125,0.87347412109375
1629724833936,-0.45086669921875,-0.06103515625,0.87725830078125
1629724833967,-0.45294189453125,-0.0631103515625,0.87652587890625
1629724833968,-0.45037841796875,-0.06231689453125,0.88153076171875
1629724833969,-0.4486083984375,-0.06427001953125,0.8795166015625
1629724834022,-0.45025634765625,-0.0640869140625,0.88128662109375
1629724834022,-0.4525146484375,-0.0645751953125,0.88226318359375
1629724834026,-0.4501953125,-0.0650634765625,0.8798828125
1629724834054,-0.45062255859375,-0.059814453125,0.878662109375
1629724834055,-0.4481201171875,-0.06292724609375,0.878662109375
1629724834056,-0.451171875,-0.05755615234375,0.87713623046875
1629724834085,-0.45074462890625,-0.06097412109375,0.8765869140625
1629724834085,-0.44903564453125,-0.0574951171875,0.87652587890625
1629724834085,-0.450439453125,-0.05926513671875,0.87530517578125
1629724834253,-0.44976806640625,-0.066162109375,0.880615234375
1629724834253,-0.45123291015625,-0.06439208984375,0.88134765625
1629724834254,-0.4515380859375,-0.0572509765625,0.87841796875
1629724834257,-0.45245361328125,-0.06689453125,0.87835693359375
1629724834258,-0.450927734375,-0.0615234375,0.877197265625
1629724834268,-0.44769287109375,-0.06719970703125,0.880126953125
1629724834287,-0.44708251953125,-0.06719970703125,0.88037109375
1629724834300,-0.4473876953125,-0.06304931640625,0.882080078125
1629724834308,-0.44488525390625,-0.06402587890625,0.8780517578125
1629724834341,-0.44683837890625,-0.06512451171875,0.8812255859375
1629724834341,-0.44879150390625,-0.06512451171875,0.8798828125
1629724834342,-0.4488525390625,-0.0611572265625,0.88275146484375
1629724834433,-0.44775390625,-0.06671142578125,0.8743896484375
1629724834433,-0.45233154296875,-0.0638427734375,0.87689208984375
1629724834434,-0.450439453125,-0.06524658203125,0.88092041015625
1629724834495,-0.4534912109375,-0.065185546875,0.87890625
1629724834495,-0.450927734375,-0.0634765625,0.87628173828125
1629724834496,-0.44989013671875,-0.06268310546875,0.87841796875
1629724834511,-0.45245361328125,-0.06170654296875,0.8782958984375
1629724834528,-0.45404052734375,-0.06500244140625,0.87701416015625
1629724834528,-0.45159912109375,-0.065185546875,0.87591552734375
1629724834591,-0.45263671875,-0.060791015625,0.87799072265625
1629724834591,-0.4517822265625,-0.07183837890625,0.87640380859375
1629724834592,-0.45147705078125,-0.06903076171875,0.87762451171875
1629724834620,-0.45257568359375,-0.06195068359375,0.8748779296875
1629724834620,-0.45281982421875,-0.0599365234375,0.8829345703125
1629724834621,-0.451416015625,-0.05859375,0.88037109375
1629724834701,-0.447021484375,-0.0567626953125,0.8814697265625
1629724834701,-0.44683837890625,-0.06024169921875,0.881591796875
1629724834701,-0.44970703125,-0.05999755859375,0.8829345703125
1629724834736,-0.449462890625,-0.067626953125,0.88018798828125
1629724834737,-0.4486083984375,-0.06982421875,0.88287353515625
1629724834737,-0.447509765625,-0.06512451171875,0.88201904296875
1629724834849,-0.451171875,-0.06573486328125,0.8792724609375
1629724834849,-0.44891357421875,-0.06597900390625,0.87847900390625
1629724834849,-0.4486083984375,-0.06878662109375,0.8790283203125
1629724834911,-0.45166015625,-0.06451416015625,0.8773193359375
1629724834912,-0.44976806640625,-0.0670166015625,0.87835693359375
1629724834918,-0.44970703125,-0.06573486328125,0.87811279296875
1629724834930,-0.4490966796875,-0.06298828125,0.8748779296875
1629724834930,-0.45111083984375,-0.05908203125,0.874267578125
1629724834931,-0.45025634765625,-0.06610107421875,0.8792724609375
1629724834961,-0.451904296875,-0.0648193359375,0.8826904296875
1629724834962,-0.4493408203125,-0.0650634765625,0.8839111328125
1629724834964,-0.45257568359375,-0.06536865234375,0.87884521484375
1629724835038,-0.45208740234375,-0.0615234375,0.8792724609375
1629724835038,-0.45111083984375,-0.06268310546875,0.88232421875
1629724835039,-0.4508056640625,-0.06689453125,0.88275146484375
1629724835118,-0.45098876953125,-0.0596923828125,0.8800048828125
1629724835118,-0.4530029296875,-0.06256103515625,0.87548828125
1629724835119,-0.44989013671875,-0.06182861328125,0.87481689453125
1629724835152,-0.44915771484375,-0.05975341796875,0.87847900390625
1629724835152,-0.45269775390625,-0.0601806640625,0.87420654296875
1629724835153,-0.44891357421875,-0.06671142578125,0.8780517578125
1629724835198,-0.449462890625,-0.067138671875,0.879638671875
1629724835199,-0.4503173828125,-0.065673828125,0.87908935546875
1629724835199,-0.44976806640625,-0.06829833984375,0.88140869140625
1629724835272,-0.44775390625,-0.068603515625,0.882568359375
1629724835273,-0.4466552734375,-0.068603515625,0.8831787109375
1629724835273,-0.45025634765625,-0.07208251953125,0.88177490234375
1629724835312,-0.45062255859375,-0.0638427734375,0.88067626953125
1629724835320,-0.4476318359375,-0.0670166015625,0.88360595703125
1629724835322,-0.4476318359375,-0.06451416015625,0.88189697265625
1629724835409,-0.4466552734375,-0.06396484375,0.88153076171875
1629724835417,-0.4490966796875,-0.06439208984375,0.87908935546875
1629724835417,-0.44818115234375,-0.06689453125,0.878662109375
1629724835472,-0.44873046875,-0.06317138671875,0.88140869140625
1629724835472,-0.45050048828125,-0.0655517578125,0.883056640625
1629724835473,-0.45074462890625,-0.06317138671875,0.87921142578125
1629724835534,-0.4527587890625,-0.06549072265625,0.87646484375
1629724835534,-0.4564208984375,-0.069580078125,0.87884521484375
1629724835534,-0.4556884765625,-0.06591796875,0.8768310546875
1629724835605,-0.45330810546875,-0.069580078125,0.87689208984375
1629724835605,-0.45098876953125,-0.06292724609375,0.87371826171875
1629724835605,-0.45684814453125,-0.0667724609375,0.87274169921875
1629724835636,-0.44927978515625,-0.0673828125,0.8753662109375
1629724835636,-0.45025634765625,-0.06878662109375,0.87847900390625
1629724835637,-0.4505615234375,-0.06964111328125,0.87725830078125
1629724835790,-0.4493408203125,-0.0672607421875,0.88531494140625
1629724835791,-0.4493408203125,-0.0667724609375,0.88189697265625
1629724835791,-0.44952392578125,-0.068603515625,0.8836669921875
1629724835854,-0.4508056640625,-0.06793212890625,0.87786865234375
1629724835854,-0.44537353515625,-0.07525634765625,0.8778076171875
1629724835854,-0.449951171875,-0.068359375,0.878662109375
1629724835902,-0.4478759765625,-0.0679931640625,0.87646484375
1629724835902,-0.44598388671875,-0.07293701171875,0.8800048828125
1629724835910,-0.44793701171875,-0.06756591796875,0.8753662109375
1629724835931,-0.44390869140625,-0.070556640625,0.87957763671875
1629724835932,-0.44244384765625,-0.0709228515625,0.88043212890625
1629724835933,-0.44635009765625,-0.06573486328125,0.88079833984375
1629724835994,-0.44451904296875,-0.066650390625,0.881591796875
1629724835995,-0.44818115234375,-0.06634521484375,0.88397216796875
1629724835995,-0.44598388671875,-0.06658935546875,0.88458251953125
1629724836025,-0.4493408203125,-0.0692138671875,0.88079833984375
1629724836025,-0.4466552734375,-0.0694580078125,0.88043212890625
1629724836031,-0.450927734375,-0.06463623046875,0.8790283203125
1629724836086,-0.447509765625,-0.06097412109375,0.87762451171875
1629724836086,-0.4486083984375,-0.062255859375,0.88092041015625
1629724836086,-0.451416015625,-0.0653076171875,0.87847900390625
1629724836152,-0.44891357421875,-0.06317138671875,0.880126953125
1629724836152,-0.446533203125,-0.06500244140625,0.879150390625
1629724836171,-0.4473876953125,-0.064697265625,0.882080078125
1629724836254,-0.4510498046875,-0.069580078125,0.88079833984375
1629724836254,-0.451171875,-0.067626953125,0.881103515625
1629724836254,-0.446533203125,-0.0655517578125,0.87982177734375
1629724836287,-0.44720458984375,-0.0638427734375,0.8804931640625
1629724836287,-0.448974609375,-0.0679931640625,0.877197265625
1629724836287,-0.45068359375,-0.065673828125,0.87921142578125
1629724836373,-0.44769287109375,-0.06219482421875,0.88262939453125
1629724836373,-0.45074462890625,-0.06390380859375,0.88214111328125
1629724836373,-0.4488525390625,-0.0648193359375,0.8812255859375
1629724836405,-0.4534912109375,-0.0679931640625,0.8790283203125
1629724836421,-0.45269775390625,-0.06341552734375,0.8743896484375
1629724836422,-0.449951171875,-0.0616455078125,0.878662109375
1629724836437,-0.44586181640625,-0.0623779296875,0.87872314453125
1629724836437,-0.44659423828125,-0.0699462890625,0.8775634765625
1629724836438,-0.4493408203125,-0.06689453125,0.87664794921875
1629724836498,-0.44573974609375,-0.06573486328125,0.88299560546875
1629724836498,-0.447265625,-0.06573486328125,0.8787841796875
1629724836498,-0.44512939453125,-0.0675048828125,0.8817138671875
1629724836595,-0.4459228515625,-0.06549072265625,0.8800048828125
1629724836595,-0.44464111328125,-0.0667724609375,0.880859375
1629724836595,-0.447021484375,-0.06854248046875,0.88250732421875
1629724836640,-0.4501953125,-0.066650390625,0.87994384765625
1629724836641,-0.4488525390625,-0.0645751953125,0.8829345703125
1629724836641,-0.44781494140625,-0.06756591796875,0.88458251953125
1629724836722,-0.45025634765625,-0.0672607421875,0.87677001953125
1629724836722,-0.44854736328125,-0.06494140625,0.8841552734375
1629724836724,-0.45111083984375,-0.0655517578125,0.878173828125
1629724836749,-0.44921875,-0.06591796875,0.879638671875
1629724836750,-0.45013427734375,-0.06597900390625,0.8758544921875
1629724836750,-0.44757080078125,-0.06610107421875,0.876708984375
1629724836796,-0.44683837890625,-0.0643310546875,0.8760986328125
1629724836796,-0.44842529296875,-0.0670166015625,0.879150390625
1629724836796,-0.4525146484375,-0.06976318359375,0.88067626953125
1629724836844,-0.44683837890625,-0.06396484375,0.8834228515625
1629724836844,-0.44476318359375,-0.06842041015625,0.88336181640625
1629724836844,-0.4481201171875,-0.06298828125,0.88482666015625
1629724836921,-0.4461669921875,-0.062744140625,0.88067626953125
1629724836921,-0.4454345703125,-0.06365966796875,0.88189697265625
1629724836921,-0.45068359375,-0.06158447265625,0.881591796875
1629724837004,-0.44927978515625,-0.0577392578125,0.877685546875
1629724837004,-0.449951171875,-0.05950927734375,0.87591552734375
1629724837008,-0.44805908203125,-0.0616455078125,0.8775634765625
1629724837034,-0.449462890625,-0.06219482421875,0.87969970703125
1629724837035,-0.44903564453125,-0.06561279296875,0.88104248046875
1629724837035,-0.45098876953125,-0.06219482421875,0.8778076171875
1629724837108,-0.4466552734375,-0.0662841796875,0.8780517578125
1629724837108,-0.44915771484375,-0.06915283203125,0.87835693359375
1629724837108,-0.448486328125,-0.06634521484375,0.87933349609375
1629724837155,-0.44976806640625,-0.06396484375,0.88037109375
1629724837155,-0.4481201171875,-0.0635986328125,0.88140869140625
1629724837155,-0.45062255859375,-0.06549072265625,0.87890625
1629724837236,-0.44927978515625,-0.06549072265625,0.8809814453125
1629724837237,-0.44940185546875,-0.06494140625,0.88397216796875
1629724837237,-0.4459228515625,-0.065673828125,0.87811279296875
1629724837268,-0.44976806640625,-0.06915283203125,0.876953125
1629724837268,-0.450439453125,-0.07342529296875,0.875244140625
1629724837268,-0.44879150390625,-0.06744384765625,0.88006591796875
1629724837313,-0.44659423828125,-0.0643310546875,0.87786865234375
1629724837315,-0.44921875,-0.06317138671875,0.87481689453125
